File: data/TGA/commercial_samples/ExpDat_2025_08_11_SL_PS_Petri_Dish_SCF3_isothermal.csv
#EXPORTTYPE:                 ,DATA ALL
#FILE:                       ,2025_08_11_SL_PS_Petri_Dish_SCF3_250721_P5EER2_V1_2_Isothermal.ngb-ss5
#FORMAT:                     ,NETZSCH5
#FTYPE:                      ,ASCII
#IDENTITY:                   ,250721-P5EER2-V1+2
#DECIMAL:                    ,POINT
#SEPARATOR:                  ,COMMA
#MTYPE:                      ,TG
#INSTRUMENT:                 ,NETZSCH STA 449F5
#PROJECT:                    ,
#DATE/TIME:                  ,8/11/2025 1:00:34 PM (UTC-4)
#CORR. FILE:                 ,
#TEMPCAL:                    ,05-05-2025 14:38
#SENSITIVITY:                ,28-06-2023 13:53
#LABORATORY:                 ,Tran/AAG
#OPERATOR:                   ,Stanley
#REMARK:                     ,2025_03_29_SL_005d_M1_isothermal
#SAMPLE:                     ,250721-P5EER2-V1+2
#SAMPLE MASS /mg:            ,4.93
#MATERIAL:                   ,Polystyrene
#REFERENCE:                  ,
#REFERENCE MASS /mg:         ,0
#TYPE OF CRUCIBLE:           ,Al2O3 85 ‘l, open
#SAMPLE CRUCIBLE MASS /mg:   ,0
#REFERENCE CRUCIBLE MASS /mg:,0
#DSC RANGE /‘V:              ,5000
#TG RANGE /mg:               ,35000
#TAU-R:                      ,---
#CORR. CODE:                 ,000
#EXO:                        ,-1
#RANGE:                      ,30›C....800›C/0.0....20.0K/min
#SEGMENT:                    ,S4/5
#SEG. 1:                     ,30›C/10.0(K/min)/100›C
#SEG. 2:                     ,100›C/00:10/100›C
#SEG. 3:                     ,100›C/5.0(K/min)/300›C
#SEG. 4:                     ,300›C/20:00/300›C
#SEG. 5:                     ,300›C/20.0(K/min)/800›C

##Temp./›C,Time/min,Mass/%,Sensit./(uV/mW)
298.909,  57.10000,87.30041,0.78822
301.673,  57.90000,86.75882,0.78565
302.401,  58.70000,86.16673,0.78496
302.985,  59.50000,85.82028,0.78442
303.376,  60.30000,85.39817,0.78405
303.306,  61.10000,85.05396,0.78412
303.055,  61.90000,84.72110,0.78435
302.795,  62.70000,84.44564,0.78460
302.483,  63.50000,84.17039,0.78489
302.155,  64.30000,83.95010,0.78519
301.854,  65.10000,83.75720,0.78548
301.572,  65.90000,83.53469,0.78574
301.331,  66.70000,83.30974,0.78596
301.108,  67.50000,83.14462,0.78617
300.929,  68.30000,82.95862,0.78634
300.771,  69.10000,82.78661,0.78649
300.633,  69.90000,82.66957,0.78662
300.529,  70.70000,82.48134,0.78671
300.439,  71.50000,82.33671,0.78680
300.367,  72.30000,82.17850,0.78686
300.306,  73.10000,82.03387,0.78692
300.231,  73.90000,81.90548,0.78699
300.196,  74.70000,81.79067,0.78702
300.163,  75.50000,81.65294,0.78705
300.134,  76.30000,81.51521,0.78708
300.111,  77.10000,81.40507,0.78710
300.084,  77.90000,81.29493,0.78713
300.074,  78.70000,81.18479,0.78714
300.065,  79.50000,81.07465,0.78715
300.044,  80.30000,80.96450,0.78716
300.033,  81.10000,80.88195,0.78718
300.029,  81.90000,80.73955,0.78718
300.04,  82.70000,80.64787,0.78717
300.027,  83.50000,80.58357,0.78718
300.013,  84.30000,80.45274,0.78719
300.014,  85.10000,80.36329,0.78719
300.009,  85.90000,80.28073,0.78720
300.016,  86.70000,80.19797,0.78719
300.008,  87.50000,80.11318,0.78720
300.022,  88.30000,80.03043,0.78719
300.014,  89.10000,79.94097,0.78719
300.009,  89.90000,79.86755,0.78720
300.017,  90.70000,79.79878,0.78719
300.013,  91.50000,79.71156,0.78719
300.008,  92.30000,79.62211,0.78720
300.011,  93.10000,79.57383,0.78720
300.017,  93.90000,79.51886,0.78719
300.018,  94.70000,79.44300,0.78719
300.015,  95.50000,79.38803,0.78719
300.014,  96.30000,79.32373,0.78719
300.012,  97.10000,79.24118,0.78719
300.01,  97.90000,79.19290,0.78720
300.015,  98.70000,79.11034,0.78719
300.015,  99.50000,79.08276,0.78719
300.01, 100.3,79.02779,0.78720
300.019, 101.1,79.02779,0.78719
300.007, 101.9,78.94503,0.78720
300.011, 102.7,78.89006,0.78720
300.007, 103.5,78.80730,0.78720
300.002, 104.3,78.75233,0.78720
300.018, 105.1,78.72475,0.78719
300.022, 105.9,78.64909,0.78719
300.003, 106.7,78.58702,0.78720
300.011, 107.5,78.54584,0.78720
300.012, 108.3,78.49067,0.78719
300.005, 109.1,78.43570,0.78720
300.013, 109.9,78.40811,0.78719
300.02, 110.7,78.34604,0.78719
300.024, 111.5,78.30487,0.78718
300.018, 112.3,78.23590,0.78719
300.006, 113.1,78.21298,0.78720
300.02, 113.9,78.18560,0.78719
300.01, 114.7,78.13043,0.78720
300.016, 115.5,78.07525,0.78719
300.025, 116.3,78.04787,0.78718
300.021, 117.1,78.01339,0.78719
300.016, 117.9,77.96511,0.78719
300.016, 118.7,77.92394,0.78719
300.01, 119.5,77.93773,0.78720
300.025, 120.3,77.85051,0.78718
300.029, 121.1,77.80223,0.78718
300.022, 121.9,77.76775,0.78719
300.021, 122.7,77.71278,0.78719
300.03, 123.5,77.68519,0.78718
300.017, 124.3,77.65761,0.78719
300.016, 125.1,77.65091,0.78719
300.017, 125.9,77.59574,0.78719
300.024, 126.7,77.58884,0.78718
300.033, 127.5,77.55436,0.78718
300.022, 128.3,77.53387,0.78719
300.018, 129.1,77.48560,0.78719
300.025, 129.9,77.47181,0.78718
300.023, 130.7,77.44422,0.78718
300.023, 131.5,77.42353,0.78718
300.022, 132.3,77.38925,0.78719
300.028, 133.1,77.37546,0.78718
300.019, 133.9,77.32028,0.78719
300.027, 134.7,77.30649,0.78718
300.023, 135.5,77.25152,0.78718
300.033, 136.3,77.25152,0.78718
300.024, 137.1,77.22394,0.78718
300.032, 137.9,77.19635,0.78718
300.024, 138.7,77.16897,0.78718
300.022, 139.5,77.15517,0.78719
300.023, 140.3,77.10000,0.78718
300.023, 141.1,77.10690,0.78718
300.018, 141.9,77.07931,0.78719
300.025, 142.7,77.06572,0.78718
300.026, 143.5,77.03124,0.78718
300.013, 144.3,76.98296,0.78719
300.014, 145.1,76.98296,0.78719
300.02, 145.9,76.92799,0.78719
300.023, 146.7,76.90041,0.78718
300.023, 147.5,76.90041,0.78718
300.016, 148.3,76.86592,0.78719
300.028, 149.1,76.85213,0.78718
300.032, 149.9,76.81785,0.78718
300.038, 150.7,76.81095,0.78717
300.035, 151.5,76.79026,0.78717
300.034, 152.3,76.79026,0.78717
300.025, 153.1,76.75578,0.78718
300.024, 153.9,76.70771,0.78718
300.02, 154.7,76.70771,0.78719
300.032, 155.5,76.68012,0.78718
300.021, 156.3,76.66633,0.78719
300.029, 157.1,76.62049,0.78718
300.02, 157.9,76.59290,0.78719
300.02, 158.7,76.59290,0.78719
300.017, 159.5,76.56531,0.78719
300.004, 160.3,76.56531,0.78720
300.007, 161.1,76.52414,0.78720
300.01, 161.9,76.49655,0.78720
300.008, 162.7,76.49655,0.78720
300.012, 163.5,76.46207,0.78719
300.008, 164.3,76.44828,0.78720
300.008, 165.1,76.42089,0.78720
300.024, 165.9,76.41156,0.78718
300.021, 166.7,76.38418,0.78719
300.014, 167.5,76.36349,0.78719
300.014, 168.3,76.37039,0.78719
300.025, 169.1,76.32211,0.78718
300.033, 169.9,76.30832,0.78718
300.024, 170.7,76.30142,0.78718
300.016, 171.5,76.25781,0.78719
300.012, 172.3,76.25091,0.78719
300.016, 173.1,76.23712,0.78719
300.019, 173.9,76.18215,0.78719
300.018, 174.7,76.19594,0.78719
300.02, 175.5,76.16836,0.78719
300.029, 176.3,76.16836,0.78718
300.026, 177.1,76.14077,0.78718
300.024, 177.9,76.14077,0.78718
300.025, 178.7,76.08580,0.78718
300.023, 179.5,76.08580,0.78718
300.01, 180.3,76.04442,0.78720
300.017, 181.1,76.01684,0.78719
300.03, 181.9,76.00304,0.78718
300.006, 182.7,76.00081,0.78720
300.011, 183.5,75.97323,0.78720
300.015, 184.3,75.95963,0.78719
300.019, 185.1,75.95274,0.78719
300.032, 185.9,75.89757,0.78718
300.01, 186.7,75.89757,0.78720
300.005, 187.5,75.86998,0.78720
300.01, 188.3,75.86998,0.78720
300.009, 189.1,75.84260,0.78720
300.012, 189.9,75.82191,0.78719
300.018, 190.7,75.82191,0.78719
300.005, 191.5,75.79432,0.78720
300.024, 192.3,75.76673,0.78718
300.002, 193.1,75.73915,0.78720
300.003, 193.9,75.73915,0.78720
300.009, 194.7,75.68418,0.78720
300.022, 195.5,75.68195,0.78719
300.008, 196.3,75.66815,0.78720
300.01, 197.1,75.64280,0.78720
300.009, 197.9,75.62901,0.78720
300.018, 198.7,75.61542,0.78719
300.012, 199.5,75.57404,0.78719
300.014, 200.3,75.57404,0.78719
300.021, 201.1,75.58093,0.78719
300.025, 201.9,75.55335,0.78718
300.03, 202.7,75.55335,0.78718
300.023, 203.5,75.49838,0.78718
300.034, 204.3,75.48458,0.78717
300.029, 205.1,75.49148,0.78718
300.019, 205.9,75.45700,0.78719
300.02, 206.7,75.42252,0.78719
300.023, 207.5,75.40183,0.78718
300.021, 208.3,75.40872,0.78719
300.007, 209.1,75.40872,0.78720
300.014, 209.9,75.38134,0.78719
300.021, 210.7,75.38134,0.78719
300.034, 211.5,75.35375,0.78717
300.02, 212.3,75.31927,0.78719
300.007, 213.1,75.32617,0.78720
300.014, 213.9,75.27120,0.78719
300.012, 214.7,75.27120,0.78719
300.002, 215.5,75.24361,0.78720
300.007, 216.3,75.22292,0.78720
300.011, 217.1,75.22982,0.78720
300.016, 217.9,75.17241,0.78719
300.01, 218.7,75.15172,0.78720
300.006, 219.5,75.17241,0.78720
300.008, 220.3,75.14483,0.78720
300.014, 221.1,75.09675,0.78719
300.018, 221.9,75.08986,0.78719
300.009, 222.7,75.06917,0.78720
300.028, 223.5,75.06227,0.78718
300.018, 224.3,75.02779,0.78719
300.014, 225.1,74.99351,0.78719
300.016, 225.9,74.99351,0.78719
300.025, 226.7,74.96592,0.78718
300.018, 227.5,74.93834,0.78719
300.022, 228.3,74.96592,0.78719
300.024, 229.1,74.91765,0.78718
300.014, 229.9,74.89006,0.78719
300.017, 230.7,74.89006,0.78719
300.019, 231.5,74.87870,0.78719
300.025, 232.3,74.85801,0.78718
300.001, 233.1,74.82353,0.78721
300.023, 233.9,74.81663,0.78718
300.011, 234.7,74.78925,0.78720
300.017, 235.5,74.76166,0.78719
300.032, 236.3,74.75477,0.78718
300.01, 237.1,74.72718,0.78720
300.021, 237.9,74.70649,0.78719
300.018, 238.7,74.69959,0.78719
300.005, 239.5,74.69290,0.78720
300.011, 240.3,74.67444,0.78720
300.032, 241.1,74.65375,0.78718
300.014, 241.9,74.61258,0.78719
300.006, 242.7,74.62617,0.78720
300.01, 243.5,74.56430,0.78720
300.02, 244.3,74.56430,0.78719
300.01, 245.1,74.56653,0.78720
300.016, 245.9,74.53671,0.78719
300.022, 246.7,74.50913,0.78719
300.012, 247.5,74.50913,0.78719
300.014, 248.3,74.46795,0.78719
300.015, 249.1,74.45416,0.78719
300.02, 249.9,74.44037,0.78719
300.014, 250.7,74.42657,0.78719
300.013, 251.5,74.41968,0.78719
300.016, 252.3,74.36471,0.78719
300.001, 253.1,74.36471,0.78721
300.011, 253.9,74.34178,0.78720
300.008, 254.7,74.34178,0.78720
300.007, 255.5,74.31420,0.78720
300.018, 256.3,74.28661,0.78719
300.024, 257.1,74.28661,0.78718
300.015, 257.9,74.25903,0.78719
300.018, 258.7,74.23164,0.78719
300.011, 259.5,74.21785,0.78720
300.02, 260.3,74.19939,0.78719
300.02, 261.1,74.17181,0.78719
300.018, 261.9,74.17181,0.78719
300.025, 262.7,74.14442,0.78718
300.016, 263.5,74.14442,0.78719
300.021, 264.3,74.13753,0.78719
300.022, 265.1,74.08235,0.78719
300.023, 265.9,74.08235,0.78718
300.021, 266.7,74.03428,0.78719
300.016, 267.5,74.03428,0.78719
300.019, 268.3,73.99980,0.78719
300.019, 269.1,73.99290,0.78719
300.03, 269.9,73.98600,0.78718
300.012, 270.7,73.94462,0.78719
300.017, 271.5,73.92414,0.78719
300.01, 272.3,73.95152,0.78720
300.023, 273.1,73.89655,0.78718
300.025, 273.9,73.86897,0.78718
300.027, 274.7,73.87120,0.78718
300.009, 275.5,73.84381,0.78720
300.01, 276.3,73.84381,0.78720
300.024, 277.1,73.82312,0.78718
300.005, 277.9,73.79554,0.78720
300.016, 278.7,73.78174,0.78719
300.016, 279.5,73.75416,0.78719
300.005, 280.3,73.72677,0.78720
300.014, 281.1,73.71988,0.78719
300.024, 281.9,73.68540,0.78718
300.012, 282.7,73.67850,0.78719
300.02, 283.5,73.65781,0.78719
300.011, 284.3,73.65781,0.78720
300.009, 285.1,73.63022,0.78720
300.01, 285.9,73.58905,0.78720
300.008, 286.7,73.59594,0.78720
300.012, 287.5,73.56836,0.78719
300.028, 288.3,73.57525,0.78718
300.011, 289.1,73.56836,0.78720
300.013, 289.9,73.54077,0.78719
300.02, 290.7,73.52698,0.78719
300.025, 291.5,73.47890,0.78718
300.019, 292.3,73.40994,0.78719
300.01, 293.1,73.42373,0.78720
300.011, 293.9,73.41684,0.78720
300.012, 294.7,73.45132,0.78719
300.005, 295.5,73.40304,0.78720
300.004, 296.3,73.34807,0.78720
300.009, 297.1,73.34807,0.78720
300.012, 297.9,73.34807,0.78719
300.004, 298.7,73.35943,0.78720
300.005, 299.5,73.34584,0.78720
300.003, 300.3,73.35274,0.78720
299.994, 301.1,73.31136,0.78721
300.007, 301.9,73.30446,0.78720
300.008, 302.7,73.30446,0.78720
300.016, 303.5,73.30446,0.78719
300.012, 304.3,73.30446,0.78719
300.007, 305.1,73.25396,0.78720
300.03, 305.9,73.26085,0.78718
300.005, 306.7,73.26552,0.78720
300.017, 307.5,73.22414,0.78719
300.031, 308.3,73.21034,0.78718
300.014, 309.1,73.15538,0.78719
300.017, 309.9,73.15538,0.78719
300.027, 310.7,73.16227,0.78718
300.019, 311.5,73.16227,0.78719
300.029, 312.3,73.10933,0.78718
300.021, 313.1,73.11176,0.78719
300.017, 313.9,73.08418,0.78719
300.016, 314.7,73.06815,0.78719
300.012, 315.5,73.04057,0.78719
300.021, 316.3,73.01988,0.78719
300.02, 317.1,72.99229,0.78719
300.023, 317.9,72.96491,0.78718
300.021, 318.7,72.98540,0.78719
300.014, 319.5,72.95112,0.78719
300.009, 320.3,72.93043,0.78720
300.003, 321.1,72.91663,0.78720
300.011, 321.9,72.88215,0.78720
300.01, 322.7,72.85477,0.78720
300.013, 323.5,72.86836,0.78719
300.011, 324.3,72.80872,0.78720
299.999, 325.1,72.80872,0.78721
300.015, 325.9,72.80183,0.78719
299.999, 326.7,72.78580,0.78721
300.008, 327.5,72.74442,0.78720
300.008, 328.3,72.74442,0.78720
300.011, 329.1,72.71704,0.78720
300.005, 329.9,72.68945,0.78720
299.994, 330.7,72.66187,0.78721
300.005, 331.5,72.64118,0.78720
300.01, 332.3,72.63428,0.78720
300.007, 333.1,72.57931,0.78720
300.018, 333.9,72.56552,0.78719
300.018, 334.7,72.56085,0.78719
300.001, 335.5,72.54726,0.78721
300.012, 336.3,72.51968,0.78719
299.998, 337.1,72.49209,0.78721
300.007, 337.9,72.46450,0.78720
300.013, 338.7,72.44381,0.78719
300.021, 339.5,72.43022,0.78719
300.011, 340.3,72.42089,0.78720
300.033, 341.1,72.36592,0.78718
300.017, 341.9,72.33367,0.78719
300.016, 342.7,72.32677,0.78719
300.018, 343.5,72.30629,0.78719
300.01, 344.3,72.30629,0.78720
300.016, 345.1,72.27870,0.78719
300.024, 345.9,72.25112,0.78718
300.021, 346.7,72.23043,0.78719
300.01, 347.5,72.17546,0.78720
300.015, 348.3,72.16166,0.78719
300.014, 349.1,72.16166,0.78719
300.014, 349.9,72.13408,0.78719
300.014, 350.7,72.10649,0.78719
300.014, 351.5,72.09270,0.78719
300.01, 352.3,72.09959,0.78720
300.014, 353.1,72.04462,0.78719
300.018, 353.9,72.02394,0.78719
300.024, 354.7,72.01704,0.78718
300.01, 355.5,71.96207,0.78720
300.011, 356.3,71.96207,0.78720
300.023, 357.1,71.95963,0.78718
300.014, 357.9,71.90467,0.78719
300.009, 358.7,71.92535,0.78720
300.002, 359.5,71.87018,0.78720
300.005, 360.3,71.84949,0.78720
300.012, 361.1,71.86329,0.78719
300.023, 361.9,71.80588,0.78718
300.015, 362.7,71.77850,0.78719
300.03, 363.5,71.77850,0.78718
300.024, 364.3,71.77850,0.78718
300.003, 365.1,71.72333,0.78720
300.004, 365.9,71.72333,0.78720
300.016, 366.7,71.66815,0.78719
300.019, 367.5,71.67505,0.78719
300.02, 368.3,71.63144,0.78719
300.015, 369.1,71.63144,0.78719
300.011, 369.9,71.60406,0.78720
300.027, 370.7,71.59716,0.78718
300.022, 371.5,71.57647,0.78719
300.018, 372.3,71.52130,0.78719
300.022, 373.1,71.52130,0.78719
300.012, 373.9,71.50771,0.78719
300.021, 374.7,71.50081,0.78719
300.016, 375.5,71.46633,0.78719
300.026, 376.3,71.46633,0.78718
300.005, 377.1,71.43874,0.78720
300.008, 377.9,71.41116,0.78720
300.013, 378.7,71.38377,0.78719
300.015, 379.5,71.36308,0.78719
300.031, 380.3,71.36308,0.78718
300.018, 381.1,71.33327,0.78719
300.002, 381.9,71.33327,0.78720
300.027, 382.7,71.29189,0.78718
300.009, 383.5,71.26430,0.78720
300.019, 384.3,71.27120,0.78719
300.018, 385.1,71.24381,0.78719
300.02, 385.9,71.23002,0.78719
300.014, 386.7,71.21623,0.78719
300.012, 387.5,71.19554,0.78719
300.013, 388.3,71.15416,0.78719
300.006, 389.1,71.17485,0.78720
300.012, 389.9,71.14726,0.78719
300.014, 390.7,71.11988,0.78719
300.024, 391.5,71.14037,0.78718
300.011, 392.3,71.08763,0.78720
300.023, 393.1,71.06004,0.78718
300.01, 393.9,71.06247,0.78720
300.014, 394.7,71.03489,0.78719
300.011, 395.5,71.00730,0.78720
300.011, 396.3,71.00041,0.78720
300.022, 397.1,70.95233,0.78719
300.016, 397.9,70.95233,0.78719
300.011, 398.7,70.93854,0.78720
300.019, 399.5,70.93854,0.78719
300.011, 400.3,70.91095,0.78720
300.014, 401.1,70.87647,0.78719
300.012, 401.9,70.85598,0.78719
300.026, 402.7,70.82840,0.78718
300.012, 403.5,70.80081,0.78719
300.004, 404.3,70.80081,0.78720
300.021, 405.1,70.79391,0.78719
299.996, 405.9,70.73895,0.78721
300.011, 406.7,70.73895,0.78720
300, 407.5,70.71136,0.78721
300.008, 408.3,70.67688,0.78720
300.022, 409.1,70.66998,0.78719
300.014, 409.9,70.66308,0.78719
300.015, 410.7,70.60811,0.78719
300.021, 411.5,70.61501,0.78719
300.019, 412.3,70.58742,0.78719
300.01, 413.1,70.56673,0.78720
299.996, 413.9,70.53225,0.78721
300.01, 414.7,70.53225,0.78720
300.008, 415.5,70.50020,0.78720
300.021, 416.3,70.50710,0.78719
300.021, 417.1,70.47262,0.78719
300.016, 417.9,70.44503,0.78719
300.022, 418.7,70.44503,0.78719
300.015, 419.5,70.41765,0.78719
300.015, 420.3,70.39006,0.78719
300.007, 421.1,70.37627,0.78720
300.011, 421.9,70.34868,0.78720
300.016, 422.7,70.34868,0.78719
300.014, 423.5,70.32799,0.78719
300.014, 424.3,70.30751,0.78719
300.014, 425.1,70.28682,0.78719
300.022, 425.9,70.26613,0.78719
300.019, 426.7,70.23164,0.78719
300.023, 427.5,70.23164,0.78718
300.02, 428.3,70.21785,0.78719
300.017, 429.1,70.19047,0.78719
300.023, 429.9,70.19270,0.78718
300.019, 430.7,70.16511,0.78719
300.016, 431.5,70.13753,0.78719
300.019, 432.3,70.12394,0.78719
300.019, 433.1,70.11014,0.78719
300.025, 433.9,70.08256,0.78718
300.029, 434.7,70.05497,0.78718
300.033, 435.5,70.05497,0.78718
300.022, 436.3,70.05497,0.78719
300.022, 437.1,70.02515,0.78719
300.014, 437.9,70.00446,0.78719
300.014, 438.7,69.98377,0.78719
300.017, 439.5,69.95639,0.78719
300.009, 440.3,69.94949,0.78720
300.016, 441.1,69.92191,0.78719
300.021, 441.9,69.89432,0.78719
300.022, 442.7,69.86673,0.78719
300.025, 443.5,69.86004,0.78718
300.018, 444.3,69.83935,0.78719
300.011, 445.1,69.81866,0.78720
300.015, 445.9,69.81176,0.78719
300.013, 446.7,69.77728,0.78719
300.015, 447.5,69.76349,0.78719
300.021, 448.3,69.76349,0.78719
300.012, 449.1,69.74990,0.78719
300.006, 449.9,69.71542,0.78720
300.023, 450.7,69.68783,0.78718
300.015, 451.5,69.66024,0.78719
300.017, 452.3,69.66714,0.78719
300.018, 453.1,69.64645,0.78719
300.021, 453.9,69.63955,0.78719
300.023, 454.7,69.55700,0.78718
300.018, 455.5,69.58458,0.78719
300.013, 456.3,69.55700,0.78719
300.028, 457.1,69.55700,0.78718
300.009, 457.9,69.52941,0.78720
300.005, 458.7,69.52941,0.78720
300.004, 459.5,69.50203,0.78720
300.008, 460.3,69.49513,0.78720
300.003, 461.1,69.46755,0.78720
300.003, 461.9,69.45375,0.78720
300.01, 462.7,69.44686,0.78720
300.012, 463.5,69.43306,0.78719
300.02, 464.3,69.42617,0.78719
300.013, 465.1,69.39878,0.78719
300.016, 465.9,69.37120,0.78719
300.011, 466.7,69.34361,0.78720
300.012, 467.5,69.34361,0.78719
300.016, 468.3,69.31602,0.78719
300.011, 469.1,69.30223,0.78720
300.019, 469.9,69.27485,0.78719
300.01, 470.7,69.26795,0.78720
300.017, 471.5,69.24726,0.78719
300.018, 472.3,69.21968,0.78719
300.015, 473.1,69.19209,0.78719
300.02, 473.9,69.17830,0.78719
300.007, 474.7,69.15781,0.78720
300.014, 475.5,69.15091,0.78719
300.005, 476.3,69.10953,0.78720
300.014, 477.1,69.09574,0.78719
300.018, 477.9,69.07505,0.78719
300.006, 478.7,69.09574,0.78720
300.021, 479.5,69.04077,0.78719
300.025, 480.3,69.02698,0.78718
300.016, 481.1,69.01095,0.78719
300.017, 481.9,69.00406,0.78719
300.017, 482.7,68.97647,0.78719
300.019, 483.5,68.95578,0.78719
300.027, 484.3,68.95578,0.78718
300.029, 485.1,68.92819,0.78718
300.019, 485.9,68.90081,0.78719
300.026, 486.7,68.87323,0.78718
300.004, 487.5,68.86633,0.78720
300.015, 488.3,68.85943,0.78719
300.014, 489.1,68.83185,0.78719
300.025, 489.9,68.83185,0.78718
300.008, 490.7,68.80426,0.78720
300.017, 491.5,68.77688,0.78719
300.022, 492.3,68.74929,0.78719
300.021, 493.1,68.74929,0.78719
300.015, 493.9,68.72170,0.78719
300.005, 494.7,68.73773,0.78720
300.017, 495.5,68.69655,0.78719
300.005, 496.3,68.67586,0.78720
300.016, 497.1,68.66897,0.78719
300.013, 497.9,68.64828,0.78719
300.009, 498.7,68.64138,0.78720
300.03, 499.5,68.63448,0.78718
300.035, 500.3,68.58641,0.78717
300.012, 501.1,68.58641,0.78719
300.019, 501.9,68.55882,0.78719
300.025, 502.7,68.53124,0.78718
300.015, 503.5,68.51055,0.78719
300.023, 504.3,68.48316,0.78718
300.027, 505.1,68.48316,0.78718
300.026, 505.9,68.48316,0.78718
300.012, 506.7,68.45558,0.78719
300.013, 507.5,68.45558,0.78719
300.022, 508.3,68.42799,0.78719
300.008, 509.1,68.39351,0.78720
300.014, 509.9,68.40041,0.78719
300.021, 510.7,68.37282,0.78719
300.028, 511.5,68.34544,0.78718
300.013, 512.3,68.31095,0.78719
300.009, 513.1,68.29026,0.78720
300.003, 513.9,68.29026,0.78720
300.008, 514.7,68.26268,0.78720
300.023, 515.5,68.23529,0.78718
300.023, 516.3,68.20771,0.78718
300.018, 517.1,68.20771,0.78719
300.006, 517.9,68.18012,0.78720
300.015, 518.7,68.15254,0.78719
300.021, 519.5,68.14564,0.78719
300.021, 520.3,68.12515,0.78719
300.019, 521.1,68.10446,0.78719
300.018, 521.9,68.08377,0.78719
300.029, 522.7,68.05619,0.78718
300.016, 523.5,68.05619,0.78719
300.011, 524.3,68.02860,0.78720
300.01, 525.1,67.99432,0.78720
300.006, 525.9,68.03103,0.78720
300.014, 526.7,67.99189,0.78719
300.015, 527.5,67.93692,0.78719
300.014, 528.3,67.93692,0.78719
300.016, 529.1,67.89554,0.78719
300.018, 529.9,67.89554,0.78719
300.007, 530.7,67.86815,0.78720
300.002, 531.5,67.87485,0.78720
300.015, 532.3,67.81988,0.78719
300.015, 533.1,67.83367,0.78719
300.011, 533.9,67.79229,0.78720
300.016, 534.7,67.78540,0.78719
300.018, 535.5,67.75781,0.78719
300.018, 536.3,67.75112,0.78719
300.019, 537.1,67.72353,0.78719
300.012, 537.9,67.72353,0.78719
300.022, 538.7,67.70974,0.78719
300.019, 539.5,67.68215,0.78719
300.02, 540.3,67.64544,0.78719
300.019, 541.1,67.63854,0.78719
300.025, 541.9,67.61095,0.78718
300.021, 542.7,67.61785,0.78719
300.024, 543.5,67.57667,0.78718
300.017, 544.3,67.56288,0.78719
300.018, 545.1,67.56288,0.78719
300.024, 545.9,67.54909,0.78718
300.015, 546.7,67.53529,0.78719
300.02, 547.5,67.50771,0.78719
300.021, 548.3,67.49391,0.78719
300.024, 549.1,67.43895,0.78718
300.014, 549.9,67.44807,0.78719
300.014, 550.7,67.42049,0.78719
300.015, 551.5,67.42049,0.78719
300.017, 552.3,67.40000,0.78719
300.018, 553.1,67.40000,0.78719
300.012, 553.9,67.37241,0.78719
300.02, 554.7,67.31724,0.78719
300.018, 555.5,67.32414,0.78719
300.02, 556.3,67.30345,0.78719
300.017, 557.1,67.30345,0.78719
300.017, 557.9,67.29655,0.78719
300.015, 558.7,67.28053,0.78719
300.015, 559.5,67.25314,0.78719
300.018, 560.3,67.22556,0.78719
300.029, 561.1,67.21866,0.78718
300.019, 561.9,67.18418,0.78719
300.017, 562.7,67.16349,0.78719
300.018, 563.5,67.13611,0.78719
300.017, 564.3,67.13611,0.78719
300.022, 565.1,67.10162,0.78719
300.014, 565.9,67.09473,0.78719
300.008, 566.7,67.07404,0.78720
300.009, 567.5,67.06024,0.78720
300.018, 568.3,67.03266,0.78719
300.023, 569.1,67.03266,0.78718
300.021, 569.9,67.00527,0.78719
300.023, 570.7,66.97769,0.78718
300.024, 571.5,66.97769,0.78718
300.018, 572.3,66.95010,0.78719
300.013, 573.1,66.92252,0.78719
300.014, 573.9,66.89513,0.78719
300.018, 574.7,66.88824,0.78719
300.004, 575.5,66.85375,0.78720
300.022, 576.3,66.85375,0.78719
300.019, 577.1,66.83996,0.78719
300.025, 577.9,66.80548,0.78718
300.023, 578.7,66.77809,0.78718
300.018, 579.5,66.75051,0.78719
300.028, 580.3,66.74361,0.78718
300.024, 581.1,66.71602,0.78718
300.013, 581.9,66.70223,0.78719
300.003, 582.7,66.68844,0.78720
300.019, 583.5,66.69533,0.78719
300.011, 584.3,66.64037,0.78720
300.007, 585.1,66.64037,0.78720
300.009, 585.9,66.61968,0.78720
300.02, 586.7,66.58519,0.78719
300.014, 587.5,66.55781,0.78719
300.016, 588.3,66.55781,0.78719
300.005, 589.1,66.57140,0.78720
299.999, 589.9,66.51643,0.78721
300.009, 590.7,66.51643,0.78720
300.011, 591.5,66.48884,0.78720
300.009, 592.3,66.47505,0.78720
300.015, 593.1,66.44767,0.78719
300.024, 593.9,66.42698,0.78718
300.008, 594.7,66.39939,0.78720
300.016, 595.5,66.37181,0.78719
300.017, 596.3,66.37181,0.78719
300.025, 597.1,66.37181,0.78718
300.028, 597.9,66.34422,0.78718
300.034, 598.7,66.32373,0.78717
300.031, 599.5,66.30994,0.78718
300.018, 600.3,66.28925,0.78719
300.019, 601.1,66.30304,0.78719
300.02, 601.9,66.28235,0.78719
300.022, 602.7,66.25477,0.78719
300.02, 603.5,66.20669,0.78719
300.011, 604.3,66.18600,0.78720
300.023, 605.1,66.18357,0.78718
300.009, 605.9,66.16308,0.78720
300.006, 606.7,66.12860,0.78720
300.013, 607.5,66.15619,0.78719
300.021, 608.3,66.12860,0.78719
300.023, 609.1,66.10791,0.78718
300.03, 609.9,66.04604,0.78718
300.014, 610.7,66.03915,0.78719
300.017, 611.5,66.03225,0.78719
300.02, 612.3,65.99777,0.78719
300.017, 613.1,65.99777,0.78719
300.028, 613.9,65.95639,0.78718
300.01, 614.7,65.92901,0.78720
300.022, 615.5,65.92901,0.78719
300.014, 616.3,65.91521,0.78719
300.029, 617.1,65.90142,0.78718
300.024, 617.9,65.90142,0.78718
300.029, 618.7,65.87383,0.78718
300.02, 619.5,65.83935,0.78719
300.017, 620.3,65.81197,0.78719
300.016, 621.1,65.79817,0.78719
300.005, 621.9,65.78438,0.78720
300.019, 622.7,65.75680,0.78719
300.005, 623.5,65.74300,0.78720
300.022, 624.3,65.71562,0.78719
300.007, 625.1,65.68803,0.78720
300.02, 625.9,65.64665,0.78719
300.01, 626.7,65.65355,0.78720
300.03, 627.5,65.62596,0.78718
300.01, 628.3,65.61907,0.78720
300.019, 629.1,65.61217,0.78719
300.018, 629.9,65.58479,0.78719
300.015, 630.7,65.55720,0.78719
300.017, 631.5,65.55030,0.78719
300.004, 632.3,65.53651,0.78720
300.027, 633.1,65.49513,0.78718
300.018, 633.9,65.49513,0.78719
300.016, 634.7,65.48844,0.78719
300.017, 635.5,65.46085,0.78719
300.007, 636.3,65.43327,0.78720
300.025, 637.1,65.40568,0.78718
300.021, 637.9,65.38499,0.78719
300.014, 638.7,65.35761,0.78719
300.008, 639.5,65.33692,0.78720
300.001, 640.3,65.33002,0.78721
300.01, 641.1,65.32312,0.78720
300.006, 641.9,65.26795,0.78720
300.021, 642.7,65.29554,0.78719
300.016, 643.5,65.26795,0.78719
300.01, 644.3,65.24746,0.78720
300.022, 645.1,65.23367,0.78719
300.005, 645.9,65.18540,0.78720
300.009, 646.7,65.20609,0.78720
300.013, 647.5,65.16247,0.78719
300.023, 648.3,65.12799,0.78718
300.032, 649.1,65.12799,0.78718
300.018, 649.9,65.10751,0.78719
300.024, 650.7,65.10061,0.78718
300.025, 651.5,65.08682,0.78718
300.014, 652.3,65.05923,0.78719
300.02, 653.1,65.03164,0.78719
300.008, 653.9,65.00406,0.78720
300.037, 654.7,65.00406,0.78717
300.016, 655.5,64.96978,0.78719
300.007, 656.3,64.96288,0.78720
300.017, 657.1,64.93306,0.78719
300.027, 657.9,64.91927,0.78718
300.014, 658.7,64.89168,0.78719
300.019, 659.5,64.86410,0.78719
300.014, 660.3,64.84341,0.78719
300.025, 661.1,64.83671,0.78718
300.007, 661.9,64.80913,0.78720
300.011, 662.7,64.82982,0.78720
300.02, 663.5,64.80000,0.78719
300.019, 664.3,64.77241,0.78719
300.022, 665.1,64.74483,0.78719
300.017, 665.9,64.74483,0.78719
300.014, 666.7,64.71724,0.78719
300.015, 667.5,64.66917,0.78719
300.019, 668.3,64.66917,0.78719
300.02, 669.1,64.64158,0.78719
300.016, 669.9,64.64158,0.78719
300.015, 670.7,64.62089,0.78719
300.016, 671.5,64.59331,0.78719
300.007, 672.3,64.56592,0.78720
300.008, 673.1,64.57262,0.78720
300.022, 673.9,64.56592,0.78719
300.023, 674.7,64.54523,0.78718
300.018, 675.5,64.51765,0.78719
300.014, 676.3,64.49006,0.78719
300.004, 677.1,64.46937,0.78720
300.01, 677.9,64.44199,0.78720
300.007, 678.7,64.42819,0.78720
300.016, 679.5,64.41440,0.78719
300.019, 680.3,64.41440,0.78719
300.017, 681.1,64.38682,0.78719
300.017, 681.9,64.35923,0.78719
300.02, 682.7,64.33185,0.78719
300.018, 683.5,64.33185,0.78719
300.02, 684.3,64.29736,0.78719
300.012, 685.1,64.26978,0.78719
300.011, 685.9,64.25598,0.78720
300.024, 686.7,64.24909,0.78718
300.021, 687.5,64.22170,0.78719
300.026, 688.3,64.20791,0.78718
300.02, 689.1,64.17343,0.78719
300.015, 689.9,64.17343,0.78719
300.009, 690.7,64.14584,0.78720
300.012, 691.5,64.11826,0.78719
300.002, 692.3,64.09087,0.78720
300.017, 693.1,64.09777,0.78719
300.025, 693.9,64.07241,0.78718
300.024, 694.7,64.04483,0.78718
300.024, 695.5,64.01744,0.78718
300.011, 696.3,64.01744,0.78720
300.022, 697.1,63.98986,0.78719
300.009, 697.9,63.96227,0.78720
300.011, 698.7,63.94848,0.78720
300.008, 699.5,63.95538,0.78720
300.011, 700.3,63.92779,0.78720
300.017, 701.1,63.87282,0.78719
300.011, 701.9,63.87282,0.78720
300.006, 702.7,63.84523,0.78720
300.029, 703.5,63.84523,0.78718
300.007, 704.3,63.82454,0.78720
300.007, 705.1,63.76957,0.78720
300.016, 705.9,63.74888,0.78719
300.022, 706.7,63.75355,0.78719
300.006, 707.5,63.69838,0.78720
300.017, 708.3,63.72596,0.78719
300.013, 709.1,63.70527,0.78719
300.014, 709.9,63.67769,0.78719
300.031, 710.7,63.65700,0.78718
300.019, 711.5,63.63651,0.78719
300.021, 712.3,63.60203,0.78719
300.018, 713.1,63.58134,0.78719
300.014, 713.9,63.56755,0.78719
300.017, 714.7,63.56065,0.78719
300.017, 715.5,63.53327,0.78719
300.023, 716.3,63.52637,0.78718
300.023, 717.1,63.49878,0.78718
300.02, 717.9,63.49878,0.78719
300.007, 718.7,63.47809,0.78720
300.017, 719.5,63.47809,0.78719
300.005, 720.3,63.42982,0.78720
300.014, 721.1,63.42292,0.78719
300.022, 721.9,63.39310,0.78719
300.024, 722.7,63.36572,0.78718
300.013, 723.5,63.35193,0.78719
300.009, 724.3,63.31055,0.78720
299.997, 725.1,63.31055,0.78721
300.013, 725.9,63.31055,0.78719
300.007, 726.7,63.28296,0.78720
300.01, 727.5,63.25558,0.78720
300.011, 728.3,63.25558,0.78720
300.011, 729.1,63.23489,0.78720
300.014, 729.9,63.20730,0.78719
300.004, 730.7,63.17282,0.78720
300.011, 731.5,63.15903,0.78720
300.002, 732.3,63.14544,0.78720
300.009, 733.1,63.11785,0.78720
300.019, 733.9,63.09026,0.78719
300.019, 734.7,63.09716,0.78719
300.017, 735.5,63.06957,0.78719
300.01, 736.3,63.04888,0.78720
300.014, 737.1,63.02840,0.78719
300.018, 737.9,63.00771,0.78719
300.023, 738.7,62.98012,0.78718
300.019, 739.5,62.97099,0.78719
300.014, 740.3,62.94341,0.78719
300.017, 741.1,62.90892,0.78719
300.005, 741.9,62.90892,0.78720
300.016, 742.7,62.88154,0.78719
300.009, 743.5,62.88154,0.78720
300.013, 744.3,62.85396,0.78719
300.02, 745.1,62.83327,0.78719
300.013, 745.9,62.81947,0.78719
300.014, 746.7,62.79878,0.78719
300.02, 747.5,62.76450,0.78719
300.014, 748.3,62.73002,0.78719
300.021, 749.1,62.74381,0.78719
300.017, 749.9,62.70243,0.78719
300.02, 750.7,62.69554,0.78719
300.02, 751.5,62.68174,0.78719
300.014, 752.3,62.66105,0.78719
300.015, 753.1,62.66105,0.78719
300.011, 753.9,62.61298,0.78720
300.011, 754.7,62.59229,0.78720
300.017, 755.5,62.58540,0.78719
300.016, 756.3,62.56471,0.78719
300.016, 757.1,62.56471,0.78719
300.026, 757.9,62.52353,0.78718
300.022, 758.7,62.50974,0.78719
300.007, 759.5,62.48215,0.78720
300.019, 760.3,62.47525,0.78719
300.003, 761.1,62.44767,0.78720
300.02, 761.9,62.42698,0.78719
300.015, 762.7,62.42028,0.78719
300.024, 763.5,62.37890,0.78718
300.025, 764.3,62.37890,0.78718
300.021, 765.1,62.35822,0.78719
300.025, 765.9,62.32373,0.78718
300.01, 766.7,62.30325,0.78720
300.018, 767.5,62.29635,0.78719
300.018, 768.3,62.26876,0.78719
300.016, 769.1,62.24807,0.78719
300.016, 769.9,62.25497,0.78719
300.012, 770.7,62.20669,0.78719
300.017, 771.5,62.21359,0.78719
300.023, 772.3,62.18621,0.78718
300.019, 773.1,62.15862,0.78719
300.017, 773.9,62.15862,0.78719
300.022, 774.7,62.12414,0.78719
300.022, 775.5,62.09655,0.78719
300.019, 776.3,62.07606,0.78719
300.018, 777.1,62.04158,0.78719
300.026, 777.9,62.03469,0.78718
300.014, 778.7,62.00710,0.78719
300.019, 779.5,61.98641,0.78719
300.018, 780.3,61.98641,0.78719
300.014, 781.1,61.95903,0.78719
300.012, 781.9,61.90385,0.78719
300, 782.7,61.93144,0.78721
300.01, 783.5,61.90385,0.78720
300.013, 784.3,61.87627,0.78719
300.01, 785.1,61.84888,0.78720
300.023, 785.9,61.82819,0.78718
300.027, 786.7,61.82130,0.78718
300.026, 787.5,61.76613,0.78718
300.023, 788.3,61.75923,0.78718
300.02, 789.1,61.72495,0.78719
300.022, 789.9,61.72495,0.78719
300.026, 790.7,61.72495,0.78718
300.015, 791.5,61.69736,0.78719
300.005, 792.3,61.67890,0.78720
300.012, 793.1,61.66511,0.78719
300.009, 793.9,61.63773,0.78720
300.013, 794.7,61.61014,0.78719
300.015, 795.5,61.59635,0.78719
300.025, 796.3,61.56876,0.78718
300.022, 797.1,61.57566,0.78719
300.016, 797.9,61.53448,0.78719
300.012, 798.7,61.52759,0.78719
300.003, 799.5,61.48621,0.78720
300.02, 800.3,61.45172,0.78719
300.023, 801.1,61.45172,0.78718
300.017, 801.9,61.45172,0.78719
300.014, 802.7,61.42434,0.78719
300.014, 803.5,61.39675,0.78719
300.01, 804.3,61.36917,0.78720
300.002, 805.1,61.36227,0.78720
300.007, 805.9,61.34158,0.78720
300.015, 806.7,61.31400,0.78719
300.019, 807.5,61.30730,0.78719
300.024, 808.3,61.25903,0.78718
300.008, 809.1,61.26126,0.78720
300.013, 809.9,61.24057,0.78719
300.004, 810.7,61.23387,0.78720
300.009, 811.5,61.20629,0.78720
300.019, 812.3,61.17181,0.78719
300.018, 813.1,61.14422,0.78719
300.014, 813.9,61.16491,0.78719
299.998, 814.7,61.12353,0.78721
300.022, 815.5,61.11684,0.78719
300.01, 816.3,61.08925,0.78720
300.017, 817.1,61.05477,0.78719
300.017, 817.9,61.02028,0.78719
300.017, 818.7,61.02028,0.78719
300.018, 819.5,60.99980,0.78719
300.018, 820.3,60.98600,0.78719
300.022, 821.1,60.97221,0.78719
300.008, 821.9,60.94462,0.78720
300.018, 822.7,60.94462,0.78719
300.022, 823.5,60.92394,0.78719
300.034, 824.3,60.88276,0.78717
300.021, 825.1,60.86897,0.78719
300.01, 825.9,60.85517,0.78720
300.014, 826.7,60.82759,0.78719
300.013, 827.5,60.81379,0.78719
300.018, 828.3,60.80690,0.78719
300.024, 829.1,60.77931,0.78718
300.019, 829.9,60.75193,0.78719
300.016, 830.7,60.75193,0.78719
300.01, 831.5,60.69675,0.78720
300.007, 832.3,60.71055,0.78720
300.007, 833.1,60.68986,0.78720
300.01, 833.9,60.66917,0.78720
300.014, 834.7,60.64178,0.78719
300.014, 835.5,60.64178,0.78719
300.017, 836.3,60.61420,0.78719
300.014, 837.1,60.59351,0.78719
300.022, 837.9,60.56592,0.78719
300.01, 838.7,60.53164,0.78720
300.033, 839.5,60.51785,0.78718
300.006, 840.3,60.50406,0.78720
300.01, 841.1,60.49716,0.78720
300.008, 841.9,60.46957,0.78720
300.007, 842.7,60.44199,0.78720
300.009, 843.5,60.41460,0.78720
300.02, 844.3,60.41460,0.78719
300.032, 845.1,60.35943,0.78718
300.027, 845.9,60.33185,0.78718
300.012, 846.7,60.33874,0.78719
300.022, 847.5,60.31805,0.78719
300.027, 848.3,60.31805,0.78718
300.018, 849.1,60.27688,0.78719
300.014, 849.9,60.26308,0.78719
300.025, 850.7,60.26308,0.78718
300.021, 851.5,60.22170,0.78719
300.016, 852.3,60.21481,0.78719
300.024, 853.1,60.18742,0.78718
300.025, 853.9,60.18742,0.78718
300.015, 854.7,60.13225,0.78719
300.009, 855.5,60.13225,0.78720
300.015, 856.3,60.10467,0.78719
300.015, 857.1,60.07039,0.78719
300.021, 857.9,60.09087,0.78719
300.022, 858.7,60.04970,0.78719
300.024, 859.5,60.04280,0.78718
300.011, 860.3,60.02211,0.78720
300.018, 861.1,59.99452,0.78719
300.027, 861.9,59.96714,0.78718
300.014, 862.7,59.96024,0.78719
300.016, 863.5,59.93266,0.78719
300.017, 864.3,59.91197,0.78719
300.013, 865.1,59.89817,0.78719
300.019, 865.9,59.84320,0.78719
300.012, 866.7,59.86369,0.78719
300.016, 867.5,59.85680,0.78719
300.014, 868.3,59.81562,0.78719
300.011, 869.1,59.80872,0.78720
300.018, 869.9,59.78114,0.78719
300.024, 870.7,59.77424,0.78718
300.015, 871.5,59.75355,0.78719
300.022, 872.3,59.74665,0.78719
300.019, 873.1,59.70548,0.78719
300.012, 873.9,59.68479,0.78719
300.019, 874.7,59.67789,0.78719
300.025, 875.5,59.65720,0.78718
300.03, 876.3,59.66410,0.78718
300.016, 877.1,59.61602,0.78719
300.013, 877.9,59.59533,0.78719
300.028, 878.7,59.60913,0.78718
300.015, 879.5,59.58154,0.78719
300.014, 880.3,59.54016,0.78719
300.023, 881.1,59.51258,0.78718
300.016, 881.9,59.51258,0.78719
300.02, 882.7,59.49899,0.78719
300.017, 883.5,59.46450,0.78719
300.007, 884.3,59.45761,0.78720
300.013, 885.1,59.45761,0.78719
300.023, 885.9,59.43469,0.78718
300.007, 886.7,59.40710,0.78720
300.017, 887.5,59.38641,0.78719
300.002, 888.3,59.35882,0.78720
300.011, 889.1,59.33144,0.78720
300.001, 889.9,59.31765,0.78721
300.009, 890.7,59.29696,0.78720
299.999, 891.5,59.26937,0.78721
300.019, 892.3,59.26937,0.78719
300.016, 893.1,59.24868,0.78719
300.011, 893.9,59.24868,0.78720
300.011, 894.7,59.22130,0.78720
300.021, 895.5,59.21440,0.78719
300.017, 896.3,59.18215,0.78719
300.031, 897.1,59.17525,0.78718
300.024, 897.9,59.14097,0.78718
300.014, 898.7,59.12028,0.78719
300.019, 899.5,59.11339,0.78719
300.032, 900.3,59.08580,0.78718
300.011, 901.1,59.08580,0.78720
300.024, 901.9,59.05822,0.78718
300.026, 902.7,59.03083,0.78718
300.023, 903.5,59.00325,0.78718
300.007, 904.3,58.97566,0.78720
300.007, 905.1,58.94807,0.78720
300.02, 905.9,58.93428,0.78719
300.01, 906.7,58.90690,0.78720
300.01, 907.5,58.87931,0.78720
300.013, 908.3,58.89310,0.78719
300.003, 909.1,58.86552,0.78720
300.021, 909.9,58.83793,0.78719
300.033, 910.7,58.83793,0.78718
300.015, 911.5,58.81055,0.78719
300.023, 912.3,58.78296,0.78718
300.019, 913.1,58.76917,0.78719
300.02, 913.9,58.74158,0.78719
300.001, 914.7,58.73469,0.78721
300.009, 915.5,58.73469,0.78720
300.008, 916.3,58.70710,0.78720
300.004, 917.1,58.67972,0.78720
300, 917.9,58.63834,0.78721
299.998, 918.7,58.63144,0.78721
300.017, 919.5,58.60385,0.78719
300.006, 920.3,58.57647,0.78720
300.006, 921.1,58.54888,0.78720
300.018, 921.9,58.54888,0.78719
300.001, 922.7,58.52130,0.78721
300.005, 923.5,58.52130,0.78720
300.015, 924.3,58.47992,0.78719
300.013, 925.1,58.46633,0.78719
300.017, 925.9,58.45254,0.78719
300.023, 926.7,58.42495,0.78718
300.021, 927.5,58.39736,0.78719
300.021, 928.3,58.37667,0.78719
300.021, 929.1,58.36978,0.78719
300.008, 929.9,58.34239,0.78720
300.008, 930.7,58.31481,0.78720
300.007, 931.5,58.31481,0.78720
300.007, 932.3,58.28722,0.78720
300.007, 933.1,58.25274,0.78720
300.014, 933.9,58.24361,0.78719
300.018, 934.7,58.21602,0.78719
300.018, 935.5,58.18864,0.78719
300.018, 936.3,58.18864,0.78719
300.016, 937.1,58.18174,0.78719
300.011, 937.9,58.12657,0.78720
300.009, 938.7,58.12657,0.78720
300.015, 939.5,58.09899,0.78719
300.023, 940.3,58.07160,0.78718
300.016, 941.1,58.07160,0.78719
300.015, 941.9,58.03022,0.78719
300.02, 942.7,58.02333,0.78719
300.008, 943.5,57.99574,0.78720
300.021, 944.3,57.98884,0.78719
300.019, 945.1,57.98884,0.78719
300.021, 945.9,57.96146,0.78719
300.01, 946.7,57.93387,0.78720
300.025, 947.5,57.93834,0.78718
300.026, 948.3,57.90406,0.78718
300.031, 949.1,57.88337,0.78718
300.033, 949.9,57.88337,0.78718
300.021, 950.7,57.84665,0.78719
300.018, 951.5,57.81907,0.78719
300.011, 952.3,57.83753,0.78720
300.014, 953.1,57.78235,0.78719
300.003, 953.9,57.75477,0.78720
300.011, 954.7,57.75477,0.78720
299.996, 955.5,57.72049,0.78721
300.008, 956.3,57.69290,0.78720
300.012, 957.1,57.67911,0.78719
300.026, 957.9,57.65842,0.78718
300.022, 958.7,57.65152,0.78719
300.029, 959.5,57.63083,0.78718
300.021, 960.3,57.61724,0.78719
300.02, 961.1,57.60345,0.78719
300.024, 961.9,57.58966,0.78718
300.024, 962.7,57.56897,0.78718
300.009, 963.5,57.55517,0.78720
300.027, 964.3,57.52069,0.78718
300.014, 965.1,57.52069,0.78719
300.016, 965.9,57.49331,0.78719
300.012, 966.7,57.45882,0.78719
300.018, 967.5,57.45882,0.78719
300.009, 968.3,57.43813,0.78720
300, 969.1,57.41744,0.78721
300.006, 969.9,57.41744,0.78720
300.024, 970.7,57.38316,0.78718
300.011, 971.5,57.35558,0.78720
300.016, 972.3,57.35558,0.78719
300.023, 973.1,57.30041,0.78718
300.015, 973.9,57.30041,0.78719
300.021, 974.7,57.27992,0.78719
300.011, 975.5,57.25233,0.78720
300.018, 976.3,57.24544,0.78719
300.017, 977.1,57.21785,0.78719
300.009, 977.9,57.21095,0.78720
300.019, 978.7,57.21095,0.78719
300.017, 979.5,57.18337,0.78719
300.01, 980.3,57.15598,0.78720
300.011, 981.1,57.12840,0.78720
300.018, 981.9,57.12840,0.78719
300.011, 982.7,57.08702,0.78720
300.017, 983.5,57.07323,0.78719
300.031, 984.3,57.04584,0.78718
300.011, 985.1,57.02515,0.78720
300.022, 985.9,56.99757,0.78719
300.026, 986.7,56.96998,0.78718
300.026, 987.5,56.96998,0.78718
300.026, 988.3,56.95619,0.78718
300.022, 989.1,56.91501,0.78719
300.033, 989.9,56.91501,0.78718
300.025, 990.7,56.90122,0.78718
300.028, 991.5,56.87363,0.78718
300.028, 992.3,56.83225,0.78718
300.014, 993.1,56.83225,0.78719
300.017, 993.9,56.81866,0.78719
300.016, 994.7,56.79108,0.78719
300.022, 995.5,56.74057,0.78719
300.023, 996.3,56.76815,0.78718
300.021, 997.1,56.71298,0.78719
300.021, 997.9,56.71298,0.78719
300.003, 998.7,56.69229,0.78720
300.008, 999.5,56.69696,0.78720
300.014,1000.3,56.66247,0.78719
300.002,1001.1,56.62819,0.78720
300.017,1001.9,56.58682,0.78719
300.008,1002.7,56.57992,0.78720
300.005,1003.5,56.57992,0.78720
300.005,1004.3,56.57302,0.78720
299.998,1005.1,56.51785,0.78721
300.019,1005.9,56.51116,0.78719
300.015,1006.7,56.49736,0.78719
300.015,1007.5,56.47667,0.78719
300.006,1008.3,56.46288,0.78720
300.018,1009.1,56.42150,0.78719
300.017,1009.9,56.42150,0.78719
300.028,1010.7,56.38722,0.78718
300.01,1011.5,56.35963,0.78720
300.022,1012.3,56.35963,0.78719
300.01,1013.1,56.35274,0.78720
300.017,1013.9,56.31136,0.78719
300.015,1014.7,56.31136,0.78719
300.016,1015.5,56.27708,0.78719
300.016,1016.3,56.24949,0.78719
300.013,1017.1,56.24949,0.78719
300.001,1017.9,56.20811,0.78721
300.01,1018.7,56.20122,0.78720
300.013,1019.5,56.17363,0.78719
300.014,1020.3,56.16004,0.78719
300.007,1021.1,56.10487,0.78720
300.01,1021.9,56.11176,0.78720
300.018,1022.7,56.09108,0.78719
300.02,1023.5,56.06349,0.78719
300.028,1024.3,56.06349,0.78718
300.015,1025.1,56.02921,0.78719
300.017,1025.9,56.00162,0.78719
300.01,1026.7,56.01542,0.78720
300.012,1027.5,56.00162,0.78719
300.012,1028.3,55.97404,0.78719
300.023,1029.1,55.94645,0.78718
300.026,1029.9,55.91907,0.78718
300.022,1030.7,55.89148,0.78719
300.028,1031.5,55.87769,0.78718
300.02,1032.3,55.87769,0.78719
300.015,1033.1,55.84320,0.78719
300.014,1033.9,55.82941,0.78719
300.02,1034.7,55.81582,0.78719
300.012,1035.5,55.78824,0.78719
300.013,1036.3,55.76065,0.78719
300.016,1037.1,55.75842,0.78719
300.022,1037.9,55.72860,0.78719
300.025,1038.7,55.70101,0.78718
300.024,1039.5,55.70101,0.78718
300.008,1040.3,55.65274,0.78720
300.013,1041.1,55.64584,0.78719
300.027,1041.9,55.63225,0.78718
300.017,1042.7,55.63225,0.78719
300.025,1043.5,55.60467,0.78718
300.015,1044.3,55.57708,0.78719
300.03,1045.1,55.57708,0.78718
300.024,1045.9,55.53570,0.78718
300.02,1046.7,55.50142,0.78719
300.023,1047.5,55.49209,0.78718
300.019,1048.3,55.47850,0.78719
300.022,1049.1,55.45781,0.78719
300.038,1049.9,55.43022,0.78717
300.024,1050.7,55.41643,0.78718
300.023,1051.5,55.37505,0.78718
300.014,1052.3,55.37505,0.78719
300.018,1053.1,55.34767,0.78719
300.013,1053.9,55.34767,0.78719
300.004,1054.7,55.32008,0.78720
300.013,1055.5,55.29249,0.78719
300.023,1056.3,55.27870,0.78718
300.022,1057.1,55.27870,0.78719
300.011,1057.9,55.22373,0.78720
300.018,1058.7,55.22373,0.78719
300.016,1059.5,55.19615,0.78719
300.015,1060.3,55.16856,0.78719
300.018,1061.1,55.14787,0.78719
300.02,1061.9,55.13428,0.78719
300.027,1062.7,55.12049,0.78718
300.021,1063.5,55.09980,0.78719
300.032,1064.3,55.07221,0.78718
300.021,1065.1,55.04462,0.78719
300.018,1065.9,55.03083,0.78719
300.013,1066.7,55.01034,0.78719
300.007,1067.5,55.00345,0.78720
300.017,1068.3,54.97586,0.78719
300.01,1069.1,55.00345,0.78720
300.02,1069.9,54.94828,0.78719
300.016,1070.7,54.92069,0.78719
300.026,1071.5,54.91379,0.78718
300.018,1072.3,54.87018,0.78719
300.021,1073.1,54.87018,0.78719
300.018,1073.9,54.83590,0.78719
300.014,1074.7,54.81298,0.78719
300.016,1075.5,54.81298,0.78719
300.018,1076.3,54.79919,0.78719
300.018,1077.1,54.74402,0.78719
300.01,1077.9,54.73955,0.78720
300.015,1078.7,54.71197,0.78719
300.022,1079.5,54.69817,0.78719
300.019,1080.3,54.69128,0.78719
300.022,1081.1,54.65680,0.78719
300.016,1081.9,54.64300,0.78719
300.005,1082.7,54.62941,0.78720
300.015,1083.5,54.58803,0.78719
300.021,1084.3,54.56734,0.78719
300.006,1085.1,54.56734,0.78720
300.024,1085.9,54.53976,0.78718
300.015,1086.7,54.52596,0.78719
300.013,1087.5,54.50548,0.78719
300.003,1088.3,54.48479,0.78720
300.013,1089.1,54.47789,0.78719
300.008,1089.9,54.42961,0.78720
300.014,1090.7,54.40892,0.78719
300.013,1091.5,54.40892,0.78719
300.012,1092.3,54.38154,0.78719
300.003,1093.1,54.37465,0.78720
300.017,1093.9,54.32637,0.78719
300.027,1094.7,54.34706,0.78718
300.015,1095.5,54.29878,0.78719
300.016,1096.3,54.28519,0.78719
300.027,1097.1,54.25761,0.78718
300.011,1097.9,54.23002,0.78720
300.011,1098.7,54.20933,0.78720
300.011,1099.5,54.20243,0.78720
300.023,1100.3,54.16572,0.78718
300.014,1101.1,54.14503,0.78719
300.012,1101.9,54.14280,0.78719
300.007,1102.7,54.11521,0.78720
300.005,1103.5,54.11521,0.78720
300.016,1104.3,54.06714,0.78719
300.027,1105.1,54.06024,0.78718
300.02,1105.9,54.06024,0.78719
300.009,1106.7,54.00507,0.78720
300.01,1107.5,54.01197,0.78720
300.022,1108.3,53.97079,0.78719
300.029,1109.1,53.95700,0.78718
300.025,1109.9,53.95700,0.78718
300.024,1110.7,53.92252,0.78718
300.018,1111.5,53.92252,0.78719
300.017,1112.3,53.89270,0.78719
300.012,1113.1,53.87201,0.78719
300.013,1113.9,53.83753,0.78719
300.018,1114.7,53.83753,0.78719
300.018,1115.5,53.81704,0.78719
300.017,1116.3,53.81704,0.78719
300.013,1117.1,53.76187,0.78719
300.037,1117.9,53.72738,0.78717
300.018,1118.7,53.72049,0.78719
300.017,1119.5,53.72049,0.78719
300.01,1120.3,53.69310,0.78720
300.019,1121.1,53.67241,0.78719
300.009,1121.9,53.65172,0.78720
300.014,1122.7,53.63793,0.78719
300.019,1123.5,53.62414,0.78719
300.013,1124.3,53.61724,0.78719
300.015,1125.1,53.58742,0.78719
300.023,1125.9,53.54625,0.78718
300.024,1126.7,53.51866,0.78718
300.004,1127.5,53.52089,0.78720
300.011,1128.3,53.47972,0.78720
300.007,1129.1,53.50020,0.78720
300.013,1129.9,53.46592,0.78719
300.026,1130.7,53.45213,0.78718
300.03,1131.5,53.43834,0.78718
300.02,1132.3,53.41075,0.78719
300.013,1133.1,53.38316,0.78719
300.018,1133.9,53.35578,0.78719
300.009,1134.7,53.33509,0.78720
300.015,1135.5,53.30061,0.78719
300.01,1136.3,53.30061,0.78720
300.009,1137.1,53.29371,0.78720
300.019,1137.9,53.29371,0.78719
300.025,1138.7,53.26613,0.78718
300.023,1139.5,53.24564,0.78718
300.023,1140.3,53.21339,0.78718
300.015,1141.1,53.18134,0.78719
300.018,1141.9,53.16065,0.78719
300.021,1142.7,53.17444,0.78719
300,1143.5,53.14686,0.78721
300.01,1144.3,53.11927,0.78720
300.013,1145.1,53.09189,0.78719
300.015,1145.9,53.09189,0.78719
300.027,1146.7,53.07809,0.78718
300.025,1147.5,53.05051,0.78718
300.02,1148.3,53.02982,0.78719
300.013,1149.1,53.02292,0.78719
300.02,1149.9,52.98174,0.78719
300.013,1150.7,52.97485,0.78719
300.018,1151.5,52.94037,0.78719
300.026,1152.3,52.92657,0.78718
300.021,1153.1,52.89899,0.78719
300.016,1153.9,52.87830,0.78719
300.028,1154.7,52.87830,0.78718
300.02,1155.5,52.85091,0.78719
300.018,1156.3,52.83022,0.78719
300.023,1157.1,52.80264,0.78718
300.025,1157.9,52.80264,0.78718
300.03,1158.7,52.77505,0.78718
300.032,1159.5,52.76815,0.78718
300.022,1160.3,52.74077,0.78719
300.016,1161.1,52.72008,0.78719
300.013,1161.9,52.69026,0.78719
300.015,1162.7,52.66957,0.78719
300.018,1163.5,52.66734,0.78719
300.024,1164.3,52.66734,0.78718
300.016,1165.1,52.61217,0.78719
300.022,1165.9,52.59148,0.78719
300.018,1166.7,52.57769,0.78719
300.021,1167.5,52.56410,0.78719
300.023,1168.3,52.54564,0.78718
300.021,1169.1,52.54564,0.78719
300.023,1169.9,52.49047,0.78718
300.018,1170.7,52.49047,0.78719
300.019,1171.5,52.45842,0.78719
300.007,1172.3,52.44462,0.78720
299.994,1173.1,52.41704,0.78721
299.999,1173.9,52.43083,0.78721
300.008,1174.7,52.40345,0.78720
300.024,1175.5,52.35517,0.78718
300.022,1176.3,52.32069,0.78719
300.009,1177.1,52.32759,0.78720
300.015,1177.9,52.30000,0.78719
300.005,1178.7,52.32069,0.78720
300.02,1179.5,52.26572,0.78719
300.015,1180.3,52.23813,0.78719
300.015,1181.1,52.24503,0.78719
300.021,1181.9,52.21744,0.78719
300.028,1182.7,52.21055,0.78718
300.025,1183.5,52.18316,0.78718
300.018,1184.3,52.15558,0.78719
300.006,1185.1,52.14402,0.78720
300.006,1185.9,52.12333,0.78720
300.023,1186.7,52.10953,0.78718
300.018,1187.5,52.10953,0.78719
300.017,1188.3,52.08215,0.78719
300.01,1189.1,52.05456,0.78720
300.026,1189.9,52.02698,0.78718
300.014,1190.7,52.00629,0.78719
300.015,1191.5,51.97890,0.78719
300.019,1192.3,51.96511,0.78719
300.017,1193.1,51.95132,0.78719
300.019,1193.9,51.90994,0.78719
300.015,1194.7,51.92373,0.78719
300.018,1195.5,51.89615,0.78719
300.013,1196.3,51.88235,0.78719
300.01,1197.1,51.83428,0.78720
300.006,1197.9,51.82272,0.78720
300.013,1198.7,51.81582,0.78719
300.018,1199.5,51.80203,0.78719
300.016,1200.3,51.77465,0.78719
300.026,1201.1,51.74706,0.78718
300.029,1201.9,51.72637,0.78718
300.018,1202.7,51.77911,0.78719
300.019,1203.5,51.70345,0.78719
300.022,1204.3,51.66897,0.78719
300.031,1205.1,51.57262,0.78718
300.024,1205.9,51.60020,0.78718
300.029,1206.7,51.60020,0.78718
300.027,1207.5,51.56572,0.78718
300.014,1208.3,51.60933,0.78719
300.008,1209.1,51.63002,0.78720
300.006,1209.9,51.57485,0.78720
300.022,1210.7,51.55436,0.78719
300.019,1211.5,51.49919,0.78719
300.048,1212.3,51.47850,0.78716
300.019,1213.1,51.42799,0.78719
300.026,1213.9,51.40061,0.78718
300.025,1214.7,51.35233,0.78718
300.023,1215.5,51.35233,0.78718
300.017,1216.3,51.35923,0.78719
300.005,1217.1,51.31095,0.78720
300.019,1217.9,51.32475,0.78719
300.024,1218.7,51.27667,0.78718
300.014,1219.5,51.24909,0.78719
300.036,1220.3,51.23529,0.78717
300.027,1221.1,51.22150,0.78718
300.019,1221.9,51.20548,0.78719
300.022,1222.7,51.15030,0.78719
300.021,1223.5,51.12292,0.78719
300.012,1224.3,51.09533,0.78719
300.016,1225.1,51.09533,0.78719
300.016,1225.9,51.04016,0.78719
300.022,1226.7,51.04016,0.78719
300.014,1227.5,51.00588,0.78719
300.024,1228.3,51.00345,0.78718
300.018,1229.1,50.97606,0.78719
300.016,1229.9,50.96227,0.78719
300.01,1230.7,50.94848,0.78720
300.017,1231.5,50.89331,0.78719
300.007,1232.3,50.89331,0.78720
300.013,1233.1,50.86592,0.78719
300.004,1233.9,50.86592,0.78720
300.019,1234.7,50.83834,0.78719
300.01,1235.5,50.81075,0.78720
300.019,1236.3,50.79696,0.78719
300.026,1237.1,50.80385,0.78718
300.022,1237.9,50.75578,0.78719
300.011,1238.7,50.74199,0.78720
300.017,1239.5,50.74199,0.78719
300.012,1240.3,50.74199,0.78719
300.016,1241.1,50.70061,0.78719
300.02,1241.9,50.68682,0.78719
300.023,1242.7,50.66613,0.78718
300.011,1243.5,50.65923,0.78720
300.02,1244.3,50.65233,0.78719
300.019,1245.1,50.59736,0.78719
300.007,1245.9,50.57667,0.78720
300.011,1246.7,50.56978,0.78720
300.017,1247.5,50.54219,0.78719
300.025,1248.3,50.53773,0.78718
300.025,1249.1,50.51237,0.78718
300.013,1249.9,50.51014,0.78719
300.013,1250.7,50.50325,0.78719
300.022,1251.5,50.48256,0.78719
300.007,1252.3,50.49635,0.78720
300.02,1253.1,50.44828,0.78719
300.011,1253.9,50.40690,0.78720
300.022,1254.7,50.43448,0.78719
300.016,1255.5,50.39533,0.78719
300.016,1256.3,50.38621,0.78719
300.014,1257,50.35862,0.78719