File: data/TGA/commercial_samples/ExpDat_2025_09_14_SL_PS_Petri_Dish_SCF3_250912_P5EER7_V1_2_isothermal.csv
#EXPORTTYPE:                 ,DATA ALL
#FILE:                       ,2025_09_14_SL_PS_Petri_Dish_SCF3_250912_P5EER7_V1_2_Isothermal.ngb-ss5
#FORMAT:                     ,NETZSCH5
#FTYPE:                      ,ASCII
#IDENTITY:                   ,P5EER7-V1+2
#DECIMAL:                    ,POINT
#SEPARATOR:                  ,COMMA
#MTYPE:                      ,DSC
#INSTRUMENT:                 ,NETZSCH STA 449F5
#PROJECT:                    ,PS-SCF3
#DATE/TIME:                  ,9/14/2025 9:11:45 PM (UTC-4)
#CORR. FILE:                 ,
#TEMPCAL:                    ,05-05-2025 14:38
#SENSITIVITY:                ,28-06-2023 13:53
#LABORATORY:                 ,Tran
#OPERATOR:                   ,Stanley
#REMARK:                     ,2025_03_29_SL_005d_M1_isothermal
#SAMPLE:                     ,P5EER7-V1+2
#SAMPLE MASS /mg:            ,4.98
#MATERIAL:                   ,Polystyrene
#REFERENCE:                  ,
#REFERENCE MASS /mg:         ,0
#TYPE OF CRUCIBLE:           ,Al2O3 85 ‘l, open
#SAMPLE CRUCIBLE MASS /mg:   ,0
#REFERENCE CRUCIBLE MASS /mg:,0
#DSC RANGE /‘V:              ,5000
#TG RANGE /mg:               ,35000
#TAU-R:                      ,---
#CORR. CODE:                 ,000
#EXO:                        ,-1
#RANGE:                      ,30›C....800›C/0.0....20.0K/min
#SEGMENT:                    ,S1-5/5
#SEG. 1:                     ,30›C/10.0(K/min)/100›C
#SEG. 2:                     ,100›C/00:10/100›C
#SEG. 3:                     ,100›C/5.0(K/min)/300›C
#SEG. 4:                     ,300›C/20:00/300›C
#SEG. 5:                     ,300›C/20.0(K/min)/800›C

##Temp./›C,Time/min,DSC/(mW/mg),Mass/%,Gas Flow(purge2)/(ml/min),Gas Flow(protective)/(ml/min),TIC(scan:1)/A,Sensit./(uV/mW),Segment
 40.64900,   0.00000,      0.91590,100,50.00000,50.00000,            ,0.92516,1
 42.02800,   1.24000,      0.38776, 91.99438,50.00000,50.00000,6.831107e-09,0.92517,1
 45.74500,   2.48000,      0.73600, 94.00944,50.00000,50.00000,6.831347e-09,0.92520,1
 51.62100,   3.72000,      1.20984, 95.19076,50.00000,50.00000,6.829125e-09,0.92524,1
 60.71400,   4.96000,      1.89344, 96.59699,50.00000,50.00000,6.833890e-09,0.92529,1
 72.54200,   6.20000,      2.52970, 97.73956,50.00000,50.00000,6.831854e-09,0.92536,1
 83.74200,   7.22000,      2.97574, 98.43936,50.00000,50.00000,6.832756e-09,0.92542,2
 90.27700,   7.84000,      2.92741, 98.21225,50.00000,50.00000,6.824827e-09,0.92547,2
 95.34200,   8.46000,      2.48181, 97.51024,50.00000,50.00000,6.836509e-09,0.92552,2
 99.03800,   9.08000,      1.95163, 96.86265,50.00000,50.00000,6.842047e-09,0.92556,2
102.001,   9.70000,      1.57574, 96.45161,50.00000,50.00000,6.836860e-09,0.92560,2
104.537,  10.32000,      1.32157, 96.11305,50.00000,50.00000,6.831413e-09,0.92565,2
106.537,  10.94000,      1.07656, 95.73815,50.00000,50.00000,6.836212e-09,0.92569,2
107.978,  11.56000,      0.80879, 95.27028,50.00000,50.00000,6.831386e-09,0.92572,2
108.861,  12.18000,      0.55035, 94.86124,50.00000,50.00000,6.815958e-09,0.92577,2
109.336,  12.80000,      0.33109, 94.47731,50.00000,50.00000,6.815403e-09,0.92581,2
109.51,  13.42000,      0.15713, 94.16606,50.00000,50.00000,6.815406e-09,0.92586,2
109.389,  14.04000, 1.484530e-02, 93.84578,50.00000,50.00000,6.830909e-09,0.92591,2
109.1,  14.66000,-9.957093e-02, 93.56867,50.00000,50.00000,6.822195e-09,0.92595,2
108.631,  15.28000,     -0.19027, 93.31888,50.00000,50.00000,6.842382e-09,0.92599,2
108.058,  15.90000,     -0.25793, 93.06667,50.00000,50.00000,6.833822e-09,0.92604,2
107.393,  16.52000,     -0.30455, 92.86667,50.00000,50.00000,6.829246e-09,0.92607,2
106.523,  17.28000,     -0.33330, 92.62811,50.00000,50.00000,6.836649e-09,0.92612,3
106.573,  18.52000, 8.632586e-02, 93.29378,50.00000,50.00000,6.823113e-09,0.92617,3
108.936,  19.76000,      0.61174, 93.95482,50.00000,50.00000,6.837410e-09,0.92620,3
112.767,  21.00000,      1.00144, 94.52972,50.00000,50.00000,6.833730e-09,0.92619,3
118.065,  22.24000,      1.39320, 95.12932,50.00000,50.00000,6.819245e-09,0.92615,3
124.405,  23.48000,      1.67515, 95.58373,50.00000,50.00000,6.840693e-09,0.92605,3
131.354,  24.72000,      1.86008, 95.94277,50.00000,50.00000,6.835955e-09,0.92591,3
138.643,  25.96000,      1.96464, 96.16084,50.00000,50.00000,6.821477e-09,0.92571,3
145.99,  27.20000,      2.00671, 96.31064,50.00000,50.00000,6.816386e-09,0.92546,3
153.273,  28.44000,      2.00485, 96.39257,50.00000,50.00000,6.830744e-09,0.92510,3
160.331,  29.68000,      1.97829, 96.44699,50.00000,50.00000,6.825550e-09,0.92470,3
167.192,  30.92000,      1.94488, 96.50161,50.00000,50.00000,6.830839e-09,0.92445,3
173.852,  32.16000,      1.91496, 96.52871,50.00000,50.00000,6.814670e-09,0.92418,3
180.367,  33.40000,      1.89431, 96.57651,50.00000,50.00000,6.820033e-09,0.92393,3
186.766,  34.64000,      1.88011, 96.61064,50.00000,50.00000,6.820385e-09,0.92367,3
193.076,  35.88000,      1.86929, 96.63092,50.00000,50.00000,6.824892e-09,0.92337,3
199.317,  37.12000,      1.86209, 96.68775,50.00000,50.00000,6.833998e-09,0.92312,3
205.525,  38.36000,      1.85717, 96.74237,50.00000,50.00000,6.822015e-09,0.92288,3
211.699,  39.60000,      1.85101, 96.77189,50.00000,50.00000,6.822850e-09,0.92260,3
217.88,  40.84000,      1.84577, 96.75823,50.00000,50.00000,6.828801e-09,0.92237,3
224.036,  42.08000,      1.83672, 96.77871,50.00000,50.00000,6.828389e-09,0.92215,3
230.204,  43.32000,      1.83144, 96.77871,50.00000,50.00000,6.824842e-09,0.92191,3
236.36,  44.56000,      1.82158, 96.77871,50.00000,50.00000,6.818492e-09,0.92171,3
242.522,  45.80000,      1.81146, 96.75361,50.00000,50.00000,6.813872e-09,0.92152,3
248.706,  47.04000,      1.80053, 96.72410,50.00000,50.00000,6.825410e-09,0.92131,3
254.865,  48.28000,      1.78739, 96.67651,50.00000,50.00000,6.824786e-09,0.92114,3
261.041,  49.52000,      1.77297, 96.60141,50.00000,50.00000,6.824923e-09,0.92097,3
267.227,  50.76000,      1.76079, 96.51285,50.00000,50.00000,6.812130e-09,0.92080,3
273.414,  52.00000,      1.74256, 96.40382,50.00000,50.00000,6.827906e-09,0.92062,3
279.584,  53.24000,      1.72589, 96.28574,50.00000,50.00000,6.816258e-09,0.92046,3
285.765,  54.48000,      1.70435, 96.13574,50.00000,50.00000,6.839365e-09,0.92030,3
291.935,  55.72000,      1.67719, 95.99940,50.00000,50.00000,6.838455e-09,0.92012,3
298.115,  56.96000,      1.64257, 95.85643,50.00000,50.00000,6.816918e-09,0.91997,3
303.32,  60.00000,     -0.19284, 95.05663,50.00000,47.00000,6.812440e-09,0.91962,4
302.692,  63.10000,     -0.65443, 94.31606,50.00000,47.00000,6.819985e-09,0.91931,4
301.506,  66.20000,     -0.65877, 93.84819,50.00000,47.00000,6.819316e-09,0.91903,4
300.753,  69.30000,     -0.60579, 93.48012,50.00000,47.00000,6.822026e-09,0.91883,4
300.36,  72.40000,     -0.57669, 93.16426,50.00000,47.00000,6.819850e-09,0.91868,4
300.165,  75.50000,     -0.55592, 92.88494,50.00000,47.00000,6.819840e-09,0.91856,4
300.08,  78.60000,     -0.54906, 92.63494,50.00000,47.00000,6.817511e-09,0.91849,4
300.041,  81.70000,     -0.55098, 92.35783,50.00000,47.00000,6.811720e-09,0.91845,4
300.01,  84.80000,     -0.54998, 92.14659,50.00000,47.00000,6.802406e-09,0.91843,4
300.008,  87.90000,     -0.55349, 91.94659,50.00000,47.00000,6.811445e-09,0.91844,4
300.002,  91.00000,     -0.55270, 91.73313,50.00000,47.00000,6.806498e-09,0.91848,4
300.005,  94.10000,     -0.55582, 91.54458,50.00000,47.00000,6.805687e-09,0.91854,4
300.006,  97.20000,     -0.55524, 91.38333,50.00000,47.00000,6.813396e-09,0.91861,4
300.009, 100.3,     -0.55543, 91.21064,50.00000,47.00000,6.810190e-09,0.91870,4
300.013, 103.4,     -0.55758, 91.07430,50.00000,47.00000,6.798325e-09,0.91880,4
300.017, 106.5,     -0.55738, 90.91064,50.00000,47.00000,6.792774e-09,0.91890,4
300.023, 109.6,     -0.55797, 90.76767,50.00000,47.00000,6.794543e-09,0.91901,4
300.035, 112.7,     -0.56265, 90.63133,50.00000,47.00000,6.799637e-09,0.91913,4
300.022, 115.8,     -0.56225, 90.49719,50.00000,47.00000,6.801411e-09,0.91930,4
299.999, 118.9,     -0.56282, 90.36767,50.00000,47.00000,6.796239e-09,0.91939,4
300.002, 122,     -0.56321, 90.25863,50.00000,47.00000,6.798504e-09,0.91919,4
300.006, 125.1,     -0.56399, 90.12008,50.00000,47.00000,6.794479e-09,0.91879,4
300.025, 128.2,     -0.56420, 90.02008,50.00000,47.00000,6.794957e-09,0.91824,4
300.028, 131.3,     -0.56693, 89.90201,50.00000,47.00000,6.797788e-09,0.91747,4
300.011, 134.4,     -0.56867, 89.75221,50.00000,47.00000,6.797468e-09,0.91653,4
300.02, 137.5,     -0.56595, 89.66124,50.00000,47.00000,6.788015e-09,0.91539,4
300.014, 140.6,     -0.56847, 89.53394,50.00000,47.00000,6.809987e-09,0.91408,4
300.006, 143.7,     -0.56789, 89.42952,50.00000,47.00000,6.793613e-09,0.91252,4
300.012, 146.8,     -0.56770, 89.32048,50.00000,47.00000,6.787113e-09,0.91089,4
300.022, 149.9,     -0.56906, 89.18876,50.00000,47.00000,6.802790e-09,0.90911,4
300.016, 153,     -0.56770, 89.09779,50.00000,47.00000,6.800452e-09,0.90712,4
300.019, 156.1,     -0.56751, 88.98193,50.00000,47.00000,6.796231e-09,0.90513,4
300.01, 159.2,     -0.57081, 88.87751,50.00000,47.00000,6.795065e-09,0.90307,4
300.01, 162.3,     -0.56983, 88.75020,50.00000,47.00000,6.814682e-09,0.90093,4
300.018, 165.4,     -0.57042, 88.64116,50.00000,47.00000,6.797103e-09,0.89863,4
300.013, 168.5,     -0.57178, 88.53896,50.00000,47.00000,6.785058e-09,0.89640,4
300.015, 171.6,     -0.57159, 88.43896,50.00000,47.00000,6.778992e-09,0.89415,4
300.016, 174.7,     -0.57354, 88.31627,50.00000,47.00000,6.794498e-09,0.89188,4
300.021, 177.8,     -0.57198, 88.22329,50.00000,47.00000,6.775929e-09,0.88957,4
300.002, 180.9,     -0.57197, 88.09378,50.00000,47.00000,6.795999e-09,0.88709,4
300.026, 184,     -0.57374, 88.00522,50.00000,47.00000,6.784208e-09,0.88473,4
300.012, 187.1,     -0.57120, 87.89598,50.00000,47.00000,6.790195e-09,0.88233,4
300.022, 190.2,     -0.57276, 87.79378,50.00000,47.00000,6.793238e-09,0.87976,4
300.015, 193.3,     -0.57295, 87.66446,50.00000,47.00000,6.788669e-09,0.87730,4
300.023, 196.4,     -0.57296, 87.57570,50.00000,47.00000,6.780949e-09,0.87481,4
300.02, 199.5,     -0.57198, 87.46667,50.00000,47.00000,6.776815e-09,0.87227,4
300.015, 202.6,     -0.57178, 87.36446,50.00000,47.00000,6.784678e-09,0.86956,4
300.015, 205.7,     -0.57139, 87.23273,50.00000,47.00000,6.779626e-09,0.86696,4
300.023, 208.8,     -0.57529, 87.11687,50.00000,47.00000,6.766826e-09,0.86431,4
300.006, 211.9,     -0.57431, 87.05100,50.00000,47.00000,6.778205e-09,0.86163,4
300.014, 215,     -0.57490, 86.91245,50.00000,47.00000,6.769778e-09,0.85876,4
300.001, 218.1,     -0.57372, 86.79880,50.00000,47.00000,6.780402e-09,0.85600,4
300.012, 221.2,     -0.57314, 86.72831,50.00000,47.00000,6.774918e-09,0.85321,4
300.026, 224.3,     -0.57471, 86.61928,50.00000,47.00000,6.775077e-09,0.85021,4
300.012, 227.4,     -0.57237, 86.49659,50.00000,47.00000,6.770881e-09,0.84735,4
300.014, 230.5,     -0.57451, 86.38755,50.00000,47.00000,6.774115e-09,0.84445,4
300.018, 233.6,     -0.57587, 86.27169,50.00000,47.00000,6.767135e-09,0.84134,4
300.026, 236.7,     -0.57607, 86.17871,50.00000,47.00000,6.777310e-09,0.83837,4
300.024, 239.8,     -0.57529, 86.07631,50.00000,47.00000,6.754797e-09,0.83537,4
300.011, 242.9,     -0.57412, 85.94016,50.00000,47.00000,6.781163e-09,0.83233,4
300.015, 246,     -0.57490, 85.85382,50.00000,47.00000,6.778851e-09,0.82927,4
300.019, 249.1,     -0.57626, 85.71747,50.00000,47.00000,6.766488e-09,0.82600,4
300.029, 252.2,     -0.57608, 85.63333,50.00000,47.00000,6.754208e-09,0.82287,4
300.02, 255.3,     -0.57665, 85.52430,50.00000,47.00000,6.755836e-09,0.81972,4
300.024, 258.4,     -0.57627, 85.41305,50.00000,47.00000,6.758929e-09,0.81637,4
300.018, 261.5,     -0.57743, 85.29036,50.00000,47.00000,6.756210e-09,0.81317,4
300.018, 264.6,     -0.57529, 85.20181,50.00000,47.00000,6.757771e-09,0.80995,4
300.023, 267.7,     -0.57451, 85.07229,50.00000,47.00000,6.763905e-09,0.80671,4
300.017, 270.8,     -0.57782, 84.96104,50.00000,47.00000,6.768579e-09,0.80328,4
300.005, 273.9,     -0.57976, 84.85863,50.00000,47.00000,6.748984e-09,0.80000,4
300.015, 277,     -0.57801, 84.77008,50.00000,47.00000,6.744880e-09,0.79671,4
300.023, 280.1,     -0.57802, 84.63835,50.00000,47.00000,6.755010e-09,0.79340,4
300.012, 283.2,     -0.57801, 84.55884,50.00000,47.00000,6.753663e-09,0.78989,4
300.027, 286.3,     -0.57919, 84.42932,50.00000,47.00000,6.762237e-09,0.78529,4
300.01, 289.4,     -0.57723, 84.34076,50.00000,47.00000,6.753235e-09,0.78411,4
300.023, 292.5,     -0.57899, 84.21586,50.00000,47.00000,6.757107e-09,0.78426,4
300.032, 295.6,     -0.57841, 84.09317,50.00000,47.00000,6.750108e-09,0.78493,4
300.022, 298.7,     -0.58094, 83.99779,50.00000,47.00000,6.750524e-09,0.78558,4
300.022, 301.8,     -0.57860, 83.89558,50.00000,47.00000,6.754125e-09,0.78609,4
300.027, 304.9,     -0.57724, 83.80000,50.00000,47.00000,6.744990e-09,0.78647,4
300.027, 308,     -0.57997, 83.66386,50.00000,47.00000,6.759197e-09,0.78674,4
300.015, 311.1,     -0.58074, 83.56165,50.00000,47.00000,6.757528e-09,0.78691,4
300.02, 314.2,     -0.57957, 83.44578,50.00000,47.00000,6.754731e-09,0.78701,4
300.014, 317.3,     -0.58327, 83.34337,50.00000,47.00000,6.741748e-09,0.78709,4
300.014, 320.4,     -0.58327, 83.22088,50.00000,47.00000,6.747387e-09,0.78713,4
300.018, 323.5,     -0.57957, 83.13896,50.00000,47.00000,6.744679e-09,0.78715,4
300.024, 326.6,     -0.58074, 83.03675,50.00000,47.00000,6.725670e-09,0.78717,4
300.024, 329.7,     -0.58210, 82.92771,50.00000,47.00000,6.732873e-09,0.78719,4
300.017, 332.8,     -0.58093, 82.79819,50.00000,47.00000,6.732328e-09,0.78719,4
300.02, 335.9,     -0.57802, 82.68695,50.00000,47.00000,6.745703e-09,0.78719,4
300.021, 339,     -0.58308, 82.57108,50.00000,47.00000,6.738056e-09,0.78719,4
300.013, 342.1,     -0.58132, 82.46205,50.00000,47.00000,6.740052e-09,0.78720,4
300.025, 345.2,     -0.58152, 82.33715,50.00000,47.00000,6.743043e-09,0.78719,4
300.018, 348.3,     -0.58560, 82.22129,50.00000,47.00000,6.756334e-09,0.78719,4
300.014, 351.4,     -0.58249, 82.10542,50.00000,47.00000,6.734928e-09,0.78719,4
300.027, 354.5,     -0.58444, 81.99177,50.00000,47.00000,6.732494e-09,0.78719,4
300.03, 357.6,     -0.58289, 81.89418,50.00000,47.00000,6.723496e-09,0.78720,4
300.018, 360.7,     -0.58502, 81.76466,50.00000,47.00000,6.727404e-09,0.78720,4
300.014, 363.8,     -0.58171, 81.65321,50.00000,47.00000,6.735363e-09,0.78720,4
300.023, 366.9,     -0.58327, 81.57149,50.00000,47.00000,6.736523e-09,0.78719,4
300.006, 370,     -0.58365, 81.46245,50.00000,47.00000,6.731278e-09,0.78719,4
300.014, 373.1,     -0.58327, 81.33293,50.00000,47.00000,6.729964e-09,0.78719,4
300.014, 376.2,     -0.58288, 81.22390,50.00000,47.00000,6.727720e-09,0.78719,4
300.024, 379.3,     -0.58249, 81.11486,50.00000,47.00000,6.737416e-09,0.78718,4
300.02, 382.4,     -0.58580, 80.99900,50.00000,47.00000,6.740961e-09,0.78719,4
300.013, 385.5,     -0.58365, 80.88313,50.00000,47.00000,6.718982e-09,0.78720,4
300.014, 388.6,     -0.58677, 80.78092,50.00000,47.00000,6.712815e-09,0.78720,4
300.007, 391.7,     -0.58579, 80.64458,50.00000,47.00000,6.720497e-09,0.78719,4
300.01, 394.8,     -0.58229, 80.56285,50.00000,47.00000,6.722699e-09,0.78720,4
300.003, 397.9,     -0.58715, 80.46064,50.00000,47.00000,6.717488e-09,0.78719,4
300.019, 401,     -0.58502, 80.34920,50.00000,47.00000,6.702470e-09,0.78719,4
300.018, 404.1,     -0.58346, 80.19940,50.00000,47.00000,6.713370e-09,0.78718,4
300.028, 407.2,     -0.58503, 80.11747,50.00000,47.00000,6.697794e-09,0.78719,4
300.033, 410.3,     -0.58425, 79.98815,50.00000,47.00000,6.707589e-09,0.78718,4
300.019, 413.4,     -0.58911, 79.89257,50.00000,47.00000,6.709217e-09,0.78718,4
300.018, 416.5,     -0.58658, 79.79036,50.00000,47.00000,6.703148e-09,0.78719,4
300.014, 419.6,     -0.58463, 79.65402,50.00000,47.00000,6.691704e-09,0.78718,4
300.023, 422.7,     -0.58580, 79.55863,50.00000,47.00000,6.707459e-09,0.78718,4
300.026, 425.8,     -0.58678, 79.44960,50.00000,47.00000,6.698341e-09,0.78719,4
300.019, 428.9,     -0.58522, 79.36104,50.00000,47.00000,6.704678e-09,0.78719,4
300.002, 432,     -0.58676, 79.24518,50.00000,47.00000,6.705230e-09,0.78720,4
300.02, 435.1,     -0.58308, 79.12249,50.00000,47.00000,6.696033e-09,0.78718,4
300.028, 438.2,     -0.58581, 78.99297,50.00000,47.00000,6.708755e-09,0.78719,4
300.019, 441.3,     -0.58794, 78.89759,50.00000,47.00000,6.711139e-09,0.78719,4
300.01, 444.4,     -0.59085, 78.78173,50.00000,47.00000,6.695310e-09,0.78720,4
300.009, 447.5,     -0.58638, 78.67048,50.00000,47.00000,6.704780e-09,0.78718,4
300.016, 450.6,     -0.58716, 78.54779,50.00000,47.00000,6.696025e-09,0.78719,4
300.018, 453.7,     -0.58619, 78.43193,50.00000,47.00000,6.688372e-09,0.78719,4
300.007, 456.8,     -0.58579, 78.32289,50.00000,47.00000,6.698854e-09,0.78719,4
300.023, 459.9,     -0.58716, 78.22751,50.00000,47.00000,6.700200e-09,0.78719,4
300.002, 463,     -0.58890, 78.11847,50.00000,47.00000,6.698689e-09,0.78720,4
300.018, 466.1,     -0.58989, 78.00944,50.00000,47.00000,6.693529e-09,0.78719,4
300.022, 469.2,     -0.58794, 77.86627,50.00000,47.00000,6.695315e-09,0.78718,4
300.025, 472.3,     -0.58678, 77.77771,50.00000,47.00000,6.691283e-09,0.78718,4
300.025, 475.4,     -0.59145, 77.66185,50.00000,47.00000,6.675386e-09,0.78719,4
300.015, 478.5,     -0.58872, 77.55281,50.00000,47.00000,6.688930e-09,0.78718,4
300.007, 481.6,     -0.59066, 77.40964,50.00000,47.00000,6.687505e-09,0.78719,4
300.021, 484.7,     -0.58872, 77.32791,50.00000,47.00000,6.690477e-09,0.78719,4
300.016, 487.8,     -0.58969, 77.19839,50.00000,47.00000,6.686755e-09,0.78719,4
300.026, 490.9,     -0.58872, 77.09618,50.00000,47.00000,6.680562e-09,0.78720,4
300.015, 494,     -0.58910, 76.99398,50.00000,47.00000,6.685934e-09,0.78720,4
300.016, 497.1,     -0.59027, 76.87570,50.00000,47.00000,6.686858e-09,0.78717,4
300.01, 500.2,     -0.59222, 76.77349,50.00000,47.00000,6.693345e-09,0.78718,4
300.024, 503.3,     -0.59125, 76.68494,50.00000,47.00000,6.670364e-09,0.78719,4
300.02, 506.4,     -0.59144, 76.55542,50.00000,47.00000,6.667378e-09,0.78719,4
300.014, 509.5,     -0.59027, 76.41225,50.00000,47.00000,6.666160e-09,0.78719,4
300.007, 512.6,     -0.59202, 76.32369,50.00000,47.00000,6.677138e-09,0.78719,4
300.018, 515.7,     -0.59261, 76.22831,50.00000,47.00000,6.659002e-09,0.78718,4
300.009, 518.8,     -0.59105, 76.09197,50.00000,47.00000,6.677908e-09,0.78719,4
300.022, 521.9,     -0.59028, 76.01707,50.00000,47.00000,6.669134e-09,0.78719,4
300.007, 525,     -0.59377, 75.88072,50.00000,47.00000,6.670366e-09,0.78719,4
300.013, 528.1,     -0.59339, 75.76486,50.00000,47.00000,6.680422e-09,0.78721,4
300.009, 531.2,     -0.59436, 75.62631,50.00000,47.00000,6.653858e-09,0.78721,4
300.009, 534.3,     -0.59241, 75.51727,50.00000,47.00000,6.667175e-09,0.78718,4
300.022, 537.4,     -0.59534, 75.40582,50.00000,47.00000,6.666914e-09,0.78718,4
300.01, 540.5,     -0.59611, 75.29679,50.00000,47.00000,6.661911e-09,0.78720,4
300.018, 543.6,     -0.59339, 75.20141,50.00000,47.00000,6.668683e-09,0.78719,4
300.022, 546.7,     -0.59534, 75.09478,50.00000,47.00000,6.672428e-09,0.78720,4
300.021, 549.8,     -0.59650, 74.98554,50.00000,47.00000,6.659649e-09,0.78719,4
300.009, 552.9,     -0.59727, 74.87430,50.00000,47.00000,6.645529e-09,0.78719,4
300.011, 556,     -0.59572, 74.75402,50.00000,47.00000,6.657605e-09,0.78719,4
300.007, 559.1,     -0.59786, 74.64478,50.00000,47.00000,6.660194e-09,0.78719,4
300.026, 562.2,     -0.59456, 74.51546,50.00000,47.00000,6.654651e-09,0.78719,4
300.005, 565.3,     -0.59610, 74.40643,50.00000,47.00000,6.660227e-09,0.78718,4
300.018, 568.4,     -0.59806, 74.31767,50.00000,47.00000,6.654300e-09,0.78720,4
300.01, 571.5,     -0.59844, 74.17912,50.00000,47.00000,6.653646e-09,0.78719,4
300.022, 574.6,     -0.59748, 74.07229,50.00000,47.00000,6.654771e-09,0.78719,4
300.02, 577.7,     -0.59806, 73.95884,50.00000,47.00000,6.643126e-09,0.78719,4
300.023, 580.8,     -0.59728, 73.82249,50.00000,47.00000,6.657168e-09,0.78718,4
300.024, 583.9,     -0.59573, 73.73153,50.00000,47.00000,6.654313e-09,0.78720,4
300.015, 587,     -0.60117, 73.60904,50.00000,47.00000,6.664203e-09,0.78718,4
300.014, 590.1,     -0.59806, 73.52028,50.00000,47.00000,6.633329e-09,0.78719,4
300.012, 593.2,     -0.59864, 73.39076,50.00000,47.00000,6.643558e-09,0.78719,4
300.014, 596.3,     -0.59767, 73.29779,50.00000,47.00000,6.642125e-09,0.78719,4
300.013, 599.4,     -0.59747, 73.16365,50.00000,47.00000,6.630637e-09,0.78719,4
300.014, 602.5,     -0.60020, 73.03876,50.00000,47.00000,6.635240e-09,0.78719,4
300.006, 605.6,     -0.59825, 72.94096,50.00000,47.00000,6.639773e-09,0.78719,4
300.019, 608.7,     -0.60059, 72.83876,50.00000,47.00000,6.632495e-09,0.78719,4
300.016, 611.8,     -0.59825, 72.71386,50.00000,47.00000,6.635596e-09,0.78719,4
300.005, 614.9,     -0.60000, 72.60020,50.00000,47.00000,6.643801e-09,0.78718,4
300.019, 618,     -0.60098, 72.48675,50.00000,47.00000,6.638516e-09,0.78720,4
300.01, 621.1,     -0.59747, 72.37088,50.00000,47.00000,6.641755e-09,0.78719,4
300.015, 624.2,     -0.59708, 72.27992,50.00000,47.00000,6.620588e-09,0.78719,4
300.021, 627.3,     -0.59903, 72.14598,50.00000,47.00000,6.632988e-09,0.78720,4
300.011, 630.4,     -0.59981, 72.05060,50.00000,47.00000,6.623460e-09,0.78720,4
300.023, 633.5,     -0.59845, 71.92791,50.00000,47.00000,6.637772e-09,0.78719,4
300.026, 636.6,     -0.59962, 71.78695,50.00000,47.00000,6.633482e-09,0.78719,4
300.024, 639.7,     -0.60215, 71.68936,50.00000,47.00000,6.622274e-09,0.78720,4
300.015, 642.8,     -0.60098, 71.59618,50.00000,47.00000,6.617930e-09,0.78721,4
300.012, 645.9,     -0.59922, 71.48494,50.00000,47.00000,6.633011e-09,0.78720,4
300.018, 649,     -0.60039, 71.38253,50.00000,47.00000,6.624323e-09,0.78719,4
300.01, 652.1,     -0.60234, 71.24639,50.00000,47.00000,6.624245e-09,0.78720,4
300.005, 655.2,     -0.59922, 71.13735,50.00000,47.00000,6.622845e-09,0.78719,4
300.02, 658.3,     -0.60137, 71.01466,50.00000,47.00000,6.642365e-09,0.78720,4
300.016, 661.4,     -0.60020, 70.93273,50.00000,47.00000,6.629165e-09,0.78720,4
300.023, 664.5,     -0.60234, 70.82369,50.00000,47.00000,6.619935e-09,0.78719,4
300.014, 667.6,     -0.60137, 70.68976,50.00000,47.00000,6.627385e-09,0.78719,4
300.009, 670.7,     -0.60253, 70.58072,50.00000,47.00000,6.637278e-09,0.78720,4
300.024, 673.8,     -0.60293, 70.46486,50.00000,47.00000,6.634985e-09,0.78718,4
300.001, 676.9,     -0.60233, 70.36486,50.00000,47.00000,6.625781e-09,0.78720,4
300.022, 680,     -0.60234, 70.23755,50.00000,47.00000,6.627411e-09,0.78719,4
300.02, 683.1,     -0.59962, 70.12851,50.00000,47.00000,6.626877e-09,0.78718,4
300.014, 686.2,     -0.60137, 69.99237,50.00000,47.00000,6.613964e-09,0.78719,4
300.018, 689.3,     -0.60117, 69.89016,50.00000,47.00000,6.630750e-09,0.78718,4
300.022, 692.4,     -0.60195, 69.77651,50.00000,47.00000,6.624604e-09,0.78719,4
300.019, 695.5,     -0.60215, 69.66285,50.00000,47.00000,6.613747e-09,0.78719,4
300.015, 698.6,     -0.60195, 69.61968,50.00000,47.00000,6.598409e-09,0.78720,4
300.029, 701.7,     -0.60429, 69.38353,50.00000,47.00000,6.597163e-09,0.78720,4
300.017, 704.8,     -0.60215, 69.31084,50.00000,47.00000,6.607400e-09,0.78718,4
300.014, 707.9,     -0.60565, 69.24036,50.00000,47.00000,6.618777e-09,0.78718,4
300.019, 711,     -0.60137, 69.13594,50.00000,47.00000,6.620041e-09,0.78719,4
300.017, 714.1,     -0.60156, 69.02671,50.00000,47.00000,6.624623e-09,0.78719,4
300.014, 717.2,     -0.60370, 68.88373,50.00000,47.00000,6.619504e-09,0.78719,4
300.027, 720.3,     -0.60429, 68.81104,50.00000,47.00000,6.644926e-09,0.78719,4
300.009, 723.4,     -0.60486, 68.67932,50.00000,47.00000,6.637246e-09,0.78719,4
300.012, 726.5,     -0.60487, 68.57008,50.00000,47.00000,6.622082e-09,0.78720,4
300.014, 729.6,     -0.60390, 68.45201,50.00000,46.00000,6.634969e-09,0.78718,4
300.012, 732.7,     -0.60389, 68.33855,50.00000,46.00000,6.620543e-09,0.78718,4
300.036, 735.8,     -0.60255, 68.22932,50.00000,46.00000,6.623999e-09,0.78719,4
300.031, 738.9,     -0.60391, 68.07269,50.00000,46.00000,6.629576e-09,0.78719,4
300.007, 742,     -0.60311, 68.01586,50.00000,46.00000,6.635513e-09,0.78719,4
300.017, 745.1,     -0.60506, 67.87048,50.00000,46.00000,6.628907e-09,0.78719,4
300.013, 748.2,     -0.60156, 67.78193,50.00000,46.00000,6.622628e-09,0.78719,4
300.017, 751.3,     -0.60215, 67.64558,50.00000,46.00000,6.622335e-09,0.78719,4
300.005, 754.4,     -0.60428, 67.57972,50.00000,46.00000,6.620454e-09,0.78719,4
300.02, 757.5,     -0.60507, 67.43193,50.00000,46.00000,6.626229e-09,0.78719,4
300.01, 760.6,     -0.60350, 67.33434,50.00000,46.00000,6.622560e-09,0.78718,4
300.026, 763.7,     -0.60410, 67.21627,50.00000,46.00000,6.630174e-09,0.78719,4
300.013, 766.8,     -0.60234, 67.09578,50.00000,46.00000,6.625228e-09,0.78720,4
300.014, 769.9,     -0.60409, 66.96185,50.00000,46.00000,6.629643e-09,0.78718,4
300.022, 773,     -0.60079, 66.85502,50.00000,46.00000,6.628608e-09,0.78719,4
300.022, 776.1,     -0.60098, 66.73916,50.00000,46.00000,6.624272e-09,0.78719,4
300.017, 779.2,     -0.60292, 66.62108,50.00000,46.00000,6.613893e-09,0.78719,4
300.007, 782.3,     -0.60194, 66.50060,50.00000,46.00000,6.627656e-09,0.78719,4
300.012, 785.4,     -0.60331, 66.40522,50.00000,46.00000,6.625779e-09,0.78718,4
300.019, 788.5,     -0.60254, 66.25522,50.00000,46.00000,6.624536e-09,0.78718,4
300.01, 791.6,     -0.60175, 66.17349,50.00000,46.00000,6.616150e-09,0.78718,4
300.015, 794.7,     -0.60039, 66.05080,50.00000,46.00000,6.624516e-09,0.78720,4
300.015, 797.8,     -0.60175, 65.93032,50.00000,46.00000,6.614809e-09,0.78719,4
300.03, 800.9,     -0.60079, 65.85542,50.00000,46.00000,6.593154e-09,0.78720,4
300.031, 804,     -0.60352, 65.69859,50.00000,46.00000,6.587834e-09,0.78719,4
300.033, 807.1,     -0.60605, 65.55562,50.00000,46.00000,6.579255e-09,0.78718,4
300.025, 810.2,     -0.60507, 65.44659,50.00000,46.00000,6.582384e-09,0.78718,4
300.015, 813.3,     -0.60467, 65.32390,50.00000,46.00000,6.585442e-09,0.78720,4
300.016, 816.4,     -0.60604, 65.21928,50.00000,46.00000,6.579606e-09,0.78719,4
300.016, 819.5,     -0.60643, 65.08976,50.00000,47.00000,6.577688e-09,0.78719,4
300.009, 822.6,     -0.60506, 65.00803,50.00000,47.00000,6.588905e-09,0.78719,4
300.007, 825.7,     -0.60389, 64.90582,50.00000,47.00000,6.584912e-09,0.78719,4
300.01, 828.8,     -0.60525, 64.81044,50.00000,47.00000,6.578226e-09,0.78719,4
300.025, 831.9,     -0.60527, 64.70141,50.00000,47.00000,6.590001e-09,0.78719,4
300.016, 835,     -0.60623, 64.57871,50.00000,47.00000,6.583738e-09,0.78719,4
300.004, 838.1,     -0.60233, 64.49920,50.00000,46.00000,6.582032e-09,0.78720,4
300.015, 841.2,     -0.60331, 64.37651,50.00000,46.00000,6.596923e-09,0.78719,4
300.009, 844.3,     -0.60506, 64.29699,50.00000,46.00000,6.577283e-09,0.78719,4
300.019, 847.4,     -0.60487, 64.18795,50.00000,46.00000,6.601053e-09,0.78719,4
300.009, 850.5,     -0.60350, 64.08574,50.00000,46.00000,6.584900e-09,0.78719,4
300.004, 853.6,     -0.60350, 63.95843,50.00000,46.00000,6.588126e-09,0.78719,4
300.005, 856.7,     -0.60545, 63.84940,50.00000,46.00000,6.595656e-09,0.78720,4
300.013, 859.8,     -0.60059, 63.77450,50.00000,46.00000,6.596575e-09,0.78719,4
300.032, 862.9,     -0.60255, 63.63133,50.00000,46.00000,6.596534e-09,0.78719,4
300.011, 866,     -0.60779, 63.54277,50.00000,46.00000,6.590963e-09,0.78720,4
300.01, 869.1,     -0.60895, 63.41325,50.00000,46.00000,6.587590e-09,0.78718,4
300.015, 872.2,     -0.60565, 63.31787,50.00000,46.00000,6.588648e-09,0.78719,4
300.013, 875.3,     -0.60642, 63.18153,50.00000,46.00000,6.614592e-09,0.78719,4
300.012, 878.4,     -0.60506, 63.07932,50.00000,46.00000,6.612113e-09,0.78719,4
300.008, 881.5,     -0.60584, 62.94297,50.00000,46.00000,6.601597e-09,0.78720,4
300.018, 884.6,     -0.60701, 62.88173,50.00000,46.00000,6.613176e-09,0.78718,4
300.032, 887.7,     -0.60488, 62.71586,50.00000,46.00000,6.617103e-09,0.78719,4
300.028, 890.8,     -0.60897, 62.62048,50.00000,46.00000,6.612294e-09,0.78719,4
300.007, 893.9,     -0.60681, 62.52510,50.00000,46.00000,6.624731e-09,0.78720,4
300.023, 897,     -0.60565, 62.42269,50.00000,46.00000,6.611224e-09,0.78720,4
300.02, 900.1,     -0.60935, 62.29779,50.00000,46.00000,6.626227e-09,0.78720,4
300.02, 903.2,     -0.60507, 62.18193,50.00000,46.00000,6.621613e-09,0.78718,4
300.019, 906.3,     -0.60546, 62.05241,50.00000,46.00000,6.616935e-09,0.78719,4
300.009, 909.4,     -0.60701, 61.94578,50.00000,46.00000,6.620786e-09,0.78718,4
300.015, 912.5,     -0.60623, 61.85703,50.00000,46.00000,6.635195e-09,0.78719,4
300.01, 915.6,     -0.60448, 61.74578,50.00000,46.00000,6.612064e-09,0.78719,4
300.044, 918.7,     -0.60625, 61.63213,50.00000,46.00000,6.617038e-09,0.78719,4
300.015, 921.8,     -0.60896, 61.51406,50.00000,46.00000,6.633483e-09,0.78720,4
300.014, 924.9,     -0.60526, 61.40502,50.00000,46.00000,6.618841e-09,0.78719,4
300.009, 928,     -0.60662, 61.28695,50.00000,46.00000,6.623117e-09,0.78719,4
300.02, 931.1,     -0.60662, 61.18233,50.00000,46.00000,6.621118e-09,0.78719,4
300.02, 934.2,     -0.60507, 60.98936,50.00000,46.00000,6.635342e-09,0.78719,4
300.025, 937.3,     -0.60410, 60.95301,50.00000,46.00000,6.652810e-09,0.78718,4
300.044, 940.4,     -0.60353, 60.86426,50.00000,46.00000,6.646751e-09,0.78720,4
300.02, 943.5,     -0.60701, 60.74839,50.00000,46.00000,6.654098e-09,0.78720,4
300.015, 946.6,     -0.60623, 60.63936,50.00000,46.00000,6.653181e-09,0.78719,4
300.004, 949.7,     -0.60447, 60.52349,50.00000,46.00000,6.646633e-09,0.78720,4
300.005, 952.8,     -0.60564, 60.38956,50.00000,46.00000,6.649774e-09,0.78720,4
300.01, 955.9,     -0.60525, 60.25100,50.00000,46.00000,6.657867e-09,0.78719,4
299.997, 959,     -0.60427, 60.17590,50.00000,46.00000,6.660350e-09,0.78720,4
300.03, 962.1,     -0.60118, 60.03052,50.00000,46.00000,6.643816e-09,0.78720,4
300.013, 965.2,     -0.60253, 59.89880,50.00000,46.00000,6.653009e-09,0.78719,4
300.004, 968.3,     -0.60350, 59.80341,50.00000,46.00000,6.658310e-09,0.78719,4
300.022, 971.4,     -0.60137, 59.68755,50.00000,46.00000,6.657833e-09,0.78720,4
300.014, 974.5,     -0.60156, 59.53755,50.00000,46.00000,6.660436e-09,0.78718,4
300.02, 977.6,     -0.60468, 59.40361,50.00000,46.00000,6.660204e-09,0.78719,4
300.012, 980.7,     -0.60312, 59.28092,50.00000,46.00000,6.653125e-09,0.78720,4
300.021, 983.8,     -0.60507, 59.16285,50.00000,46.00000,6.665411e-09,0.78719,4
300.016, 986.9,     -0.60273, 59.07410,50.00000,46.00000,6.645694e-09,0.78719,4
300.012, 990,     -0.60331, 58.91747,50.00000,46.00000,6.662729e-09,0.78718,4
300.016, 993.1,     -0.60390, 58.79699,50.00000,46.00000,6.653396e-09,0.78719,4
300.003, 996.2,     -0.60505, 58.67430,50.00000,46.00000,6.654180e-09,0.78720,4
300.01, 999.3,     -0.60058, 58.57892,50.00000,46.00000,6.642854e-09,0.78720,4
300.015,1002.4,     -0.60078, 58.46305,50.00000,46.00000,6.654491e-09,0.78718,4
300.011,1005.5,     -0.60234, 58.33133,50.00000,46.00000,6.655955e-09,0.78719,4
300.015,1008.6,     -0.60292, 58.21325,50.00000,46.00000,6.655373e-09,0.78718,4
300.014,1011.7,     -0.60448, 58.07229,50.00000,46.00000,6.673181e-09,0.78719,4
300.014,1014.8,     -0.60137, 57.97691,50.00000,46.00000,6.648750e-09,0.78719,4
300.01,1017.9,     -0.60214, 57.83373,50.00000,46.00000,6.654311e-09,0.78720,4
300.02,1021,     -0.60040, 57.72711,50.00000,46.00000,6.665566e-09,0.78718,4
300.018,1024.1,     -0.60078, 57.63153,50.00000,46.00000,6.653936e-09,0.78719,4
300.025,1027.2,     -0.60059, 57.49076,50.00000,46.00000,6.646500e-09,0.78719,4
300.026,1030.3,     -0.60079, 57.38635,50.00000,46.00000,6.654868e-09,0.78720,4
299.999,1033.4,     -0.60447, 57.27490,50.00000,46.00000,6.662234e-09,0.78719,4
300.019,1036.5,     -0.59806, 57.17269,50.00000,46.00000,6.646645e-09,0.78720,4
300.006,1039.6,     -0.60331, 57.05000,50.00000,46.00000,6.645763e-09,0.78718,4
300.012,1042.7,     -0.60409, 56.91365,50.00000,46.00000,6.644187e-09,0.78719,4
300.016,1045.8,     -0.60409, 56.81827,50.00000,46.00000,6.639103e-09,0.78719,4
300.025,1048.9,     -0.60351, 56.69116,50.00000,46.00000,6.633432e-09,0.78719,4
300.018,1052,     -0.60390, 56.58213,50.00000,46.00000,6.642201e-09,0.78719,4
300.022,1055.1,     -0.60429, 56.48434,50.00000,46.00000,6.641129e-09,0.78718,4
300.023,1058.2,     -0.60020, 56.34799,50.00000,46.00000,6.642053e-09,0.78719,4
300.021,1061.3,     -0.60429, 56.23454,50.00000,46.00000,6.629375e-09,0.78719,4
300.016,1064.4,     -0.60214, 56.16627,50.00000,46.00000,6.637709e-09,0.78719,4
300.008,1067.5,     -0.60136, 56.03233,50.00000,46.00000,6.640485e-09,0.78719,4
300.019,1070.6,     -0.60604, 55.93233,50.00000,46.00000,6.637996e-09,0.78719,4
300.016,1073.7,     -0.60526, 55.79157,50.00000,46.00000,6.637410e-09,0.78719,4
300.019,1076.8,     -0.60195, 55.70743,50.00000,47.00000,6.629066e-09,0.78719,4
300.017,1079.9,     -0.60234, 55.56888,50.00000,47.00000,6.630975e-09,0.78719,4
300.012,1083,     -0.60506, 55.49157,50.00000,47.00000,6.642173e-09,0.78718,4
300.023,1086.1,     -0.60371, 55.35080,50.00000,47.00000,6.631966e-09,0.78719,4
300.022,1089.2,     -0.60098, 55.24398,50.00000,47.00000,6.627423e-09,0.78719,4
300.018,1092.3,     -0.60195, 55.11004,50.00000,47.00000,6.643741e-09,0.78720,4
300.017,1095.4,     -0.60195, 55.04418,50.00000,47.00000,6.644803e-09,0.78718,4
300.015,1098.5,     -0.60117, 54.92369,50.00000,47.00000,6.627983e-09,0.78719,4
300.007,1101.6,     -0.60117, 54.80562,50.00000,47.00000,6.638449e-09,0.78720,4
300.013,1104.7,     -0.59845, 54.70100,50.00000,47.00000,6.632172e-09,0.78719,4
300.026,1107.8,     -0.60604, 54.57390,50.00000,47.00000,6.647246e-09,0.78719,4
300.017,1110.9,     -0.60292, 54.46486,50.00000,47.00000,6.648875e-09,0.78719,4
300.014,1114,     -0.60370, 54.32169,50.00000,47.00000,6.652586e-09,0.78718,4
300.02,1117.1,     -0.60487, 54.21265,50.00000,47.00000,6.657318e-09,0.78719,4
300.01,1120.2,     -0.60272, 54.14438,50.00000,47.00000,6.654752e-09,0.78719,4
300.017,1123.3,     -0.60292, 54.03313,50.00000,47.00000,6.642797e-09,0.78719,4
300.015,1126.4,     -0.60604, 53.93775,50.00000,47.00000,6.636316e-09,0.78719,4
300.02,1129.5,     -0.60312, 53.80141,50.00000,47.00000,6.661119e-09,0.78719,4
300.007,1132.6,     -0.60564, 53.71285,50.00000,47.00000,6.653007e-09,0.78720,4
300.019,1135.7,     -0.60604, 53.60161,50.00000,47.00000,6.656372e-09,0.78720,4
300.019,1138.8,     -0.60721, 53.49237,50.00000,47.00000,6.652594e-09,0.78718,4
300.024,1141.9,     -0.60351, 53.40382,50.00000,47.00000,6.649983e-09,0.78719,4
300.018,1145,     -0.60448, 53.26526,50.00000,47.00000,6.653370e-09,0.78720,4
300.004,1148.1,     -0.60467, 53.17671,50.00000,47.00000,6.652884e-09,0.78718,4
300.011,1151.2,     -0.60487, 53.06767,50.00000,47.00000,6.637355e-09,0.78719,4
300.021,1154.3,     -0.60604, 52.94498,50.00000,47.00000,6.647966e-09,0.78720,4
300.014,1157.4,     -0.60798, 52.85643,50.00000,47.00000,6.641328e-09,0.78720,4
300.026,1160.5,     -0.60702, 52.72229,50.00000,47.00000,6.640342e-09,0.78719,4
300.029,1163.6,     -0.60663, 52.65201,50.00000,47.00000,6.650378e-09,0.78720,4
300.014,1166.7,     -0.60934, 52.51104,50.00000,47.00000,6.657149e-09,0.78720,4
300.007,1169.8,     -0.60720, 52.40884,50.00000,47.00000,6.646924e-09,0.78720,4
300.014,1172.9,     -0.60565, 52.32028,50.00000,47.00000,6.656783e-09,0.78719,4
300.014,1176,     -0.60681, 52.22490,50.00000,47.00000,6.636684e-09,0.78719,4
300.004,1179.1,     -0.60661, 52.09297,50.00000,47.00000,6.638146e-09,0.78717,4
300.016,1182.2,     -0.60682, 51.99317,50.00000,47.00000,6.644048e-09,0.78719,4
300.012,1185.3,     -0.60642, 51.91124,50.00000,47.00000,6.656583e-09,0.78719,4
300.007,1188.4,     -0.60603, 51.79538,50.00000,47.00000,6.661677e-09,0.78719,4
300.016,1191.5,     -0.60935, 51.66365,50.00000,47.00000,6.649402e-09,0.78720,4
300.02,1194.6,     -0.60838, 51.57972,50.00000,47.00000,6.644739e-09,0.78718,4
300.023,1197.7,     -0.60896, 51.47068,50.00000,47.00000,6.637380e-09,0.78719,4
300.024,1200.8,     -0.60935, 51.36827,50.00000,47.00000,6.653671e-09,0.78719,4
300.018,1203.9,     -0.60740, 51.25703,50.00000,47.00000,6.643506e-09,0.78718,4
300.02,1207,     -0.61032, 51.13213,50.00000,47.00000,6.643643e-09,0.78719,4
300.016,1210.1,     -0.60584, 51.04116,50.00000,47.00000,6.649302e-09,0.78720,4
300.022,1213.2,     -0.60507, 50.94819,50.00000,47.00000,6.632161e-09,0.78719,4
300.018,1216.3,     -0.60584, 50.84137,50.00000,47.00000,6.633533e-09,0.78718,4
300.014,1219.4,     -0.60487, 50.72992,50.00000,48.00000,6.633075e-09,0.78719,4
300.013,1222.5,     -0.60720, 50.64819,50.00000,48.00000,6.639650e-09,0.78718,4
300.013,1225.6,     -0.60565, 50.52550,50.00000,48.00000,6.643935e-09,0.78718,4
300,1228.7,     -0.60661, 50.41205,50.00000,48.00000,6.633436e-09,0.78720,4
300.017,1231.8,     -0.60740, 50.31888,50.00000,48.00000,6.620541e-09,0.78719,4
300.014,1234.9,     -0.60740, 50.21426,50.00000,48.00000,6.629909e-09,0.78720,4
300.019,1238,     -0.60565, 50.12570,50.00000,48.00000,6.638925e-09,0.78720,4
300.016,1241.1,     -0.60759, 50.01446,50.00000,48.00000,6.616249e-09,0.78719,4
300.015,1244.2,     -0.60798, 49.91908,50.00000,48.00000,6.649212e-09,0.78719,4
300.021,1247.3,     -0.60604, 49.78273,50.00000,48.00000,6.628970e-09,0.78718,4
300.014,1250.4,     -0.60662, 49.71004,50.00000,48.00000,6.626836e-09,0.78719,4
300.013,1253.5,     -0.60837, 49.58956,50.00000,48.00000,6.620169e-09,0.78718,4
300.03,1256.6,     -0.60799, 49.50100,50.00000,48.00000,6.629039e-09,0.78718,4
300.031,1257.13,     -0.60546, 49.49418,50.00000,50.00000,6.620184e-09,0.78719,5
300.211,1257.29,     -0.49950, 49.49418,50.00000,50.00000,6.622005e-09,0.78718,5
300.757,1257.44,     -0.18700, 49.72590,50.00000,50.00000,6.632315e-09,0.78719,5
301.748,1257.6,      0.36975, 50.00763,50.00000,50.00000,6.622078e-09,0.78719,5
303.257,1257.76,      1.14134, 50.36426,50.00000,50.00000,6.622078e-09,0.78719,5
305.25,1257.91,      2.05763, 50.68454,50.00000,50.00000,6.630265e-09,0.78720,5
307.637,1258.07,      3.01841, 50.96165,50.00000,50.00000,6.628008e-09,0.78719,5
310.291,1258.22,      3.92634, 51.16847,50.00000,50.00000,6.634147e-09,0.78718,5
313.096,1258.38,      4.70463, 51.35482,50.00000,50.00000,6.622807e-09,0.78718,5
315.942,1258.53,      5.30426, 51.46827,50.00000,50.00000,6.626081e-09,0.78720,5
318.752,1258.68,      5.71655, 51.53655,50.00000,50.00000,6.627218e-09,0.78719,5
321.486,1258.84,      5.95678, 51.57731,50.00000,50.00000,6.625716e-09,0.78718,5
324.143,1258.99,      6.06641, 51.57731,50.00000,50.00000,6.630003e-09,0.78719,5
326.735,1259.15,      6.09306, 51.60462,50.00000,50.00000,6.615271e-09,0.78719,5
329.311,1259.31,      6.08932, 51.60462,50.00000,50.00000,6.631026e-09,0.78719,5
331.91,1259.46,      6.09971, 51.68635,50.00000,50.00000,6.631026e-09,0.78719,5
334.554,1259.62,      6.15338, 51.70683,50.00000,50.00000,6.628663e-09,0.78719,5
337.305,1259.77,      6.26674, 51.74096,50.00000,50.00000,6.624015e-09,0.78719,5
340.185,1259.92,      6.44002, 51.83173,50.00000,50.00000,6.617710e-09,0.78720,5
343.186,1260.08,      6.66140, 51.87952,50.00000,50.00000,6.632201e-09,0.78719,5
346.301,1260.23,      6.91516, 51.93414,50.00000,50.00000,6.628908e-09,0.78719,5
349.52,1260.39,      7.17752, 51.98855,50.00000,50.00000,6.624845e-09,0.78720,5
352.806,1260.55,      7.42878, 52.04317,50.00000,50.00000,6.635380e-09,0.78720,5
356.135,1260.7,      7.65212, 52.02269,50.00000,50.00000,6.623259e-09,0.78720,5
359.494,1260.86,      7.83660, 52.04980,50.00000,50.00000,6.619684e-09,0.78718,5
362.858,1261.01,      7.97598, 51.99538,50.00000,50.00000,6.618436e-09,0.78717,5
366.228,1261.16,      8.08023, 51.94076,50.00000,50.00000,6.618436e-09,0.78717,5
369.593,1261.32,      8.15175, 51.84779,50.00000,50.00000,6.624369e-09,0.78718,5
372.944,1261.47,      8.20448, 51.72048,50.00000,50.00000,6.620276e-09,0.78718,5
376.299,1261.63,      8.24502, 51.53655,50.00000,50.00000,6.615524e-09,0.78718,5
379.646,1261.79,      8.28490, 51.27751,50.00000,50.00000,6.619141e-09,0.78719,5
383.012,1261.94,      8.33088, 51.01847,50.00000,50.00000,6.629246e-09,0.78718,5
386.391,1262.1,      8.38972, 50.61185,50.00000,50.00000,6.628630e-09,0.78719,5
389.766,1262.25,      8.45680, 50.11667,50.00000,50.00000,6.609255e-09,0.78717,5
393.176,1262.4,      8.53201, 49.51908,50.00000,50.00000,6.619993e-09,0.78718,5
396.581,1262.56,      8.61455, 48.77169,50.00000,50.00000,6.621870e-09,0.78718,5
399.986,1262.71,      8.69596, 47.97209,50.00000,50.00000,6.634604e-09,0.78718,5
403.407,1262.87,      8.77438, 46.98614,50.00000,50.00000,6.624648e-09,0.78718,5
406.81,1263.03,      8.84714, 45.78213,50.00000,50.00000,6.624648e-09,0.78718,5
410.221,1263.18,      8.92252, 44.38956,50.00000,50.00000,6.625934e-09,0.78719,5
413.613,1263.34,      8.96982, 42.72209,50.00000,50.00000,6.615339e-09,0.78719,5
416.989,1263.49,      9.20502, 40.85924,50.00000,50.00000,6.633888e-09,0.78718,5
420.359,1263.64,      9.35140, 38.58976,50.00000,50.00000,6.632005e-09,0.78719,5
423.739,1263.8,      9.49266, 35.99297,50.00000,50.00000,6.618643e-09,0.78718,5
427.085,1263.95,      9.68846, 33.10341,50.00000,50.00000,6.629469e-09,0.78719,5
430.436,1264.11,      9.90387, 29.96386,50.00000,50.00000,6.634493e-09,0.78719,5
433.77,1264.27,     10.08442, 26.42671,50.00000,50.00000,6.625633e-09,0.78719,5
437.101,1264.42,     10.20541, 22.88735,50.00000,50.00000,6.620292e-09,0.78719,5
440.421,1264.58,     10.27337, 19.16606,50.00000,50.00000,6.614040e-09,0.78719,5
443.747,1264.73,     10.25943, 15.66305,50.00000,50.00000,6.622229e-09,0.78719,5
447.049,1264.88,     10.14604, 12.29859,50.00000,50.00000,6.622229e-09,0.78719,5
450.356,1265.04,      9.92637,  9.36124,50.00000,50.00000,6.621284e-09,0.78719,5
453.644,1265.19,      9.62676,  6.90542,50.00000,50.00000,6.621690e-09,0.78718,5
456.945,1265.35,      9.30340,  4.93574,50.00000,50.00000,6.620211e-09,0.78718,5
460.234,1265.51,      8.96288,  3.37731,50.00000,50.00000,6.604758e-09,0.78719,5
463.523,1265.66,      8.63671,  2.31867,50.00000,50.00000,6.633738e-09,0.78718,5
466.793,1265.82,      8.33746,  1.53956,50.00000,50.00000,6.622718e-09,0.78718,5
470.07,1265.97,      8.07675,  1.00100,50.00000,50.00000,6.625988e-09,0.78718,5
473.347,1266.12,      7.85893,  0.62851,50.00000,50.00000,6.631473e-09,0.78718,5
476.58,1266.28,      7.67334,  0.43534,50.00000,50.00000,6.629268e-09,0.78718,5
479.828,1266.43,      7.51218,  0.31948,50.00000,50.00000,6.624048e-09,0.78718,5
483.062,1266.59,      7.37572,  0.22871,50.00000,50.00000,6.624094e-09,0.78719,5
486.294,1266.74,      7.25523,  0.22871,50.00000,50.00000,6.628751e-09,0.78718,5
489.51,1266.9,      7.15330,  0.22871,50.00000,50.00000,6.628751e-09,0.78718,5
492.733,1267.06,      7.06311,  0.22871,50.00000,50.00000,6.631286e-09,0.78719,5
495.927,1267.21,      6.98350,  0.28313,50.00000,50.00000,6.634455e-09,0.78719,5
499.139,1267.37,      6.90772,  0.29679,50.00000,50.00000,6.637989e-09,0.78719,5
502.331,1267.52,      6.83826,  0.31044,50.00000,50.00000,6.628713e-09,0.78719,5
505.515,1267.67,      6.77202,  0.34458,50.00000,50.00000,6.610700e-09,0.78719,5
508.704,1267.83,      6.71068,  0.38534,50.00000,50.00000,6.617856e-09,0.78719,5
511.892,1267.98,      6.64375,  0.38534,50.00000,50.00000,6.627786e-09,0.78720,5
515.082,1268.14,      6.58148,  0.44900,50.00000,50.00000,6.641255e-09,0.78720,5
518.253,1268.3,      6.51782,  0.44900,50.00000,50.00000,6.612055e-09,0.78720,5
521.414,1268.45,      6.45232,  0.50361,50.00000,50.00000,6.627242e-09,0.78719,5
524.563,1268.61,      6.38808,  0.53072,50.00000,50.00000,6.627242e-09,0.78719,5
527.727,1268.76,      6.32350,  0.55803,50.00000,50.00000,6.632967e-09,0.78719,5
530.891,1268.91,      6.26136,  0.58534,50.00000,50.00000,6.627738e-09,0.78719,5
534.037,1269.07,      6.20129,  0.61265,50.00000,50.00000,6.631307e-09,0.78719,5
537.199,1269.22,      6.14040,  0.66707,50.00000,50.00000,6.632594e-09,0.78717,5
540.346,1269.38,      6.08484,  0.68072,50.00000,50.00000,6.624282e-09,0.78718,5
543.502,1269.54,      6.02471,  0.69438,50.00000,50.00000,6.631073e-09,0.78718,5
546.646,1269.69,      5.96356,  0.74900,50.00000,50.00000,6.618553e-09,0.78717,5
549.79,1269.85,      5.90390,  0.75341,50.00000,50.00000,6.610157e-09,0.78718,5
552.929,1270,      5.84787,  0.78072,50.00000,50.00000,6.627641e-09,0.78718,5
556.07,1270.15,      5.79124,  0.83514,50.00000,50.00000,6.629857e-09,0.78719,5
559.211,1270.31,      5.73290,  0.83514,50.00000,50.00000,6.629857e-09,0.78719,5
562.35,1270.46,      5.67065,  0.89197,50.00000,50.00000,6.625072e-09,0.78719,5
565.5,1270.62,      5.61001,  0.89197,50.00000,50.00000,6.632523e-09,0.78719,5
568.636,1270.78,      5.54837,  0.91928,50.00000,50.00000,6.621684e-09,0.78719,5
571.759,1270.93,      5.48740,  0.96707,50.00000,50.00000,6.626066e-09,0.78718,5
574.899,1271.09,      5.42756,  0.97390,50.00000,50.00000,6.624458e-09,0.78718,5
578.029,1271.24,      5.37067,  1.00100,50.00000,50.00000,6.626243e-09,0.78719,5
581.161,1271.39,      5.31571,  1.05562,50.00000,50.00000,6.627628e-09,0.78718,5
584.296,1271.55,      5.26159,  1.08293,50.00000,50.00000,6.617574e-09,0.78719,5
587.43,1271.7,      5.20748,  1.08293,50.00000,50.00000,6.618560e-09,0.78719,5
590.584,1271.86,      5.15321,  1.13052,50.00000,50.00000,6.621714e-09,0.78719,5
593.713,1272.02,      5.09542,  1.13735,50.00000,50.00000,6.616552e-09,0.78718,5
596.851,1272.17,      5.03484,  1.17831,50.00000,50.00000,6.621567e-09,0.78719,5
599.979,1272.33,      4.97248,  1.19197,50.00000,50.00000,6.621567e-09,0.78719,5
603.117,1272.48,      4.90674,  1.19197,50.00000,50.00000,6.616462e-09,0.78719,5
606.237,1272.63,      4.84229,  1.27369,50.00000,50.00000,6.627159e-09,0.78718,5
609.348,1272.79,      4.78124,  1.24639,50.00000,50.00000,6.630407e-09,0.78718,5
612.476,1272.94,      4.72346,  1.30100,50.00000,50.00000,6.631976e-09,0.78718,5
615.611,1273.1,      4.66432,  1.32811,50.00000,50.00000,6.617802e-09,0.78718,5
618.736,1273.26,      4.60284,  1.35542,50.00000,50.00000,6.634382e-09,0.78718,5
621.865,1273.41,      4.54026,  1.35542,50.00000,50.00000,6.619676e-09,0.78718,5
624.988,1273.57,      4.47767,  1.38273,50.00000,50.00000,6.631083e-09,0.78718,5
628.107,1273.72,      4.41863,  1.43715,50.00000,50.00000,6.627468e-09,0.78718,5
631.235,1273.88,      4.35530,  1.43715,50.00000,50.00000,6.610301e-09,0.78718,5
634.372,1274.03,      4.30268,  1.49398,50.00000,50.00000,6.625863e-09,0.78718,5
637.498,1274.18,      4.24807,  1.49398,50.00000,50.00000,6.625863e-09,0.78718,5
640.623,1274.34,      4.18911,  1.52129,50.00000,50.00000,6.622326e-09,0.78718,5
643.753,1274.49,      4.12552,  1.57590,50.00000,50.00000,6.625092e-09,0.78719,5
646.885,1274.65,      4.05393,  1.57590,50.00000,50.00000,6.616285e-09,0.78719,5
649.993,1274.81,      3.98228,  1.60301,50.00000,50.00000,6.633694e-09,0.78720,5
653.121,1274.96,      3.90986,  1.63253,50.00000,50.00000,6.624106e-09,0.78719,5
656.235,1275.12,      3.83502,  1.65984,50.00000,50.00000,6.623686e-09,0.78718,5
659.351,1275.27,      3.76295,  1.65984,50.00000,50.00000,6.613173e-09,0.78719,5
662.45,1275.42,      3.69210,  1.68032,50.00000,50.00000,6.624823e-09,0.78719,5
665.581,1275.58,      3.62145,  1.71446,50.00000,50.00000,6.631738e-09,0.78718,5
668.681,1275.73,      3.54926,  1.74157,50.00000,50.00000,6.624928e-09,0.78719,5
671.803,1275.89,      3.47815,  1.77129,50.00000,50.00000,6.624928e-09,0.78719,5
674.924,1276.05,      3.40899,  1.77129,50.00000,50.00000,6.615418e-09,0.78718,5
678.042,1276.2,      3.33561,  1.81205,50.00000,50.00000,6.614354e-09,0.78719,5
681.162,1276.36,      3.25864,  1.82570,50.00000,50.00000,6.622762e-09,0.78720,5
684.282,1276.51,      3.18083,  1.88032,50.00000,50.00000,6.622354e-09,0.78719,5
687.402,1276.66,      3.10093,  1.90743,50.00000,50.00000,6.636910e-09,0.78719,5
690.527,1276.82,      3.01707,  1.90743,50.00000,50.00000,6.624452e-09,0.78719,5
693.664,1276.97,      2.93582,  1.93474,50.00000,50.00000,6.627976e-09,0.78719,5
696.785,1277.13,      2.84897,  1.96426,50.00000,50.00000,6.629836e-09,0.78720,5
699.904,1277.29,      2.75998,  1.99157,50.00000,50.00000,6.640410e-09,0.78720,5
703.031,1277.44,      2.66728,  2.01888,50.00000,50.00000,6.622062e-09,0.78720,5
706.148,1277.6,      2.56827,  2.04598,50.00000,50.00000,6.619314e-09,0.78720,5
709.272,1277.75,      2.47532,  2.05281,50.00000,50.00000,6.619314e-09,0.78720,5
712.406,1277.9,      2.37896,  2.05281,50.00000,50.00000,6.633858e-09,0.78719,5
715.518,1278.06,      2.27557,  2.12791,50.00000,50.00000,6.610830e-09,0.78720,5
718.643,1278.21,      2.17382,  2.13916,50.00000,50.00000,6.625631e-09,0.78719,5
721.769,1278.37,      2.07242,  2.13916,50.00000,50.00000,6.619894e-09,0.78719,5
724.897,1278.53,      1.96236,  2.16647,50.00000,50.00000,6.617670e-09,0.78719,5
728.035,1278.68,      1.85199,  2.19378,50.00000,50.00000,6.624095e-09,0.78720,5
731.149,1278.84,      1.73640,  2.22108,50.00000,50.00000,6.631379e-09,0.78719,5
734.262,1278.99,      1.61689,  2.24819,50.00000,50.00000,6.628524e-09,0.78719,5
737.388,1279.14,      1.49995,  2.27771,50.00000,50.00000,6.621933e-09,0.78720,5
740.5,1279.3,      1.37809,  2.30502,50.00000,50.00000,6.633255e-09,0.78719,5
743.643,1279.45,      1.25392,  2.33233,50.00000,50.00000,6.633255e-09,0.78719,5
746.762,1279.61,      1.12737,  2.35964,50.00000,50.00000,6.616871e-09,0.78720,5
749.88,1279.77,      0.99417,  2.38675,50.00000,50.00000,6.609741e-09,0.78719,5
753.004,1279.92,      0.85561,  2.41406,50.00000,50.00000,6.614640e-09,0.78720,5
756.131,1280.08,      0.71427,  2.42088,50.00000,50.00000,6.616557e-09,0.78719,5
759.243,1280.23,      0.57679,  2.44137,50.00000,50.00000,6.615140e-09,0.78719,5
762.371,1280.38,      0.43121,  2.46867,50.00000,50.00000,6.626558e-09,0.78719,5
765.505,1280.54,      0.29651,  2.52309,50.00000,50.00000,6.629144e-09,0.78719,5
768.607,1280.69,      0.14364,  2.52309,50.00000,50.00000,6.638383e-09,0.78721,5
771.732,1280.85,-2.014600e-03,  2.55040,50.00000,50.00000,6.642310e-09,0.78720,5
774.849,1281.01,     -0.14478,  2.57992,50.00000,50.00000,6.616449e-09,0.78720,5
777.972,1281.16,     -0.29678,  2.60723,50.00000,50.00000,6.624188e-09,0.78720,5
781.101,1281.32,     -0.43677,  2.63454,50.00000,50.00000,6.624188e-09,0.78720,5
784.23,1281.47,     -0.58432,  2.63454,50.00000,50.00000,6.615534e-09,0.78720,5
787.362,1281.62,     -0.73373,  2.68896,50.00000,50.00000,            ,0.44996,5
790.483,1281.78,     -0.88840,  2.68896,50.00000,50.00000,            ,0.44870,5
793.6,1281.93,     -1.02715,  2.71627,50.00000,50.00000,            ,0.44745,5
794.91,1282,     -1.10275,  2.73675,50.00000,50.00000,            ,0.44693,5