File: data/TGA/commercial_samples/ExpDat_2025_09_04_SL_PS_Container-SCF3_Isothermal.csv
#EXPORTTYPE:                 ,DATA ALL
#FILE:                       ,2025_09_04_SL_PS_Container-SCF3_Isothermal_P5EER5_V1_2.ngb-ss5
#FORMAT:                     ,NETZSCH5
#FTYPE:                      ,ASCII
#IDENTITY:                   ,250825-P5EER5-V1+2
#DECIMAL:                    ,POINT
#SEPARATOR:                  ,COMMA
#MTYPE:                      ,DSC
#INSTRUMENT:                 ,NETZSCH STA 449F5
#PROJECT:                    ,PS-SCF3
#DATE/TIME:                  ,9/4/2025 10:06:24 AM (UTC-4)
#CORR. FILE:                 ,
#TEMPCAL:                    ,05-05-2025 14:38
#SENSITIVITY:                ,28-06-2023 13:53
#LABORATORY:                 ,Tran
#OPERATOR:                   ,Stanley
#REMARK:                     ,2025_03_29_SL_005d_M1_isothermal
#SAMPLE:                     ,250825-P5EER5-V1+2
#SAMPLE MASS /mg:            ,4.53
#MATERIAL:                   ,Polystyrene
#REFERENCE:                  ,
#REFERENCE MASS /mg:         ,0
#TYPE OF CRUCIBLE:           ,Al2O3 85 ‘l, open
#SAMPLE CRUCIBLE MASS /mg:   ,0
#REFERENCE CRUCIBLE MASS /mg:,0
#DSC RANGE /‘V:              ,5000
#TG RANGE /mg:               ,35000
#TAU-R:                      ,---
#CORR. CODE:                 ,000
#EXO:                        ,-1
#RANGE:                      ,30›C....800›C/0.0....20.0K/min
#SEGMENT:                    ,S1-5/5
#SEG. 1:                     ,30›C/10.0(K/min)/100›C
#SEG. 2:                     ,100›C/00:10/100›C
#SEG. 3:                     ,100›C/5.0(K/min)/300›C
#SEG. 4:                     ,300›C/20:00/300›C
#SEG. 5:                     ,300›C/20.0(K/min)/800›C

##Temp./›C,Time/min,DSC/(mW/mg),Mass/%,Gas Flow(purge2)/(ml/min),Gas Flow(protective)/(ml/min),TIC(scan:1)/A,Sensit./(uV/mW),Segment
 26.67700,   0.00000,      1.55371,    100,50.00000,50.00000,            ,0.92290,1
 35.52300,   1.28000,      1.55088,     97.14283,50.00000,50.00000,8.285693e-09,0.92348,1
 42.04600,   2.56000,      1.31068,     85.03775,50.00000,50.00000,8.285462e-09,0.92384,1
 49.60300,   3.84000,      1.61920,     88.94636,50.00000,50.00000,8.283887e-09,0.92417,1
 60.08500,   5.12000,      2.27500,     89.85784,50.00000,50.00000,8.291592e-09,0.92441,1
 73.12500,   6.40000,      2.91889,     90.76181,50.00000,50.00000,8.296892e-09,0.92466,1
 83.83200,   7.33917,      3.31075,     91.25894,50.00000,50.00000,8.294526e-09,0.92483,2
 90.41600,   7.97917,      3.13675,     90.74945,50.00000,50.00000,8.292322e-09,0.92491,2
 95.30700,   8.61917,      2.56084,     90.03267,50.00000,50.00000,8.309224e-09,0.92501,2
 98.90600,   9.25917,      1.99077,     89.35828,50.00000,50.00000,8.284966e-09,0.92511,2
101.895,   9.89917,      1.63050,     88.97616,50.00000,50.00000,8.275453e-09,0.92520,2
104.422,  10.53917,      1.37829,     88.57174,50.00000,50.00000,8.281594e-09,0.92529,2
106.369,  11.17917,      1.10394,     88.13951,50.00000,50.00000,8.289841e-09,0.92535,2
107.676,  11.81917,      0.79906,     87.70993,50.00000,50.00000,8.283315e-09,0.92544,2
108.486,  12.45917,      0.52484,     87.25298,50.00000,50.00000,8.270141e-09,0.92552,2
108.907,  13.09917,      0.30325,     86.82340,50.00000,50.00000,8.274214e-09,0.92560,2
109,  13.73917,      0.12724,     86.44393,50.00000,50.00000,8.267501e-09,0.92568,2
108.843,  14.37917,-1.558376e-02,     86.06424,50.00000,50.00000,8.268459e-09,0.92574,2
108.5,  15.01917,     -0.12924,     85.70949,50.00000,50.00000,8.279549e-09,0.92581,2
108.012,  15.65917,     -0.21628,     85.40993,50.00000,50.00000,8.293806e-09,0.92588,2
107.44,  16.29917,     -0.27672,     85.13510,50.00000,50.00000,8.276103e-09,0.92595,2
106.778,  16.93917,     -0.31862,     84.85055,50.00000,50.00000,8.295915e-09,0.92601,2
106.232,  18.15917,-7.730528e-02,     85.10773,50.00000,50.00000,8.297560e-09,0.92610,3
108.322,  19.43917,      0.57155,     85.83951,50.00000,50.00000,8.298088e-09,0.92617,3
111.975,  20.71917,      1.00335,     86.42627,50.00000,50.00000,8.285626e-09,0.92620,3
117.21,  21.99917,      1.44009,     87.03819,50.00000,50.00000,8.294754e-09,0.92618,3
123.59,  23.27917,      1.76536,     87.50265,50.00000,50.00000,8.274323e-09,0.92612,3
130.67,  24.55917,      1.98302,     87.80486,50.00000,50.00000,8.285140e-09,0.92598,3
138.137,  25.83917,      2.10415,     87.98477,50.00000,50.00000,8.271876e-09,0.92577,3
145.675,  27.11917,      2.14830,     88.13466,50.00000,50.00000,8.269893e-09,0.92552,3
153.142,  28.39917,      2.14174,     88.21457,50.00000,50.00000,8.278215e-09,0.92516,3
160.387,  29.67917,      2.10256,     88.22208,50.00000,50.00000,8.280912e-09,0.92476,3
167.435,  30.95917,      2.05444,     88.26446,50.00000,50.00000,8.278120e-09,0.92454,3
174.279,  32.23917,      2.00741,     88.27196,50.00000,50.00000,8.282803e-09,0.92427,3
180.97,  33.51917,      1.96892,     88.32450,50.00000,50.00000,8.286075e-09,0.92402,3
187.544,  34.79917,      1.94367,     88.33929,50.00000,50.00000,8.268954e-09,0.92373,3
194.06,  36.07917,      1.92518,     88.39934,50.00000,50.00000,8.278097e-09,0.92344,3
200.494,  37.35917,      1.91425,     88.42936,50.00000,50.00000,8.282955e-09,0.92320,3
206.892,  38.63917,      1.90464,     88.49669,50.00000,50.00000,8.275251e-09,0.92292,3
213.264,  39.91917,      1.89830,     88.55673,50.00000,50.00000,8.264581e-09,0.92266,3
219.635,  41.19917,      1.89158,     88.61656,50.00000,50.00000,8.293241e-09,0.92245,3
225.994,  42.47917,      1.88800,     88.69647,50.00000,50.00000,8.291782e-09,0.92221,3
232.343,  43.75917,      1.87844,     88.72141,50.00000,50.00000,8.275179e-09,0.92201,3
238.719,  45.03917,      1.86686,     88.77395,50.00000,50.00000,8.278931e-09,0.92179,3
245.08,  46.31917,      1.84787,     88.81148,50.00000,50.00000,8.278381e-09,0.92159,3
251.453,  47.59917,      1.83071,     88.88631,50.00000,50.00000,8.273755e-09,0.92141,3
257.825,  48.87917,      1.80799,     88.92627,50.00000,50.00000,8.270517e-09,0.92122,3
264.21,  50.15917,      1.78539,     88.96380,50.00000,50.00000,8.270085e-09,0.92103,3
270.594,  51.43917,      1.75436,     88.96380,50.00000,50.00000,8.263229e-09,0.92086,3
276.979,  52.71917,      1.72075,     89.06115,50.00000,50.00000,8.252085e-09,0.92068,3
283.358,  53.99917,      1.68154,     88.99868,50.00000,50.00000,8.241745e-09,0.92053,3
289.743,  55.27917,      1.64401,     88.93885,50.00000,50.00000,8.252271e-09,0.92035,3
296.125,  56.55917,      1.60090,     88.87881,50.00000,50.00000,8.246927e-09,0.92018,3
302.687,  59.09917,     -0.28138,     89.76534,50.00000,31.00000,8.224089e-09,0.91988,4
302.999,  62.29917,     -0.87537,     88.88631,50.00000,31.00000,8.228297e-09,0.91954,4
301.76,  65.49917,     -0.92746,     88.29691,50.00000,31.00000,8.217407e-09,0.91926,4
300.864,  68.69917,     -0.86822,     87.87991,50.00000,31.00000,8.198459e-09,0.91903,4
300.398,  71.89917,     -0.82536,     87.46026,50.00000,31.00000,8.201991e-09,0.91886,4
300.172,  75.09917,     -0.80332,     87.10066,50.00000,31.00000,8.181352e-09,0.91874,4
300.09,  78.29917,     -0.79382,     86.77108,50.00000,31.00000,8.186001e-09,0.91865,4
300.027,  81.49917,     -0.79248,     86.50132,50.00000,31.00000,8.187662e-09,0.91860,4
300.019,  84.69917,     -0.79140,     86.27660,50.00000,31.00000,8.191179e-09,0.91858,4
300.023,  87.89917,     -0.79526,     86.00419,50.00000,31.00000,8.192112e-09,0.91859,4
300.016,  91.09917,     -0.79889,     85.76203,50.00000,31.00000,8.197025e-09,0.91862,4
300.009,  94.29917,     -0.79781,     85.58962,50.00000,31.00000,8.166020e-09,0.91867,4
300.012,  97.49917,     -0.79888,     85.40243,50.00000,31.00000,8.179312e-09,0.91874,4
300.013, 100.699,     -0.80124,     85.22252,50.00000,31.00000,8.169409e-09,0.91882,4
300.015, 103.899,     -0.79718,     85.03532,50.00000,31.00000,8.175475e-09,0.91892,4
299.996, 107.099,     -0.80186,     84.87550,50.00000,31.00000,8.176941e-09,0.91902,4
300.008, 110.299,     -0.79974,     84.72318,50.00000,31.00000,8.179033e-09,0.91913,4
300.02, 113.499,     -0.80146,     84.54327,50.00000,31.00000,8.163212e-09,0.91924,4
300.016, 116.699,     -0.79910,     84.40839,50.00000,31.00000,8.175967e-09,0.91941,4
300.014, 119.899,     -0.80188,     84.28102,50.00000,31.00000,8.163862e-09,0.91928,4
300.022, 123.099,     -0.80360,     84.14371,50.00000,31.00000,8.178003e-09,0.91889,4
300.023, 126.299,     -0.80189,     84.04128,50.00000,31.00000,8.164576e-09,0.91833,4
300.025, 129.499,     -0.80168,     83.86887,50.00000,31.00000,8.154123e-09,0.91758,4
300.026, 132.699,     -0.80339,     83.77152,50.00000,31.00000,8.161864e-09,0.91662,4
300.021, 135.899,     -0.80638,     83.62914,50.00000,31.00000,8.156875e-09,0.91550,4
300.016, 139.099,     -0.80424,     83.52936,50.00000,31.00000,8.129680e-09,0.91414,4
299.996, 142.299,     -0.80700,     83.39448,50.00000,31.00000,8.145448e-09,0.91259,4
300, 145.499,     -0.80486,     83.17969,50.00000,31.00000,8.174961e-09,0.91088,4
300.024, 148.699,     -0.80039,     83.15717,50.00000,31.00000,8.191686e-09,0.90902,4
300.007, 151.899,     -0.80401,     83.07969,50.00000,30.00000,8.191238e-09,0.90704,4
300.009, 155.099,     -0.80273,     82.98234,50.00000,30.00000,8.195077e-09,0.90494,4
300.011, 158.299,     -0.80167,     82.86998,50.00000,30.00000,8.203748e-09,0.90276,4
300.017, 161.499,     -0.80188,     82.76269,50.00000,30.00000,8.196136e-09,0.90052,4
300.019, 164.699,     -0.80445,     82.65762,50.00000,30.00000,8.201028e-09,0.89821,4
300.018, 167.899,     -0.80445,     82.59536,50.00000,30.00000,8.200622e-09,0.89588,4
300.014, 171.099,     -0.80317,     82.47285,50.00000,30.00000,8.191808e-09,0.89349,4
300.025, 174.299,     -0.80125,     82.34812,50.00000,30.00000,8.203753e-09,0.89110,4
300.025, 177.499,     -0.80403,     82.24812,50.00000,30.00000,8.204825e-09,0.88867,4
299.997, 180.699,     -0.80422,     82.15320,50.00000,30.00000,8.196104e-09,0.88619,4
300.009, 183.899,     -0.79952,     82.01832,50.00000,30.00000,8.207814e-09,0.88369,4
300.015, 187.099,     -0.80231,     81.94349,50.00000,29.00000,8.174553e-09,0.88113,4
300.018, 190.299,     -0.80039,     81.84614,50.00000,29.00000,8.172245e-09,0.87856,4
300.031, 193.499,     -0.80168,     81.72627,50.00000,29.00000,8.163442e-09,0.87594,4
300.027, 196.699,     -0.80104,     81.58631,50.00000,29.00000,8.181996e-09,0.87328,4
300.007, 199.899,     -0.80188,     81.51898,50.00000,29.00000,8.163473e-09,0.87059,4
300.018, 203.099,     -0.80060,     81.39647,50.00000,29.00000,8.142413e-09,0.86785,4
300.016, 206.299,     -0.80039,     81.18433,50.00000,31.00000,8.171673e-09,0.86493,4
300.027, 209.499,     -0.80211,     81.05430,50.00000,31.00000,8.161929e-09,0.86211,4
300.012, 212.699,     -0.80466,     80.93709,50.00000,31.00000,8.161614e-09,0.85939,4
300, 215.899,     -0.80315,     80.79470,50.00000,31.00000,8.158920e-09,0.85649,4
300.013, 219.099,     -0.79974,     80.73466,50.00000,31.00000,8.147321e-09,0.85354,4
300.003, 222.299,     -0.80102,     80.64481,50.00000,31.00000,8.149786e-09,0.85056,4
300.013, 225.499,     -0.80231,     80.55497,50.00000,31.00000,8.151233e-09,0.84753,4
300.017, 228.699,     -0.80146,     80.46998,50.00000,31.00000,8.144519e-09,0.84447,4
300.014, 231.899,     -0.80103,     80.36512,50.00000,31.00000,8.124151e-09,0.84137,4
300.016, 235.099,     -0.80253,     80.22031,50.00000,31.00000,8.150030e-09,0.83822,4
300.018, 238.299,     -0.80231,     80.16026,50.00000,30.00000,8.145289e-09,0.83505,4
300.01, 241.499,     -0.80338,     80.04790,50.00000,30.00000,8.144427e-09,0.83184,4
300.018, 244.699,     -0.79996,     79.93554,50.00000,30.00000,8.149661e-09,0.82860,4
300.012, 247.899,     -0.80359,     79.80817,50.00000,30.00000,8.141151e-09,0.82533,4
300.005, 251.099,     -0.80187,     79.69581,50.00000,30.00000,8.145729e-09,0.82203,4
300.021, 254.299,     -0.80274,     79.60596,50.00000,30.00000,8.145625e-09,0.81868,4
300.011, 257.499,     -0.80124,     79.47859,50.00000,30.00000,8.148053e-09,0.81533,4
300.014, 260.699,     -0.80210,     79.37351,50.00000,30.00000,8.145268e-09,0.81194,4
300.002, 263.899,     -0.79973,     79.26865,50.00000,30.00000,8.142552e-09,0.80853,4
300.018, 267.099,     -0.80124,     79.18874,50.00000,30.00000,8.139347e-09,0.80510,4
300.023, 270.299,     -0.79996,     79.05386,50.00000,30.00000,8.148313e-09,0.80146,4
300.021, 273.499,     -0.80018,     78.98146,50.00000,30.00000,8.133592e-09,0.79799,4
300.022, 276.699,     -0.79911,     78.86159,50.00000,30.00000,8.138413e-09,0.79451,4
300.026, 279.899,     -0.79804,     78.76424,50.00000,30.00000,8.137151e-09,0.79100,4
300.02, 283.099,     -0.79953,     78.64680,50.00000,30.00000,8.124919e-09,0.78610,4
300.015, 286.299,     -0.80081,     78.55188,50.00000,30.00000,8.126389e-09,0.78434,4
300.016, 289.499,     -0.80039,     78.45453,50.00000,30.00000,8.129951e-09,0.78417,4
300.018, 292.699,     -0.80231,     78.34967,50.00000,30.00000,8.133982e-09,0.78479,4
300.018, 295.899,     -0.80082,     78.22230,50.00000,30.00000,8.126809e-09,0.78550,4
300.018, 299.099,     -0.80082,     78.10486,50.00000,30.00000,8.120267e-09,0.78607,4
300.016, 302.299,     -0.80188,     77.98013,50.00000,30.00000,8.133351e-09,0.78648,4
300.026, 305.499,     -0.80125,     77.92009,50.00000,30.00000,8.123630e-09,0.78674,4
300.015, 308.699,     -0.80039,     77.77020,50.00000,30.00000,8.130953e-09,0.78692,4
300.011, 311.899,     -0.79953,     77.67285,50.00000,30.00000,8.118024e-09,0.78703,4
300.018, 315.099,     -0.80017,     77.59294,50.00000,31.00000,8.121964e-09,0.78710,4
300.011, 318.299,     -0.80038,     77.52539,50.00000,30.00000,8.136617e-09,0.78713,4
300.019, 321.499,     -0.79654,     77.37064,50.00000,30.00000,8.125094e-09,0.78716,4
300.012, 324.699,     -0.79332,     77.29581,50.00000,30.00000,8.121614e-09,0.78717,4
300.017, 327.899,     -0.79975,     77.17329,50.00000,30.00000,8.124085e-09,0.78720,4
300.016, 331.099,     -0.79953,     77.10353,50.00000,30.00000,8.116981e-09,0.78719,4
300.02, 334.299,     -0.79761,     76.95850,50.00000,30.00000,8.106870e-09,0.78718,4
300.018, 337.499,     -0.79975,     76.89360,50.00000,31.00000,8.118575e-09,0.78720,4
300.022, 340.699,     -0.79782,     76.75121,50.00000,31.00000,8.114096e-09,0.78719,4
300.012, 343.899,     -0.79931,     76.62384,50.00000,31.00000,8.115566e-09,0.78721,4
300.011, 347.099,     -0.80017,     76.55651,50.00000,31.00000,8.115875e-09,0.78720,4
300.013, 350.299,     -0.79717,     76.46667,50.00000,31.00000,8.128646e-09,0.78720,4
300.017, 353.499,     -0.80103,     76.38411,50.00000,31.00000,8.120664e-09,0.78719,4
300.011, 356.699,     -0.80102,     76.23422,50.00000,31.00000,8.115482e-09,0.78720,4
300.01, 359.899,     -0.79995,     76.15430,50.00000,31.00000,8.125089e-09,0.78720,4
300.024, 363.099,     -0.80082,     76.06203,50.00000,31.00000,8.119478e-09,0.78719,4
300.013, 366.299,     -0.79910,     75.96468,50.00000,31.00000,8.129061e-09,0.78720,4
300.007, 369.499,     -0.80294,     75.83223,50.00000,31.00000,8.130788e-09,0.78718,4
299.999, 372.699,     -0.79994,     75.76733,50.00000,31.00000,8.139580e-09,0.78719,4
300.011, 375.899,     -0.79974,     75.62494,50.00000,31.00000,8.128201e-09,0.78720,4
300.002, 379.099,     -0.79695,     75.55011,50.00000,31.00000,8.137135e-09,0.78720,4
300.014, 382.299,     -0.80188,     75.43510,50.00000,31.00000,8.128429e-09,0.78719,4
300.023, 385.499,     -0.79890,     75.33024,50.00000,31.00000,8.149459e-09,0.78720,4
300.014, 388.699,     -0.80060,     75.24040,50.00000,31.00000,8.136754e-09,0.78719,4
300.01, 391.899,     -0.80466,     75.17285,50.00000,31.00000,8.128048e-09,0.78719,4
300.02, 395.099,     -0.80296,     75.05298,50.00000,31.00000,8.127051e-09,0.78718,4
300.01, 398.299,     -0.80316,     74.93554,50.00000,31.00000,8.138530e-09,0.78719,4
300.02, 401.499,     -0.80296,     74.84834,50.00000,31.00000,8.124878e-09,0.78719,4
300.016, 404.699,     -0.80295,     74.75077,50.00000,31.00000,8.142233e-09,0.78718,4
300.013, 407.899,     -0.80295,     74.60839,50.00000,31.00000,8.134903e-09,0.78719,4
300.016, 411.099,     -0.79932,     74.50353,50.00000,31.00000,8.135961e-09,0.78719,4
300.022, 414.299,     -0.80317,     74.37616,50.00000,31.00000,8.130804e-09,0.78719,4
300.014, 417.499,     -0.80424,     74.31876,50.00000,31.00000,8.122472e-09,0.78719,4
300.016, 420.699,     -0.80188,     74.19382,50.00000,32.00000,8.122982e-09,0.78719,4
300.017, 423.899,     -0.80188,     74.07395,50.00000,32.00000,8.124981e-09,0.78719,4
300.022, 427.099,     -0.80061,     73.99161,50.00000,32.00000,8.127806e-09,0.78721,4
300.02, 430.299,     -0.80103,     73.86667,50.00000,32.00000,8.136084e-09,0.78719,4
300.017, 433.499,     -0.80081,     73.79183,50.00000,32.00000,8.129662e-09,0.78720,4
300.02, 436.699,     -0.80510,     73.69183,50.00000,32.00000,8.118198e-09,0.78719,4
300.014, 439.899,     -0.80231,     73.58698,50.00000,32.00000,8.131665e-09,0.78719,4
300.018, 443.099,     -0.80317,     73.46225,50.00000,32.00000,8.114537e-09,0.78719,4
300.033, 446.299,     -0.80404,     73.38477,50.00000,32.00000,8.127043e-09,0.78719,4
300.012, 449.499,     -0.80616,     73.30486,50.00000,32.00000,8.132618e-09,0.78719,4
300.015, 452.699,     -0.80402,     73.20486,50.00000,32.00000,8.107123e-09,0.78720,4
300.013, 455.899,     -0.80274,     73.06247,50.00000,32.00000,8.117505e-09,0.78718,4
300.02, 459.099,     -0.80381,     72.99007,50.00000,32.00000,8.124899e-09,0.78719,4
300.022, 462.299,     -0.80339,     72.87770,50.00000,32.00000,8.134488e-09,0.78718,4
300.022, 465.499,     -0.80296,     72.78786,50.00000,32.00000,8.132728e-09,0.78719,4
300.01, 468.699,     -0.80380,     72.66799,50.00000,32.00000,8.147267e-09,0.78719,4
300.014, 471.899,     -0.80573,     72.54570,50.00000,32.00000,8.133972e-09,0.78719,4
300.017, 475.099,     -0.80488,     72.45077,50.00000,32.00000,8.117592e-09,0.78719,4
300.017, 478.299,     -0.80424,     72.33091,50.00000,32.00000,8.131939e-09,0.78719,4
300.023, 481.499,     -0.80253,     72.21589,50.00000,32.00000,8.121522e-09,0.78720,4
300.012, 484.699,     -0.80231,     72.08102,50.00000,32.00000,8.130619e-09,0.78719,4
300.026, 487.899,     -0.80232,     72.01854,50.00000,32.00000,8.103416e-09,0.78720,4
300.025, 491.099,     -0.80403,     71.92119,50.00000,33.00000,8.117180e-09,0.78720,4
300.011, 494.299,     -0.80594,     71.80132,50.00000,33.00000,8.112291e-09,0.78719,4
300.028, 497.499,     -0.80489,     71.70397,50.00000,33.00000,8.099041e-09,0.78719,4
300.029, 500.699,     -0.80767,     71.60397,50.00000,33.00000,8.107978e-09,0.78719,4
300.015, 503.899,     -0.80638,     71.50419,50.00000,33.00000,8.082844e-09,0.78720,4
300.015, 507.099,     -0.80573,     71.38918,50.00000,33.00000,8.068657e-09,0.78720,4
300.015, 510.299,     -0.80573,     71.30442,50.00000,33.00000,8.086056e-09,0.78720,4
300.018, 513.499,     -0.80681,     71.17704,50.00000,33.00000,8.077130e-09,0.78719,4
300.018, 516.699,     -0.80681,     71.12450,50.00000,33.00000,8.070937e-09,0.78717,4
300.01, 519.899,     -0.80851,     71.01214,50.00000,33.00000,8.076139e-09,0.78720,4
300.028, 523.099,     -0.80617,     70.89470,50.00000,33.00000,8.080119e-09,0.78719,4
300.012, 526.299,     -0.81129,     70.80486,50.00000,33.00000,8.066390e-09,0.78719,4
300.011, 529.499,     -0.80766,     70.71501,50.00000,33.00000,8.059562e-09,0.78720,4
300.023, 532.699,     -0.80788,     70.61766,50.00000,33.00000,8.071950e-09,0.78718,4
300.014, 535.899,     -0.80723,     70.51766,50.00000,33.00000,8.073045e-09,0.78719,4
300.018, 539.099,     -0.81002,     70.38278,50.00000,33.00000,8.059122e-09,0.78719,4
300.015, 542.299,     -0.80894,     70.33046,50.00000,33.00000,8.081449e-09,0.78719,4
300.018, 545.499,     -0.81044,     70.24040,50.00000,33.00000,8.073154e-09,0.78720,4
300.019, 548.699,     -0.81023,     70.12053,50.00000,33.00000,8.076482e-09,0.78721,4
300.031, 551.899,     -0.80725,     70.04570,50.00000,33.00000,8.046050e-09,0.78719,4
300.005, 555.099,     -0.81214,     69.91082,50.00000,33.00000,8.053482e-09,0.78719,4
300.027, 558.299,     -0.81131,     69.82097,50.00000,33.00000,8.045963e-09,0.78718,4
300.016, 561.499,     -0.80809,     69.70110,50.00000,33.00000,8.050485e-09,0.78719,4
300.014, 564.699,     -0.81386,     69.58874,50.00000,33.00000,8.050790e-09,0.78721,4
300.027, 567.899,     -0.81024,     69.49868,50.00000,33.00000,8.054213e-09,0.78718,4
300.023, 571.099,     -0.81066,     69.40883,50.00000,33.00000,8.037995e-09,0.78719,4
300.033, 574.299,     -0.81003,     69.31898,50.00000,33.00000,8.056007e-09,0.78720,4
300.016, 577.499,     -0.81365,     69.19161,50.00000,33.00000,8.031506e-09,0.78719,4
300.023, 580.699,     -0.81430,     69.10662,50.00000,33.00000,8.042199e-09,0.78720,4
300.022, 583.899,     -0.81473,     69.03664,50.00000,33.00000,8.034967e-09,0.78719,4
300.02, 587.099,     -0.81472,     68.94680,50.00000,33.00000,8.022224e-09,0.78719,4
300.032, 590.299,     -0.81709,     68.83444,50.00000,33.00000,8.032026e-09,0.78719,4
300.006, 593.499,     -0.81578,     68.72208,50.00000,33.00000,8.019929e-09,0.78718,4
300.013, 596.699,     -0.81450,     68.58477,50.00000,33.00000,8.020142e-09,0.78718,4
300.007, 599.899,     -0.81664,     68.50728,50.00000,33.00000,8.020022e-09,0.78720,4
300.013, 603.099,     -0.81429,     68.40728,50.00000,33.00000,8.015550e-09,0.78719,4
300.007, 606.299,     -0.81493,     68.29492,50.00000,33.00000,8.011231e-09,0.78720,4
300.009, 609.499,     -0.81899,     68.20751,50.00000,33.00000,8.015729e-09,0.78719,4
300.011, 612.699,     -0.81664,     68.06269,50.00000,33.00000,8.006380e-09,0.78719,4
300.02, 615.899,     -0.81558,     68.02517,50.00000,33.00000,8.013747e-09,0.78719,4
300.022, 619.099,     -0.81687,     67.89779,50.00000,33.00000,8.000245e-09,0.78719,4
300.014, 622.299,     -0.81985,     67.78543,50.00000,33.00000,8.001126e-09,0.78719,4
300.022, 625.499,     -0.81580,     67.70817,50.00000,33.00000,7.991457e-09,0.78719,4
300.015, 628.699,     -0.81622,     67.57815,50.00000,33.00000,7.996349e-09,0.78720,4
300.024, 631.899,     -0.81730,     67.49581,50.00000,33.00000,7.985091e-09,0.78720,4
300.02, 635.099,     -0.82114,     67.41347,50.00000,33.00000,7.988564e-09,0.78719,4
300.026, 638.299,     -0.81708,     67.28609,50.00000,33.00000,7.990407e-09,0.78721,4
300.023, 641.499,     -0.82050,     67.19360,50.00000,33.00000,7.982841e-09,0.78719,4
300.012, 644.699,     -0.81942,     67.12627,50.00000,33.00000,7.968229e-09,0.78720,4
300.021, 647.899,     -0.81922,     67.00618,50.00000,33.00000,7.968218e-09,0.78720,4
300.008, 651.099,     -0.82199,     66.90883,50.00000,33.00000,7.981692e-09,0.78719,4
300.009, 654.299,     -0.82028,     66.81391,50.00000,33.00000,7.970432e-09,0.78719,4
300.018, 657.499,     -0.81836,     66.68168,50.00000,33.00000,7.970338e-09,0.78718,4
300.008, 660.699,     -0.82006,     66.57682,50.00000,33.00000,7.979938e-09,0.78718,4
300.016, 663.899,     -0.82093,     66.46424,50.00000,33.00000,7.993069e-09,0.78719,4
300.014, 667.099,     -0.82028,     66.35938,50.00000,33.00000,7.967894e-09,0.78719,4
300.014, 670.299,     -0.82221,     66.28455,50.00000,33.00000,7.974277e-09,0.78719,4
300.021, 673.499,     -0.82136,     66.15717,50.00000,33.00000,7.945777e-09,0.78719,4
300.025, 676.699,     -0.82350,     66.07483,50.00000,33.00000,7.941828e-09,0.78719,4
300.029, 679.899,     -0.82072,     65.93996,50.00000,33.00000,7.953175e-09,0.78719,4
300.021, 683.099,     -0.82157,     65.84746,50.00000,33.00000,7.951322e-09,0.78718,4
300.015, 686.299,     -0.82071,     65.74503,50.00000,33.00000,7.966851e-09,0.78719,4
300.037, 689.499,     -0.82309,     65.64018,50.00000,33.00000,7.961869e-09,0.78719,4
300.028, 692.699,     -0.82308,     65.56534,50.00000,33.00000,7.956207e-09,0.78718,4
300.017, 695.899,     -0.82328,     65.41545,50.00000,33.00000,7.964394e-09,0.78719,4
300.024, 699.099,     -0.82543,     65.33311,50.00000,33.00000,7.954819e-09,0.78718,4
300.018, 702.299,     -0.82050,     65.22053,50.00000,33.00000,7.956668e-09,0.78720,4
300.018, 705.499,     -0.82414,     65.10066,50.00000,34.00000,7.936327e-09,0.78720,4
300.015, 708.699,     -0.82306,     65.01082,50.00000,33.00000,7.956678e-09,0.78719,4
300.026, 711.899,     -0.82543,     64.89338,50.00000,34.00000,7.942629e-09,0.78719,4
300.014, 715.099,     -0.82798,     64.82362,50.00000,34.00000,7.956981e-09,0.78719,4
300.015, 718.299,     -0.82478,     64.68124,50.00000,34.00000,7.962874e-09,0.78721,4
300.009, 721.499,     -0.82755,     64.58366,50.00000,34.00000,7.927929e-09,0.78720,4
300.011, 724.699,     -0.82520,     64.48146,50.00000,34.00000,7.931442e-09,0.78720,4
300.014, 727.899,     -0.82477,     64.33907,50.00000,34.00000,7.952956e-09,0.78720,4
300.018, 731.099,     -0.82713,     64.24901,50.00000,34.00000,7.942939e-09,0.78719,4
300.017, 734.299,     -0.82670,     64.17417,50.00000,34.00000,7.937529e-09,0.78718,4
300.011, 737.499,     -0.82798,     64.06181,50.00000,34.00000,7.954832e-09,0.78719,4
300.022, 740.699,     -0.82649,     63.91943,50.00000,34.00000,7.943104e-09,0.78718,4
300.013, 743.899,     -0.82841,     63.87439,50.00000,34.00000,7.936687e-09,0.78719,4
300.02, 747.099,     -0.82585,     63.71722,50.00000,34.00000,7.942937e-09,0.78720,4
300.013, 750.299,     -0.82606,     63.64216,50.00000,34.00000,7.934731e-09,0.78720,4
300.024, 753.499,     -0.82864,     63.51479,50.00000,34.00000,7.968613e-09,0.78719,4
300.017, 756.699,     -0.82863,     63.41744,50.00000,34.00000,7.941136e-09,0.78718,4
300.009, 759.899,     -0.83140,     63.33510,50.00000,34.00000,7.938234e-09,0.78719,4
300.015, 763.099,     -0.82734,     63.21258,50.00000,34.00000,7.940772e-09,0.78719,4
300.016, 766.299,     -0.82991,     63.09272,50.00000,34.00000,7.948575e-09,0.78719,4
300.026, 769.499,     -0.83013,     62.99294,50.00000,34.00000,7.947329e-09,0.78719,4
300.017, 772.699,     -0.82948,     62.89294,50.00000,34.00000,7.936658e-09,0.78719,4
300.007, 775.899,     -0.83012,     62.81567,50.00000,34.00000,7.914847e-09,0.78719,4
300.02, 779.099,     -0.82885,     62.65828,50.00000,34.00000,7.943757e-09,0.78720,4
300.025, 782.299,     -0.83270,     62.57594,50.00000,34.00000,7.926610e-09,0.78719,4
300.003, 785.499,     -0.83354,     62.48344,50.00000,34.00000,7.937616e-09,0.78720,4
300.011, 788.699,     -0.83055,     62.35607,50.00000,34.00000,7.937573e-09,0.78719,4
300.022, 791.899,     -0.83184,     62.25607,50.00000,34.00000,7.910258e-09,0.78719,4
300.015, 795.099,     -0.83141,     62.14636,50.00000,34.00000,7.921420e-09,0.78719,4
300.02, 798.299,     -0.83291,     62.05629,50.00000,34.00000,7.921495e-09,0.78720,4
300.029, 801.499,     -0.83142,     61.93642,50.00000,34.00000,7.913896e-09,0.78719,4
300.005, 804.699,     -0.83183,     61.86159,50.00000,34.00000,7.922113e-09,0.78719,4
300.014, 807.899,     -0.83333,     61.73422,50.00000,34.00000,7.924245e-09,0.78720,4
300.004, 811.099,     -0.83204,     61.62428,50.00000,34.00000,7.921069e-09,0.78721,4
300.024, 814.299,     -0.83291,     61.52693,50.00000,34.00000,7.920745e-09,0.78719,4
300.008, 817.499,     -0.83397,     61.41457,50.00000,34.00000,7.912036e-09,0.78719,4
300.019, 820.699,     -0.83184,     61.30971,50.00000,34.00000,7.923116e-09,0.78719,4
300.009, 823.899,     -0.83226,     61.18234,50.00000,34.00000,7.929864e-09,0.78719,4
300.018, 827.099,     -0.83376,     61.06998,50.00000,34.00000,7.902316e-09,0.78719,4
300.016, 830.299,     -0.83547,     60.97991,50.00000,34.00000,7.917985e-09,0.78719,4
300.026, 833.499,     -0.83784,     60.87506,50.00000,34.00000,7.919269e-09,0.78719,4
300.002, 836.699,     -0.83503,     60.74768,50.00000,34.00000,7.908220e-09,0.78719,4
300.01, 839.899,     -0.83697,     60.64283,50.00000,34.00000,7.899363e-09,0.78719,4
300.012, 843.099,     -0.83932,     60.54283,50.00000,34.00000,7.931702e-09,0.78720,4
300.019, 846.299,     -0.83484,     60.45541,50.00000,34.00000,7.909465e-09,0.78719,4
300.025, 849.499,     -0.83420,     60.30574,50.00000,34.00000,7.919192e-09,0.78719,4
300.01, 852.699,     -0.83761,     60.22318,50.00000,34.00000,7.910500e-09,0.78720,4
300.017, 855.899,     -0.83569,     60.10088,50.00000,34.00000,7.917810e-09,0.78720,4
300.02, 859.099,     -0.83655,     60.01104,50.00000,34.00000,7.910424e-09,0.78719,4
300.023, 862.299,     -0.83719,     59.89868,50.00000,34.00000,7.912129e-09,0.78719,4
300.018, 865.499,     -0.83762,     59.78609,50.00000,34.00000,7.913642e-09,0.78719,4
300.006, 868.699,     -0.83996,     59.67373,50.00000,34.00000,7.909812e-09,0.78718,4
300.013, 871.899,     -0.83761,     59.55386,50.00000,34.00000,7.933565e-09,0.78720,4
300.014, 875.099,     -0.83804,     59.48653,50.00000,34.00000,7.904761e-09,0.78719,4
300.019, 878.299,     -0.83676,     59.35166,50.00000,34.00000,7.910057e-09,0.78719,4
300.015, 881.499,     -0.84061,     59.23179,50.00000,34.00000,7.894051e-09,0.78719,4
300.015, 884.699,     -0.83890,     59.10442,50.00000,34.00000,7.900710e-09,0.78719,4
300.018, 887.899,     -0.83911,     58.99956,50.00000,34.00000,7.888352e-09,0.78720,4
300.019, 891.099,     -0.83783,     58.88720,50.00000,34.00000,7.903023e-09,0.78720,4
300.025, 894.299,     -0.83741,     58.78962,50.00000,34.00000,7.905422e-09,0.78721,4
300.013, 897.499,     -0.84018,     58.68477,50.00000,34.00000,7.875295e-09,0.78720,4
300.014, 900.699,     -0.83825,     58.56755,50.00000,34.00000,7.895428e-09,0.78719,4
300.02, 903.899,     -0.84018,     58.44746,50.00000,34.00000,7.896123e-09,0.78719,4
300.024, 907.099,     -0.84083,     58.36512,50.00000,34.00000,7.895220e-09,0.78719,4
300.025, 910.299,     -0.84169,     58.23775,50.00000,34.00000,7.895681e-09,0.78719,4
300.015, 913.499,     -0.83975,     58.13289,50.00000,34.00000,7.884455e-09,0.78719,4
300.025, 916.699,     -0.83848,     58.03554,50.00000,34.00000,7.887969e-09,0.78719,4
300.017, 919.899,     -0.84040,     57.91810,50.00000,34.00000,7.899262e-09,0.78719,4
300.01, 923.099,     -0.84296,     57.77329,50.00000,34.00000,7.895589e-09,0.78720,4
300.02, 926.299,     -0.84061,     57.68344,50.00000,34.00000,7.899414e-09,0.78719,4
300.009, 929.499,     -0.84274,     57.56358,50.00000,34.00000,7.894377e-09,0.78718,4
300.024, 932.699,     -0.84233,     57.47616,50.00000,34.00000,7.896946e-09,0.78719,4
300.02, 935.899,     -0.83976,     57.34879,50.00000,34.00000,7.893202e-09,0.78718,4
300.013, 939.099,     -0.84467,     57.24371,50.00000,34.00000,7.914490e-09,0.78719,4
300.01, 942.299,     -0.84210,     57.13885,50.00000,34.00000,7.898773e-09,0.78719,4
300.007, 945.499,     -0.84295,     57.01148,50.00000,34.00000,7.905768e-09,0.78721,4
300.017, 948.699,     -0.84125,     56.91413,50.00000,34.00000,7.904929e-09,0.78719,4
300.028, 951.899,     -0.84105,     56.77925,50.00000,34.00000,7.923094e-09,0.78719,4
300.014, 955.099,     -0.84296,     56.70442,50.00000,34.00000,7.907219e-09,0.78718,4
300.021, 958.299,     -0.84168,     56.59956,50.00000,34.00000,7.905784e-09,0.78719,4
300.007, 961.499,     -0.84359,     56.50199,50.00000,34.00000,7.918569e-09,0.78720,4
300.006, 964.699,     -0.84531,     56.36711,50.00000,34.00000,7.901489e-09,0.78719,4
300.027, 967.899,     -0.84190,     56.23731,50.00000,34.00000,7.906651e-09,0.78719,4
300.025, 971.099,     -0.84447,     56.13996,50.00000,34.00000,7.890594e-09,0.78719,4
300.012, 974.299,     -0.84189,     56.02009,50.00000,34.00000,7.915292e-09,0.78719,4
300.01, 977.499,     -0.84103,     55.89272,50.00000,34.00000,7.908611e-09,0.78719,4
300.021, 980.699,     -0.84575,     55.81766,50.00000,34.00000,7.906022e-09,0.78719,4
300.031, 983.899,     -0.84619,     55.69051,50.00000,34.00000,7.882067e-09,0.78720,4
300.029, 987.099,     -0.84362,     55.54062,50.00000,34.00000,7.880976e-09,0.78718,4
300.025, 990.299,     -0.84468,     55.47307,50.00000,34.00000,7.894169e-09,0.78720,4
300.008, 993.499,     -0.84360,     55.35320,50.00000,34.00000,7.897846e-09,0.78719,4
300.018, 996.699,     -0.84596,     55.27086,50.00000,34.00000,7.882820e-09,0.78719,4
300.015, 999.899,     -0.84382,     55.14349,50.00000,34.00000,7.892417e-09,0.78718,4
300.01,1003.1,     -0.84381,     55.03113,50.00000,34.00000,7.904292e-09,0.78718,4
300.013,1006.3,     -0.84574,     54.94857,50.00000,34.00000,7.904854e-09,0.78719,4
299.996,1009.5,     -0.84637,     54.80640,50.00000,34.00000,7.913110e-09,0.78718,4
300.011,1012.7,     -0.84488,     54.71634,50.00000,34.00000,7.907934e-09,0.78719,4
300.022,1015.9,     -0.84489,     54.62649,50.00000,34.00000,7.897385e-09,0.78719,4
300.018,1019.1,     -0.84403,     54.46909,50.00000,34.00000,7.886535e-09,0.78719,4
300.033,1022.3,     -0.84533,     54.41678,50.00000,34.00000,7.891562e-09,0.78719,4
300.017,1025.5,     -0.84746,     54.31921,50.00000,34.00000,7.902664e-09,0.78717,4
300.014,1028.7,     -0.84403,     54.14702,50.00000,34.00000,7.895726e-09,0.78719,4
300.016,1031.9,     -0.84724,     54.05717,50.00000,34.00000,7.904964e-09,0.78719,4
300.025,1035.1,     -0.84875,     53.93731,50.00000,34.00000,7.890397e-09,0.78718,4
300.025,1038.3,     -0.84639,     53.85232,50.00000,34.00000,7.901908e-09,0.78719,4
300.014,1041.5,     -0.84788,     53.73245,50.00000,34.00000,7.905724e-09,0.78719,4
300.02,1044.7,     -0.84618,     53.62009,50.00000,34.00000,7.903457e-09,0.78719,4
300.017,1047.9,     -0.84767,     53.49272,50.00000,34.00000,7.898358e-09,0.78719,4
300.009,1051.1,     -0.84595,     53.37285,50.00000,34.00000,7.899255e-09,0.78718,4
300.017,1054.3,     -0.84574,     53.26049,50.00000,34.00000,7.888923e-09,0.78719,4
300.012,1057.5,     -0.85066,     53.19051,50.00000,33.00000,7.901494e-09,0.78718,4
300.014,1060.7,     -0.84916,     53.07815,50.00000,33.00000,7.900017e-09,0.78718,4
300.017,1063.9,     -0.84746,     52.95077,50.00000,33.00000,7.896765e-09,0.78718,4
300.02,1067.1,     -0.84938,     52.85342,50.00000,33.00000,7.901579e-09,0.78718,4
300.017,1070.3,     -0.84938,     52.72605,50.00000,33.00000,7.896184e-09,0.78719,4
300.026,1073.5,     -0.85025,     52.60596,50.00000,33.00000,7.907498e-09,0.78718,4
300.01,1076.7,     -0.85087,     52.48609,50.00000,33.00000,7.909531e-09,0.78719,4
300.015,1079.9,     -0.85024,     52.38874,50.00000,33.00000,7.905113e-09,0.78719,4
300.019,1083.1,     -0.84853,     52.29890,50.00000,33.00000,7.902230e-09,0.78719,4
300.013,1086.3,     -0.85002,     52.18653,50.00000,33.00000,7.895200e-09,0.78720,4
300.026,1089.5,     -0.84811,     52.05673,50.00000,33.00000,7.908415e-09,0.78720,4
300.022,1092.7,     -0.84853,     51.97417,50.00000,33.00000,7.909042e-09,0.78719,4
300.011,1095.9,     -0.85280,     51.85430,50.00000,33.00000,7.922310e-09,0.78719,4
300.005,1099.1,     -0.84809,     51.74194,50.00000,33.00000,7.911586e-09,0.78720,4
300.012,1102.3,     -0.84831,     51.63709,50.00000,33.00000,7.896872e-09,0.78718,4
300.01,1105.5,     -0.85044,     51.53223,50.00000,33.00000,7.909148e-09,0.78717,4
300.025,1108.7,     -0.84768,     51.39735,50.00000,33.00000,7.911667e-09,0.78719,4
300.002,1111.9,     -0.84872,     51.27748,50.00000,33.00000,7.908417e-09,0.78719,4
300.012,1115.1,     -0.85301,     51.16247,50.00000,33.00000,7.903857e-09,0.78718,4
300.015,1118.3,     -0.85152,     51.09514,50.00000,33.00000,7.922837e-09,0.78720,4
300.009,1121.5,     -0.84895,     50.96777,50.00000,33.00000,7.900530e-09,0.78719,4
300.018,1124.7,     -0.84639,     50.83289,50.00000,33.00000,7.910805e-09,0.78718,4
300.016,1127.9,     -0.84831,     50.73554,50.00000,33.00000,7.927852e-09,0.78719,4
300.016,1131.1,     -0.84938,     50.61567,50.00000,33.00000,7.924847e-09,0.78719,4
300.024,1134.3,     -0.84704,     50.51082,50.00000,33.00000,7.931567e-09,0.78719,4
300.014,1137.5,     -0.85130,     50.38344,50.00000,33.00000,7.935395e-09,0.78719,4
300.019,1140.7,     -0.84831,     50.26358,50.00000,33.00000,7.935869e-09,0.78717,4
300.021,1143.9,     -0.84960,     50.17351,50.00000,33.00000,7.944463e-09,0.78719,4
300.003,1147.1,     -0.85172,     50.05364,50.00000,33.00000,7.938161e-09,0.78719,4
300.027,1150.3,     -0.84982,     49.95629,50.00000,33.00000,7.941033e-09,0.78718,4
300.019,1153.5,     -0.84767,     49.82141,50.00000,33.00000,7.940208e-09,0.78719,4
300.006,1156.7,     -0.84702,     49.74658,50.00000,33.00000,7.963049e-09,0.78718,4
300.016,1159.9,     -0.85259,     49.60419,50.00000,33.00000,7.940621e-09,0.78718,4
300.007,1163.1,     -0.85151,     49.45430,50.00000,33.00000,7.953362e-09,0.78719,4
300.012,1166.3,     -0.84959,     49.36446,50.00000,33.00000,7.964490e-09,0.78719,4
299.997,1169.5,     -0.85278,     49.27439,50.00000,33.00000,7.944936e-09,0.78719,4
300.021,1172.7,     -0.85024,     49.15210,50.00000,33.00000,7.959745e-09,0.78719,4
300.011,1175.9,     -0.85258,     49.00971,50.00000,33.00000,7.968966e-09,0.78718,4
300.009,1179.1,     -0.84873,     48.91987,50.00000,33.00000,7.945120e-09,0.78719,4
300.02,1182.3,     -0.84981,     48.80751,50.00000,33.00000,7.960358e-09,0.78719,4
300.021,1185.5,     -0.84939,     48.70508,50.00000,33.00000,7.972334e-09,0.78719,4
300.025,1188.7,     -0.84960,     48.60773,50.00000,33.00000,7.957876e-09,0.78719,4
300.025,1191.9,     -0.84597,     48.48786,50.00000,33.00000,7.966872e-09,0.78719,4
300.025,1195.1,     -0.84982,     48.38300,50.00000,33.00000,7.947255e-09,0.78719,4
300.024,1198.3,     -0.84789,     48.27792,50.00000,33.00000,7.954824e-09,0.78719,4
300.022,1201.5,     -0.85046,     48.17307,50.00000,33.00000,7.958060e-09,0.78719,4
300.014,1204.7,     -0.84981,     48.09823,50.00000,33.00000,7.967653e-09,0.78718,4
300.01,1207.9,     -0.84980,     47.96578,50.00000,33.00000,7.949937e-09,0.78719,4
300.026,1211.1,     -0.85196,     47.85342,50.00000,33.00000,7.966974e-09,0.78719,4
300.013,1214.3,     -0.85344,     47.75850,50.00000,33.00000,7.959719e-09,0.78719,4
300.014,1217.5,     -0.85323,     47.66358,50.00000,33.00000,7.962965e-09,0.78718,4
300.017,1220.7,     -0.85238,     47.51369,50.00000,33.00000,7.955270e-09,0.78719,4
300.011,1223.9,     -0.85216,     47.43135,50.00000,33.00000,7.973930e-09,0.78719,4
300.019,1227.1,     -0.85131,     47.31148,50.00000,33.00000,7.973648e-09,0.78718,4
300.025,1230.3,     -0.85239,     47.23664,50.00000,33.00000,7.952766e-09,0.78718,4
300.019,1233.5,     -0.85388,     47.09426,50.00000,33.00000,7.975689e-09,0.78719,4
300.015,1236.7,     -0.85494,     46.99691,50.00000,33.00000,7.941807e-09,0.78719,4
300.031,1239.9,     -0.85111,     46.85453,50.00000,33.00000,7.970795e-09,0.78719,4
300.018,1243.1,     -0.85430,     46.72958,50.00000,33.00000,7.959191e-09,0.78719,4
300.026,1246.3,     -0.85303,     46.63466,50.00000,33.00000,7.967097e-09,0.78718,4
300.009,1249.5,     -0.85322,     46.53731,50.00000,33.00000,7.960041e-09,0.78719,4
300.014,1252.7,     -0.85708,     46.37991,50.00000,33.00000,7.955582e-09,0.78719,4
300.013,1255.9,     -0.85387,     46.29249,50.00000,33.00000,7.975343e-09,0.78719,4
300.013,1257.1,     -0.85473,     46.18764,50.00000,50.00000,7.976729e-09,0.78720,5
300.169,1257.26,     -0.77036,     46.10022,50.00000,50.00000,7.970764e-09,0.78718,5
300.651,1257.42,     -0.46826,     46.10022,50.00000,50.00000,7.953568e-09,0.78719,5
301.645,1257.58,      0.11983,     46.10022,50.00000,50.00000,7.972277e-09,0.78717,5
303.156,1257.74,      0.96680,     46.19007,50.00000,50.00000,7.969105e-09,0.78719,5
305.181,1257.9,      1.99082,     46.36998,50.00000,50.00000,7.973976e-09,0.78718,5
307.632,1258.06,      3.07383,     46.62230,50.00000,50.00000,7.957315e-09,0.78719,5
310.364,1258.22,      4.10361,     46.78212,50.00000,50.00000,7.970447e-09,0.78719,5
313.266,1258.38,      4.98610,     46.92693,50.00000,50.00000,7.980225e-09,0.78718,5
316.207,1258.54,      5.66355,     47.01678,50.00000,50.00000,7.976249e-09,0.78718,5
319.092,1258.7,      6.12175,     47.07682,50.00000,50.00000,7.976249e-09,0.78718,5
321.912,1258.86,      6.38719,     47.07682,50.00000,50.00000,7.968338e-09,0.78718,5
324.642,1259.02,      6.50100,     47.04680,50.00000,50.00000,7.970900e-09,0.78719,5
327.305,1259.18,      6.52748,     47.07682,50.00000,50.00000,7.959376e-09,0.78718,5
329.967,1259.34,      6.52707,     47.10662,50.00000,50.00000,7.977179e-09,0.78718,5
332.657,1259.5,      6.54339,     47.16667,50.00000,50.00000,7.961725e-09,0.78719,5
335.418,1259.66,      6.61540,     47.22163,50.00000,50.00000,7.955697e-09,0.78719,5
338.31,1259.82,      6.75789,     47.29161,50.00000,50.00000,7.969784e-09,0.78719,5
341.31,1259.98,      6.96835,     47.35143,50.00000,50.00000,7.971956e-09,0.78718,5
344.46,1260.14,      7.22884,     47.46887,50.00000,50.00000,7.971312e-09,0.78719,5
347.693,1260.3,      7.51721,     47.53620,50.00000,50.00000,7.976853e-09,0.78719,5
351.046,1260.46,      7.80669,     47.59625,50.00000,50.00000,7.987373e-09,0.78719,5
354.453,1260.62,      8.07680,     47.62627,50.00000,50.00000,7.955459e-09,0.78719,5
357.925,1260.78,      8.30790,     47.65607,50.00000,50.00000,7.971765e-09,0.78719,5
361.391,1260.94,      8.48949,     47.62627,50.00000,50.00000,7.966431e-09,0.78719,5
364.868,1261.1,      8.62847,     47.56380,50.00000,50.00000,7.978964e-09,0.78718,5
368.34,1261.26,      8.72409,     47.43135,50.00000,50.00000,7.977513e-09,0.78719,5
371.813,1261.42,      8.78892,     47.33400,50.00000,50.00000,7.978412e-09,0.78719,5
375.274,1261.58,      8.83601,     47.14923,50.00000,50.00000,7.995994e-09,0.78718,5
378.733,1261.74,      8.87846,     46.89691,50.00000,50.00000,7.995994e-09,0.78718,5
382.193,1261.9,      8.92503,     46.59713,50.00000,50.00000,7.977311e-09,0.78719,5
385.664,1262.06,      8.98328,     46.18256,50.00000,50.00000,7.971297e-09,0.78718,5
389.158,1262.22,      9.05828,     45.64812,50.00000,50.00000,7.973050e-09,0.78719,5
392.667,1262.38,      9.14297,     45.07373,50.00000,50.00000,7.970501e-09,0.78718,5
396.174,1262.54,      9.24522,     44.21722,50.00000,50.00000,7.968164e-09,0.78719,5
399.694,1262.7,      9.35041,     43.28808,50.00000,50.00000,7.983386e-09,0.78719,5
403.223,1262.86,      9.47584,     42.04680,50.00000,50.00000,7.973942e-09,0.78719,5
406.748,1263.02,      9.60322,     40.68322,50.00000,50.00000,7.964173e-09,0.78719,5
410.256,1263.18,      9.74621,     38.96755,50.00000,50.00000,7.973655e-09,0.78719,5
413.748,1263.34,      9.89312,     37.01700,50.00000,50.00000,7.978803e-09,0.78719,5
417.238,1263.5,     10.06607,     34.70442,50.00000,50.00000,7.970048e-09,0.78719,5
420.714,1263.66,     10.24850,     32.03223,50.00000,50.00000,7.975264e-09,0.78717,5
424.198,1263.82,     10.44157,     28.87792,50.00000,50.00000,7.967084e-09,0.78719,5
427.656,1263.98,     10.63358,     25.35143,50.00000,50.00000,7.971513e-09,0.78718,5
431.095,1264.14,     10.80505,     21.49801,50.00000,50.00000,7.973854e-09,0.78719,5
434.549,1264.3,     10.92304,     17.42472,50.00000,50.00000,7.959588e-09,0.78719,5
437.985,1264.46,     11.00269,     13.33135,50.00000,50.00000,7.984013e-09,0.78719,5
441.419,1264.62,     11.02056,      9.25806,50.00000,50.00000,7.963150e-09,0.78718,5
444.843,1264.78,     10.93484,      5.48190,50.00000,50.00000,7.981324e-09,0.78719,5
448.255,1264.94,     10.75057,      2.10044,50.00000,50.00000,7.975528e-09,0.78719,5
451.654,1265.1,     10.47316,     -0.74172,50.00000,50.00000,7.975528e-09,0.78719,5
455.055,1265.26,     10.11809,     -3.01192,50.00000,50.00000,7.964477e-09,0.78719,5
458.455,1265.42,      9.73370,     -4.71258,50.00000,50.00000,7.963701e-09,0.78718,5
461.847,1265.58,      9.36604,     -5.88631,50.00000,50.00000,7.965001e-09,0.78719,5
465.224,1265.74,      9.03362,     -6.74305,50.00000,50.00000,7.984749e-09,0.78719,5
468.607,1265.9,      8.74145,     -7.26004,50.00000,50.00000,7.983159e-09,0.78719,5
471.974,1266.06,      8.48771,     -7.64702,50.00000,50.00000,7.975567e-09,0.78719,5
475.345,1266.22,      8.27238,     -7.84945,50.00000,50.00000,7.976765e-09,0.78719,5
478.692,1266.38,      8.09027,     -7.96932,50.00000,50.00000,7.981579e-09,0.78719,5
482.035,1266.54,      7.93610,     -8.03664,50.00000,50.00000,7.987671e-09,0.78719,5
485.378,1266.7,      7.80757,     -8.03664,50.00000,50.00000,7.985640e-09,0.78719,5
488.697,1266.86,      7.69302,     -8.01413,50.00000,50.00000,7.990670e-09,0.78720,5
492.015,1267.02,      7.59591,     -7.97682,50.00000,50.00000,7.978827e-09,0.78719,5
495.336,1267.18,      7.50520,     -7.93929,50.00000,50.00000,7.970995e-09,0.78718,5
498.632,1267.34,      7.42263,     -7.93929,50.00000,50.00000,7.984285e-09,0.78718,5
501.928,1267.5,      7.34942,     -7.88675,50.00000,50.00000,7.985849e-09,0.78718,5
505.224,1267.66,      7.27646,     -7.88675,50.00000,50.00000,7.960333e-09,0.78719,5
508.519,1267.82,      7.21021,     -7.85695,50.00000,50.00000,7.973885e-09,0.78719,5
511.8,1267.98,      7.14105,     -7.79691,50.00000,50.00000,7.990026e-09,0.78719,5
515.082,1268.14,      7.07390,     -7.76689,50.00000,50.00000,7.973993e-09,0.78720,5
518.351,1268.3,      7.00755,     -7.75938,50.00000,50.00000,7.968751e-09,0.78719,5
521.616,1268.46,      6.94323,     -7.66954,50.00000,50.00000,7.967325e-09,0.78719,5
524.893,1268.62,      6.87680,     -7.66954,50.00000,50.00000,7.967325e-09,0.78719,5
528.166,1268.78,      6.81474,     -7.63951,50.00000,50.00000,7.985008e-09,0.78719,5
531.419,1268.94,      6.74829,     -7.57726,50.00000,50.00000,7.961606e-09,0.78719,5
534.678,1269.1,      6.68489,     -7.57726,50.00000,50.00000,7.963438e-09,0.78719,5
537.929,1269.26,      6.62505,     -7.51722,50.00000,50.00000,7.972877e-09,0.78719,5
541.183,1269.42,      6.56248,     -7.48720,50.00000,50.00000,7.981607e-09,0.78719,5
544.435,1269.58,      6.49945,     -7.45740,50.00000,50.00000,7.981101e-09,0.78719,5
547.665,1269.74,      6.43228,     -7.39735,50.00000,50.00000,7.981795e-09,0.78720,5
550.908,1269.9,      6.36239,     -7.39735,50.00000,50.00000,7.969996e-09,0.78720,5
554.142,1270.06,      6.29107,     -7.36490,50.00000,50.00000,7.992090e-09,0.78719,5
557.366,1270.22,      6.22784,     -7.33488,50.00000,50.00000,7.984866e-09,0.78721,5
560.605,1270.38,      6.17090,     -7.30486,50.00000,50.00000,7.988563e-09,0.78719,5
563.845,1270.54,      6.11842,     -7.27506,50.00000,50.00000,7.979558e-09,0.78719,5
567.09,1270.7,      6.07049,     -7.20508,50.00000,50.00000,7.959684e-09,0.78719,5
570.337,1270.86,      6.02229,     -7.19757,50.00000,50.00000,7.971823e-09,0.78719,5
573.584,1271.02,      5.97381,     -7.13753,50.00000,50.00000,7.981000e-09,0.78719,5
576.835,1271.18,      5.92204,     -7.13753,50.00000,50.00000,7.964489e-09,0.78719,5
580.077,1271.34,      5.86105,     -7.10508,50.00000,50.00000,7.987190e-09,0.78720,5
583.325,1271.5,      5.79851,     -7.04525,50.00000,50.00000,7.975546e-09,0.78720,5
586.559,1271.66,      5.73429,     -7.04525,50.00000,50.00000,7.995332e-09,0.78720,5
589.81,1271.82,      5.66579,     -7.04525,50.00000,50.00000,7.983781e-09,0.78719,5
593.051,1271.98,      5.59840,     -6.98521,50.00000,50.00000,7.983781e-09,0.78719,5
596.277,1272.14,      5.53055,     -6.95541,50.00000,50.00000,7.981140e-09,0.78720,5
599.5,1272.3,      5.46263,     -6.95541,50.00000,50.00000,7.977475e-09,0.78720,5
602.737,1272.46,      5.39663,     -6.89536,50.00000,50.00000,7.984622e-09,0.78720,5
605.981,1272.62,      5.33349,     -6.88035,50.00000,50.00000,7.986671e-09,0.78719,5
609.194,1272.78,      5.27429,     -6.83554,50.00000,50.00000,7.987250e-09,0.78720,5
612.415,1272.94,      5.21042,     -6.80552,50.00000,50.00000,7.984064e-09,0.78720,5
615.647,1273.1,      5.14218,     -6.77550,50.00000,50.00000,7.976380e-09,0.78721,5
618.888,1273.26,      5.07782,     -6.74305,50.00000,50.00000,7.975863e-09,0.78720,5
622.117,1273.42,      5.01087,     -6.74305,50.00000,50.00000,7.973724e-09,0.78719,5
625.324,1273.58,      4.94318,     -6.71302,50.00000,50.00000,7.988015e-09,0.78720,5
628.554,1273.74,      4.87338,     -6.68300,50.00000,50.00000,7.984855e-09,0.78720,5
631.77,1273.9,      4.80289,     -6.62318,50.00000,50.00000,7.983583e-09,0.78720,5
635.011,1274.06,      4.73126,     -6.60066,50.00000,50.00000,7.968369e-09,0.78720,5
638.229,1274.22,      4.66345,     -6.60066,50.00000,50.00000,7.962546e-09,0.78719,5
641.447,1274.38,      4.59080,     -6.59316,50.00000,50.00000,7.972513e-09,0.78719,5
644.672,1274.54,      4.51790,     -6.53333,50.00000,50.00000,7.973289e-09,0.78719,5
647.898,1274.7,      4.44044,     -6.50331,50.00000,50.00000,7.967240e-09,0.78719,5
651.126,1274.86,      4.36236,     -6.47329,50.00000,50.00000,7.979571e-09,0.78719,5
654.353,1275.02,      4.28431,     -6.44327,50.00000,50.00000,7.979571e-09,0.78719,5
657.568,1275.18,      4.20459,     -6.44327,50.00000,50.00000,7.979684e-09,0.78719,5
660.779,1275.34,      4.12089,     -6.38344,50.00000,50.00000,7.970995e-09,0.78719,5
664,1275.5,      4.03325,     -6.38344,50.00000,50.00000,7.980433e-09,0.78720,5
667.225,1275.66,      3.94229,     -6.37594,50.00000,50.00000,7.980007e-09,0.78719,5
670.455,1275.82,      3.85503,     -6.34592,50.00000,50.00000,7.967420e-09,0.78720,5
673.668,1275.98,      3.76437,     -6.31589,50.00000,50.00000,7.975883e-09,0.78720,5
676.888,1276.14,      3.66902,     -6.28609,50.00000,50.00000,7.985117e-09,0.78720,5
680.102,1276.3,      3.57059,     -6.25607,50.00000,50.00000,7.972173e-09,0.78719,5
683.333,1276.46,      3.46845,     -6.23355,50.00000,50.00000,7.992182e-09,0.78719,5
686.559,1276.62,      3.36355,     -6.22605,50.00000,50.00000,7.989997e-09,0.78719,5
689.764,1276.78,      3.24963,     -6.19360,50.00000,50.00000,7.988924e-09,0.78719,5
692.989,1276.94,      3.14017,     -6.17108,50.00000,50.00000,7.967156e-09,0.78719,5
696.212,1277.1,      3.02273,     -6.15607,50.00000,50.00000,7.983554e-09,0.78720,5
699.424,1277.26,      2.90656,     -6.13355,50.00000,50.00000,7.971105e-09,0.78719,5
702.658,1277.42,      2.78623,     -6.10375,50.00000,50.00000,7.991501e-09,0.78719,5
705.874,1277.58,      2.66090,     -6.07373,50.00000,50.00000,7.988171e-09,0.78718,5
709.095,1277.74,      2.53827,     -6.04128,50.00000,50.00000,7.980389e-09,0.78719,5
712.332,1277.9,      2.40791,     -6.04128,50.00000,50.00000,7.974198e-09,0.78719,5
715.567,1278.06,      2.27427,     -5.98124,50.00000,50.00000,7.991281e-09,0.78719,5
718.793,1278.22,      2.13273,     -5.98124,50.00000,50.00000,7.995071e-09,0.78719,5
722.022,1278.38,      1.98751,     -5.95143,50.00000,50.00000,7.981970e-09,0.78719,5
725.256,1278.54,      1.83610,     -5.95143,50.00000,50.00000,7.981970e-09,0.78719,5
728.491,1278.7,      1.68343,     -5.92141,50.00000,50.00000,7.981720e-09,0.78720,5
731.712,1278.86,      1.52625,     -5.89139,50.00000,50.00000,7.981803e-09,0.78719,5
734.944,1279.02,      1.36029,     -5.86137,50.00000,50.00000,7.993425e-09,0.78720,5
738.179,1279.18,      1.19371,     -5.86137,50.00000,50.00000,8.004657e-09,0.78719,5
741.406,1279.34,      1.01105,     -5.83157,50.00000,50.00000,7.990752e-09,0.78719,5
744.63,1279.5,      0.83236,     -5.80155,50.00000,50.00000,7.989331e-09,0.78719,5
747.854,1279.66,      0.64829,     -5.74150,50.00000,50.00000,7.990144e-09,0.78719,5
751.071,1279.82,      0.46605,     -5.74150,50.00000,50.00000,7.997955e-09,0.78719,5
754.279,1279.98,      0.27839,     -5.71148,50.00000,50.00000,7.984406e-09,0.78719,5
757.501,1280.14, 9.367157e-02,     -5.70419,50.00000,50.00000,7.966325e-09,0.78720,5
760.724,1280.3,-9.065061e-02,     -5.70419,50.00000,50.00000,7.982171e-09,0.78720,5
763.945,1280.46,     -0.28006,     -5.66667,50.00000,50.00000,7.974932e-09,0.78721,5
767.173,1280.62,     -0.46431,     -5.64415,50.00000,50.00000,7.983991e-09,0.78721,5
770.404,1280.78,     -0.65147,     -5.61170,50.00000,50.00000,7.979936e-09,0.78720,5
773.631,1280.94,     -0.84265,     -5.55916,50.00000,50.00000,7.984759e-09,0.78721,5
776.855,1281.1,     -1.03455,     -5.58168,50.00000,50.00000,7.990742e-09,0.78720,5
780.078,1281.26,     -1.22049,     -5.54680,50.00000,50.00000,7.980571e-09,0.78721,5
783.31,1281.42,     -1.40713,     -5.51678,50.00000,50.00000,7.970304e-09,0.78720,5
786.519,1281.58,     -1.58882,     -5.48675,50.00000,50.00000,7.984156e-09,0.78720,5
789.75,1281.74,     -1.76897,     -5.45695,50.00000,50.00000,            ,0.44900,5
792.976,1281.9,     -1.95466,     -5.45695,50.00000,50.00000,            ,0.44770,5
794.898,1282,     -2.05940,     -5.42693,50.00000,50.00000,            ,0.44693,5