File: data/TGA/commercial_samples/ExpDat_2025_09_15_SL_PS_Petri-Dish-SCF3_Dynamic_P5EER7_V1_2.csv
#EXPORTTYPE:                 ,DATA ALL
#FILE:                       ,2025_09_15_SL_PS_Petri-Dish-SCF3_Dynamic_P5EER7_V1_2.ngb-ss5
#FORMAT:                     ,NETZSCH5
#FTYPE:                      ,ASCII
#IDENTITY:                   ,P5-EE-R7-V1+2
#DECIMAL:                    ,POINT
#SEPARATOR:                  ,COMMA
#MTYPE:                      ,DSC
#INSTRUMENT:                 ,NETZSCH STA 449F5
#PROJECT:                    ,PS-SCF3
#DATE/TIME:                  ,9/15/2025 7:24:08 PM (UTC-4)
#CORR. FILE:                 ,
#TEMPCAL:                    ,05-05-2025 14:38
#SENSITIVITY:                ,28-06-2023 13:53
#LABORATORY:                 ,Tran
#OPERATOR:                   ,Stanley
#REMARK:                     ,2025_03_20_Styrofoam_dynamic
#SAMPLE:                     ,P5-EE-R7-V1+2
#SAMPLE MASS /mg:            ,4.83
#MATERIAL:                   ,Polystyrene
#REFERENCE:                  ,
#REFERENCE MASS /mg:         ,0
#TYPE OF CRUCIBLE:           ,Al2O3 85 ‘l, open
#SAMPLE CRUCIBLE MASS /mg:   ,0
#REFERENCE CRUCIBLE MASS /mg:,0
#DSC RANGE /‘V:              ,5000
#TG RANGE /mg:               ,35000
#TAU-R:                      ,---
#CORR. CODE:                 ,000
#EXO:                        ,-1
#RANGE:                      ,20›C....800›C/0.0....20.0K/min
#SEGMENT:                    ,S1-4/4
#SEG. 1:                     ,20›C/5.0(K/min)/100›C
#SEG. 2:                     ,100›C/00:05/100›C
#SEG. 3:                     ,100›C/1.0(K/min)/400›C
#SEG. 4:                     ,400›C/20.0(K/min)/800›C

##Temp./›C,Time/min,DSC/(mW/mg),Mass/%,Gas Flow(purge2)/(ml/min),Gas Flow(protective)/(ml/min),TIC(scan:1)/A,Sensit./(uV/mW),Segment
 40.57000,  0.00000,      0.62729,    100,50.00000,53.00000,            ,0.92515,1
 49.07900,  1.00000,      0.24942,     97.05797,50.00000,49.00000,6.527852e-09,0.92559,1
 52.94100,  2.00000, 9.722168e-02,     86.02567,50.00000,48.00000,6.557578e-09,0.92583,1
 54.65800,  3.00000, 2.336595e-02,     86.45901,50.00000,48.00000,6.563639e-09,0.92596,1
 55.21700,  4.00000,-1.944292e-02,     85.88986,50.00000,48.00000,6.568787e-09,0.92604,1
 55.05000,  5.00000,-4.587865e-02,     85.28323,50.00000,48.00000,6.573732e-09,0.92609,1
 54.50100,  6.00000,-6.054709e-02,     84.76315,50.00000,48.00000,6.595365e-09,0.92612,1
 53.70000,  7.00000,-6.839437e-02,     84.40725,50.00000,48.00000,6.582233e-09,0.92614,1
 52.78500,  8.00000,-7.214917e-02,     84.07681,50.00000,48.00000,6.601311e-09,0.92615,1
 52.25600,  9.00000,-4.912396e-02,     84.25259,50.00000,48.00000,6.590455e-09,0.92616,1
 53.17200, 10.00000, 2.353767e-02,     85.19193,50.00000,48.00000,6.615601e-09,0.92616,1
 55.89800, 11.00000,      0.10642,     86.25052,50.00000,48.00000,6.620434e-09,0.92616,1
 60.11700, 12.00000,      0.17993,     87.20621,50.00000,48.00000,6.607612e-09,0.92616,1
 65.61100, 13.00000,      0.24938,     88.07060,50.00000,48.00000,6.619526e-09,0.92616,1
 72.03700, 14.00000,      0.30972,     88.82484,50.00000,48.00000,6.625961e-09,0.92615,1
 79.05100, 15.00000,      0.36308,     89.37764,50.00000,48.00000,6.628939e-09,0.92615,1
 86.43700, 16.00000,      0.40556,     89.78054,50.00000,48.00000,6.622111e-09,0.92614,1
 91.74800, 16.75000,      0.40360,     89.69151,50.00000,48.00000,6.641244e-09,0.92613,2
 95.82400, 17.50000,      0.33956,     89.17371,50.00000,48.00000,6.634533e-09,0.92612,2
 98.94800, 18.25000,      0.27913,     88.83188,50.00000,48.00000,6.637391e-09,0.92611,2
101.5, 19.00000,      0.22939,     88.54369,50.00000,48.00000,6.644273e-09,0.92611,2
103.467, 19.75000,      0.17871,     88.18530,50.00000,48.00000,6.641210e-09,0.92609,2
104.821, 20.50000,      0.12451,     87.81056,50.00000,48.00000,6.647153e-09,0.92609,2
105.701, 21.33333, 7.214842e-02,     87.43582,50.00000,48.00000,6.632193e-09,0.92607,3
106.365, 22.33333, 4.381328e-02,     87.18054,50.00000,48.00000,6.651025e-09,0.92607,3
106.832, 23.33333, 2.886938e-02,     86.95321,50.00000,48.00000,6.630799e-09,0.92607,3
107.11, 24.33333, 1.684193e-02,     86.80580,50.00000,48.00000,6.650721e-09,0.92608,3
107.321, 25.33333, 1.340568e-02,     86.72133,50.00000,48.00000,6.634154e-09,0.92610,3
107.576, 26.33333, 1.564122e-02,     86.66522,50.00000,48.00000,6.648659e-09,0.92613,3
107.898, 27.33333, 2.148737e-02,     86.61594,50.00000,48.00000,6.646023e-09,0.92616,3
108.316, 28.33333, 2.785133e-02,     86.59482,50.00000,48.00000,6.651775e-09,0.92618,3
108.817, 29.33333, 3.662523e-02,     86.60186,50.00000,48.00000,6.653098e-09,0.92620,3
109.428, 30.33333, 4.213595e-02,     86.59482,50.00000,48.00000,6.654726e-09,0.92620,3
110.135, 31.33333, 5.005881e-02,     86.62298,50.00000,48.00000,6.638085e-09,0.92617,3
110.931, 32.33333, 5.661069e-02,     86.62298,50.00000,48.00000,6.651499e-09,0.92612,3
111.806, 33.33333, 6.196313e-02,     86.61594,50.00000,48.00000,6.653157e-09,0.92602,3
112.708, 34.33333, 6.714750e-02,     86.64410,50.00000,48.00000,6.656884e-09,0.92588,3
113.67, 35.33333, 7.027019e-02,     86.64410,50.00000,48.00000,6.655087e-09,0.92569,3
114.653, 36.33333, 7.356822e-02,     86.64410,50.00000,48.00000,6.645720e-09,0.92545,3
115.669, 37.33333, 7.652519e-02,     86.65818,50.00000,48.00000,6.641277e-09,0.92516,3
116.689, 38.33333, 7.758834e-02,     86.63230,50.00000,48.00000,6.643678e-09,0.92487,3
117.715, 39.33333, 7.744554e-02,     86.66046,50.00000,48.00000,6.652754e-09,0.92447,3
118.748, 40.33333, 7.747587e-02,     86.63706,50.00000,48.00000,6.656041e-09,0.92401,3
119.782, 41.33333, 7.785197e-02,     86.60890,50.00000,48.00000,6.649411e-09,0.92359,3
120.802, 42.33333, 7.719228e-02,     86.64182,50.00000,48.00000,6.657430e-09,0.92320,3
121.831, 43.33333, 7.756937e-02,     86.64182,50.00000,48.00000,6.650037e-09,0.92281,3
122.86, 44.33333, 7.881140e-02,     86.63230,50.00000,48.00000,6.654844e-09,0.92245,3
123.881, 45.33333, 7.919016e-02,     86.64638,50.00000,48.00000,6.650759e-09,0.92211,3
124.905, 46.33333, 7.887789e-02,     86.64638,50.00000,48.00000,6.640179e-09,0.92180,3
125.923, 47.33333, 7.804648e-02,     86.63934,50.00000,48.00000,6.654766e-09,0.92151,3
126.919, 48.33333, 7.721407e-02,     86.63934,50.00000,48.00000,6.644173e-09,0.92124,3
127.929, 49.33333, 7.620864e-02,     86.65342,50.00000,48.00000,6.648737e-09,0.92102,3
128.927, 50.33333, 7.832137e-02,     86.65342,50.00000,48.00000,6.653607e-09,0.92077,3
129.943, 51.33333, 7.696992e-02,     86.65342,50.00000,48.00000,6.653017e-09,0.92054,3
130.942, 52.33333, 7.596398e-02,     86.68157,50.00000,48.00000,6.635869e-09,0.92032,3
131.952, 53.33333, 7.599901e-02,     86.65342,50.00000,48.00000,6.656010e-09,0.92014,3
132.945, 54.33333, 7.586031e-02,     86.70973,50.00000,48.00000,6.649937e-09,0.91998,3
133.938, 55.33333, 7.589556e-02,     86.69565,50.00000,48.00000,6.656183e-09,0.91984,3
134.933, 56.33333, 7.506255e-02,     86.72381,50.00000,48.00000,6.659962e-09,0.91972,3
135.936, 57.33333, 7.544633e-02,     86.70269,50.00000,48.00000,6.649555e-09,0.91962,3
136.935, 58.33333, 7.496112e-02,     86.70269,50.00000,48.00000,6.657108e-09,0.91953,3
137.942, 59.33333, 7.639025e-02,     86.73085,50.00000,48.00000,6.648434e-09,0.91946,3
138.935, 60.33333, 7.590562e-02,     86.75424,50.00000,48.00000,6.645469e-09,0.91939,3
139.93, 61.33333, 7.716282e-02,     86.76584,50.00000,48.00000,6.647586e-09,0.91932,3
140.934, 62.33333, 7.685361e-02,     86.76584,50.00000,48.00000,6.642772e-09,0.91927,3
141.929, 63.33333, 7.741595e-02,     86.80104,50.00000,48.00000,6.639086e-09,0.91921,3
142.934, 64.33333, 7.728188e-02,     86.80104,50.00000,48.00000,6.645046e-09,0.91918,3
143.942, 65.33333, 7.854455e-02,     86.81511,50.00000,48.00000,6.651779e-09,0.91915,3
144.947, 66.33333, 7.701467e-02,     86.87122,50.00000,48.00000,6.653603e-09,0.91913,3
145.938, 67.33333, 7.653138e-02,     86.87122,50.00000,48.00000,6.649469e-09,0.91910,3
146.924, 68.33333, 7.779597e-02,     86.86667,50.00000,48.00000,6.640821e-09,0.91908,3
147.938, 69.33333, 7.696451e-02,     86.89482,50.00000,48.00000,6.643432e-09,0.91905,3
148.943, 70.33333, 7.735727e-02,     86.91118,50.00000,48.00000,6.641568e-09,0.91903,3
149.944, 71.33333, 7.792581e-02,     86.93913,50.00000,48.00000,6.652669e-09,0.91899,3
150.952, 72.33333, 7.744442e-02,     86.92526,50.00000,48.00000,6.652375e-09,0.91896,3
151.955, 73.33333, 7.696266e-02,     86.93913,50.00000,48.00000,6.649469e-09,0.91892,3
152.945, 74.33333, 7.648018e-02,     86.93913,50.00000,48.00000,6.639983e-09,0.91887,3
153.948, 75.33333, 7.652465e-02,     86.96729,50.00000,48.00000,6.647507e-09,0.91883,3
154.938, 76.33333, 7.621774e-02,     86.98613,50.00000,48.00000,6.639357e-09,0.91878,3
155.939, 77.33333, 7.643852e-02,     86.99317,50.00000,48.00000,6.644184e-09,0.91872,3
156.955, 78.33333, 7.525401e-02,     86.99317,50.00000,48.00000,6.649568e-09,0.91865,3
157.956, 79.33333, 7.565117e-02,     87.02816,50.00000,48.00000,6.645123e-09,0.91859,3
158.952, 80.33333, 7.481669e-02,     87.02816,50.00000,48.00000,6.640171e-09,0.91852,3
159.946, 81.33333, 7.292459e-02,     87.04224,50.00000,48.00000,6.628404e-09,0.91845,3
160.963, 82.33333, 7.314664e-02,     87.04224,50.00000,48.00000,6.643958e-09,0.91837,3
161.961, 83.33333, 7.266300e-02,     87.03520,50.00000,48.00000,6.626729e-09,0.91828,3
162.955, 84.33333, 7.253188e-02,     87.06563,50.00000,48.00000,6.627279e-09,0.91819,3
163.956, 85.33333, 7.116515e-02,     87.09379,50.00000,48.00000,6.637797e-09,0.91810,3
164.956, 86.33333, 7.103389e-02,     87.07267,50.00000,48.00000,6.632494e-09,0.91800,3
165.958, 87.33333, 7.072608e-02,     87.08675,50.00000,48.00000,6.623424e-09,0.91789,3
166.958, 88.33333, 6.935654e-02,     87.10083,50.00000,48.00000,6.624615e-09,0.91779,3
167.945, 89.33333, 6.709975e-02,     87.10083,50.00000,48.00000,6.641291e-09,0.91768,3
168.943, 90.33333, 6.661242e-02,     87.11263,50.00000,48.00000,6.628456e-09,0.91756,3
169.954, 91.33333, 6.594805e-02,     87.11967,50.00000,48.00000,6.629561e-09,0.91744,3
170.956, 92.33333, 6.528272e-02,     87.13602,50.00000,48.00000,6.638929e-09,0.91732,3
171.953, 93.33333, 6.284139e-02,     87.15714,50.00000,48.00000,6.630712e-09,0.91719,3
172.966, 94.33333, 6.288468e-02,     87.15714,50.00000,48.00000,6.627869e-09,0.91709,3
173.974, 95.33333, 6.026167e-02,     87.17805,50.00000,48.00000,6.635434e-09,0.91697,3
174.962, 96.33333, 6.012489e-02,     87.15714,50.00000,48.00000,6.642211e-09,0.91684,3
175.957, 97.33333, 5.785239e-02,     87.17350,50.00000,48.00000,6.625615e-09,0.91670,3
176.941, 98.33333, 5.593282e-02,     87.18054,50.00000,48.00000,6.622768e-09,0.91657,3
177.941, 99.33333, 5.525925e-02,     87.17350,50.00000,48.00000,6.632539e-09,0.91644,3
178.949,100.333, 5.244469e-02,     87.18054,50.00000,48.00000,6.627041e-09,0.91630,3
179.944,101.333, 5.051841e-02,     87.19462,50.00000,48.00000,6.626256e-09,0.91616,3
180.958,102.333, 4.876891e-02,     87.19462,50.00000,48.00000,6.623103e-09,0.91602,3
181.94,103.333, 4.612213e-02,     87.22257,50.00000,48.00000,6.625464e-09,0.91588,3
182.939,104.333, 4.436680e-02,     87.19462,50.00000,48.00000,6.629723e-09,0.91574,3
183.939,105.333, 4.278815e-02,     87.22257,50.00000,48.00000,6.624936e-09,0.91561,3
184.936,106.333, 3.905733e-02,     87.21553,50.00000,48.00000,6.620223e-09,0.91547,3
185.955,107.333, 3.783190e-02,     87.24369,50.00000,48.00000,6.626696e-09,0.91533,3
186.944,108.333, 3.391248e-02,     87.23665,50.00000,48.00000,6.609959e-09,0.91519,3
187.939,109.333, 3.088533e-02,     87.26480,50.00000,48.00000,6.635859e-09,0.91504,3
188.958,110.333, 2.911220e-02,     87.23665,50.00000,48.00000,6.623867e-09,0.91489,3
189.954,111.333, 2.427864e-02,     87.27184,50.00000,48.00000,6.617837e-09,0.91475,3
190.947,112.333, 2.177748e-02,     87.27184,50.00000,48.00000,6.627104e-09,0.91459,3
191.959,113.333, 1.891263e-02,     87.28592,50.00000,48.00000,6.627532e-09,0.91445,3
192.936,114.333, 1.478110e-02,     87.25072,50.00000,48.00000,6.621494e-09,0.91430,3
193.956,115.333, 1.280850e-02,     87.27888,50.00000,48.00000,6.627025e-09,0.91415,3
194.953,116.333, 9.568796e-03,     87.30704,50.00000,48.00000,6.625292e-09,0.91399,3
195.937,117.333, 4.517107e-03,     87.30455,50.00000,48.00000,6.621014e-09,0.91386,3
196.944,118.333, 1.989124e-03,     87.29752,50.00000,48.00000,6.612542e-09,0.91372,3
197.937,119.333,-9.048681e-04,     87.29524,50.00000,48.00000,6.630441e-09,0.91356,3
198.943,120.333,-5.252499e-03,     87.29524,50.00000,48.00000,6.625944e-09,0.91341,3
199.952,121.333,-8.519646e-03,     87.30228,50.00000,48.00000,6.632184e-09,0.91326,3
200.941,122.333,-1.052210e-02,     87.29524,50.00000,48.00000,6.620148e-09,0.91310,3
201.963,123.333,-1.634110e-02,     87.30932,50.00000,48.00000,6.619621e-09,0.91294,3
202.956,124.333,-1.998884e-02,     87.29524,50.00000,48.00000,6.612359e-09,0.91278,3
203.94,125.333,-2.418808e-02,     87.30000,50.00000,48.00000,6.615967e-09,0.91262,3
204.951,126.333,-2.730283e-02,     87.32795,50.00000,48.00000,6.621107e-09,0.91247,3
205.953,127.333,-3.133359e-02,     87.30000,50.00000,48.00000,6.631702e-09,0.91231,3
206.956,128.333,-3.555364e-02,     87.29524,50.00000,48.00000,6.628743e-09,0.91218,3
207.957,129.333,-4.014588e-02,     87.32340,50.00000,48.00000,6.624529e-09,0.91202,3
208.952,130.333,-4.255425e-02,     87.28820,50.00000,48.00000,6.622815e-09,0.91186,3
209.934,131.333,-4.697706e-02,     87.26004,50.00000,48.00000,6.619516e-09,0.91170,3
210.951,132.333,-5.195792e-02,     87.31636,50.00000,48.00000,6.632589e-09,0.91154,3
211.943,133.333,-5.346746e-02,     87.31636,50.00000,48.00000,6.624990e-09,0.91137,3
212.941,134.333,-5.864543e-02,     87.28820,50.00000,48.00000,6.630370e-09,0.91121,3
213.943,135.333,-6.218202e-02,     87.30228,50.00000,48.00000,6.623714e-09,0.91105,3
214.948,136.333,-6.609241e-02,     87.30228,50.00000,48.00000,6.625132e-09,0.91088,3
215.94,137.333,-7.074418e-02,     87.30228,50.00000,48.00000,6.608871e-09,0.91075,3
216.935,138.333,-7.430110e-02,     87.27412,50.00000,48.00000,6.614143e-09,0.91058,3
217.937,139.333,-7.878547e-02,     87.29752,50.00000,48.00000,6.617755e-09,0.91041,3
218.944,140.333,-8.346280e-02,     87.28820,50.00000,48.00000,6.634209e-09,0.91024,3
219.936,141.333,-8.630361e-02,     87.28820,50.00000,48.00000,6.616530e-09,0.91008,3
220.936,142.333,-8.988877e-02,     87.26708,50.00000,48.00000,6.618081e-09,0.90990,3
221.941,143.333,-9.366592e-02,     87.26708,50.00000,48.00000,6.623403e-09,0.90973,3
222.949,144.333,-9.819026e-02,     87.23913,50.00000,48.00000,6.621773e-09,0.90956,3
223.963,145.333,     -0.10217,     87.23913,50.00000,48.00000,6.635033e-09,0.90939,3
224.941,146.333,     -0.10541,     87.23913,50.00000,48.00000,6.613720e-09,0.90922,3
225.948,147.333,     -0.10885,     87.31863,50.00000,48.00000,6.624160e-09,0.90905,3
226.946,148.333,     -0.11377,     87.22257,50.00000,48.00000,6.631029e-09,0.90888,3
227.946,149.333,     -0.11815,     87.23665,50.00000,48.00000,6.613060e-09,0.90873,3
228.951,150.333,     -0.12198,     87.23665,50.00000,48.00000,6.632061e-09,0.90856,3
229.947,151.333,     -0.12675,     87.18758,50.00000,48.00000,6.630563e-09,0.90838,3
230.946,152.333,     -0.12967,     87.21553,50.00000,48.00000,6.621299e-09,0.90821,3
231.946,153.333,     -0.13538,     87.18509,50.00000,48.00000,6.625045e-09,0.90803,3
232.938,154.333,     -0.14018,     87.21325,50.00000,48.00000,6.627021e-09,0.90785,3
233.933,155.333,     -0.14330,     87.15714,50.00000,48.00000,6.615042e-09,0.90767,3
234.932,156.333,     -0.14849,     87.17805,50.00000,48.00000,6.624159e-09,0.90749,3
235.939,157.333,     -0.15069,     87.15010,50.00000,48.00000,6.624773e-09,0.90731,3
236.929,158.333,     -0.15571,     87.12195,50.00000,48.00000,6.615160e-09,0.90712,3
237.931,159.333,     -0.15905,     87.11718,50.00000,48.00000,6.624759e-09,0.90695,3
238.952,160.333,     -0.16334,     87.11014,50.00000,48.00000,6.627452e-09,0.90679,3
239.929,161.333,     -0.16801,     87.06812,50.00000,48.00000,6.613626e-09,0.90661,3
240.938,162.333,     -0.17100,     87.06812,50.00000,48.00000,6.615026e-09,0.90643,3
241.943,163.333,     -0.17474,     87.03996,50.00000,48.00000,6.628051e-09,0.90624,3
242.94,164.333,     -0.18076,     87.04700,50.00000,48.00000,6.614760e-09,0.90605,3
243.934,165.333,     -0.18453,     87.02588,50.00000,48.00000,6.628364e-09,0.90586,3
244.93,166.333,     -0.18887,     86.98364,50.00000,48.00000,6.622372e-09,0.90568,3
245.941,167.333,     -0.19341,     86.96977,50.00000,48.00000,6.609766e-09,0.90549,3
246.929,168.333,     -0.19719,     86.92526,50.00000,48.00000,6.609801e-09,0.90531,3
247.931,169.333,     -0.19967,     86.93685,50.00000,48.00000,6.611768e-09,0.90511,3
248.932,170.333,     -0.20575,     86.93685,50.00000,48.00000,6.619223e-09,0.90492,3
249.928,171.333,     -0.20957,     86.90414,50.00000,48.00000,6.607991e-09,0.90476,3
250.935,172.333,     -0.21358,     86.86190,50.00000,48.00000,6.615106e-09,0.90457,3
251.93,173.333,     -0.21856,     86.84783,50.00000,48.00000,6.631766e-09,0.90437,3
252.931,174.333,     -0.22221,     86.85487,50.00000,48.00000,6.617985e-09,0.90418,3
253.923,175.333,     -0.22740,     86.81284,50.00000,48.00000,6.614679e-09,0.90398,3
254.93,176.333,     -0.23107,     86.81284,50.00000,48.00000,6.617571e-09,0.90379,3
255.929,177.333,     -0.23570,     86.77764,50.00000,48.00000,6.618716e-09,0.90360,3
256.934,178.333,     -0.24054,     86.77764,50.00000,48.00000,6.605945e-09,0.90340,3
257.93,179.333,     -0.24519,     86.72836,50.00000,48.00000,6.629069e-09,0.90320,3
258.939,180.333,     -0.24776,     86.70725,50.00000,48.00000,6.625735e-09,0.90300,3
259.923,181.333,     -0.23650,     86.69337,50.00000,48.00000,6.624172e-09,0.90280,3
260.948,182.333,     -0.24214,     86.69337,50.00000,48.00000,6.612725e-09,0.90260,3
261.928,183.333,     -0.24720,     86.66522,50.00000,48.00000,6.614900e-09,0.90240,3
262.929,184.333,     -0.25266,     86.65114,50.00000,48.00000,6.608969e-09,0.90220,3
263.917,185.333,     -0.25793,     86.65114,50.00000,48.00000,6.613238e-09,0.90203,3
264.931,186.333,     -0.26342,     86.62298,50.00000,48.00000,6.621179e-09,0.90183,3
265.93,187.333,     -0.26892,     86.62298,50.00000,48.00000,6.612489e-09,0.90162,3
266.925,188.333,     -0.27153,     86.59255,50.00000,48.00000,6.624400e-09,0.90142,3
267.937,189.333,     -0.26699,     86.58551,50.00000,48.00000,6.622658e-09,0.90121,3
268.937,190.333,     -0.27135,     86.58551,50.00000,48.00000,6.613503e-09,0.90101,3
269.934,191.333,     -0.27765,     86.54803,50.00000,48.00000,6.625476e-09,0.90080,3
270.924,192.333,     -0.28320,     86.54099,50.00000,48.00000,6.619986e-09,0.90060,3
271.916,193.333,     -0.28953,     86.52692,50.00000,48.00000,6.620985e-09,0.90039,3
272.934,194.333,     -0.29491,     86.51284,50.00000,48.00000,6.610148e-09,0.90018,3
273.921,195.333,     -0.30185,     86.48012,50.00000,48.00000,6.621288e-09,0.89997,3
274.933,196.333,     -0.30668,     86.45901,50.00000,48.00000,6.609843e-09,0.89976,3
275.924,197.333,     -0.31365,     86.48012,50.00000,48.00000,6.618275e-09,0.89958,3
276.938,198.333,     -0.31889,     86.45901,50.00000,48.00000,6.607035e-09,0.89937,3
277.92,199.333,     -0.32531,     86.43789,50.00000,48.00000,6.609094e-09,0.89916,3
278.938,200.333,     -0.33096,     86.40994,50.00000,48.00000,6.610219e-09,0.89895,3
279.932,201.333,     -0.33741,     86.40290,50.00000,48.00000,6.608448e-09,0.89873,3
280.935,202.333,     -0.34290,     86.36542,50.00000,48.00000,6.614233e-09,0.89852,3
281.929,203.333,     -0.34957,     86.37246,50.00000,48.00000,6.616253e-09,0.89830,3
282.928,204.333,     -0.35587,     86.34431,50.00000,48.00000,6.620050e-09,0.89809,3
283.933,205.333,     -0.36041,     86.31615,50.00000,48.00000,6.601779e-09,0.89788,3
284.936,206.333,     -0.36753,     86.33023,50.00000,48.00000,6.610771e-09,0.89765,3
285.921,207.333,     -0.37446,     86.28095,50.00000,48.00000,6.614990e-09,0.89747,3
286.923,208.333,     -0.38220,     86.27391,50.00000,48.00000,6.599904e-09,0.89725,3
287.931,209.333,     -0.38798,     86.25300,50.00000,48.00000,6.613235e-09,0.89704,3
288.923,210.333,     -0.39338,     86.23188,50.00000,48.00000,6.607746e-09,0.89682,3
289.918,211.333,     -0.40117,     86.22712,50.00000,48.00000,6.607173e-09,0.89659,3
290.923,212.333,     -0.40819,     86.19441,50.00000,48.00000,6.617491e-09,0.89638,3
291.913,213.333,     -0.41362,     86.19441,50.00000,48.00000,6.600186e-09,0.89615,3
292.92,214.333,     -0.42028,     86.14513,50.00000,48.00000,6.619107e-09,0.89593,3
293.917,215.333,     -0.42794,     86.13810,50.00000,48.00000,6.612214e-09,0.89574,3
294.915,216.333,     -0.43263,     86.11014,50.00000,48.00000,6.602142e-09,0.89552,3
295.921,217.333,     -0.43973,     86.08903,50.00000,48.00000,6.599495e-09,0.89530,3
296.926,218.333,     -0.44864,     86.06087,50.00000,48.00000,6.617098e-09,0.89507,3
297.916,219.333,     -0.45397,     86.06087,50.00000,48.00000,6.599038e-09,0.89484,3
298.909,220.333,     -0.46011,     86.05383,50.00000,48.00000,6.603710e-09,0.89462,3
299.921,221.333,     -0.46668,     85.97412,50.00000,48.00000,6.619476e-09,0.89439,3
300.913,222.333,     -0.47527,     85.97184,50.00000,48.00000,6.614816e-09,0.89416,3
301.914,223.333,     -0.48066,     85.94369,50.00000,48.00000,6.602456e-09,0.89393,3
302.934,224.333,     -0.48729,     85.93665,50.00000,48.00000,6.600083e-09,0.89370,3
303.925,225.333,     -0.49371,     85.90870,50.00000,48.00000,6.609197e-09,0.89346,3
304.923,226.333,     -0.50056,     85.84762,50.00000,48.00000,6.608071e-09,0.89328,3
305.922,227.333,     -0.50762,     85.81967,50.00000,48.00000,6.622869e-09,0.89305,3
306.919,228.333,     -0.51511,     85.79151,50.00000,48.00000,6.609201e-09,0.89281,3
307.909,229.333,     -0.52200,     85.76335,50.00000,48.00000,6.603606e-09,0.89258,3
308.925,230.333,     -0.52954,     85.70021,50.00000,48.00000,6.603087e-09,0.89235,3
309.907,231.333,     -0.53626,     85.68613,50.00000,48.00000,6.609140e-09,0.89212,3
310.947,232.333,     -0.54120,     85.63685,50.00000,48.00000,6.596612e-09,0.89188,3
311.935,233.333,     -0.55101,     85.57371,50.00000,48.00000,6.595907e-09,0.89165,3
312.933,234.333,     -0.55779,     85.57371,50.00000,48.00000,6.602558e-09,0.89141,3
313.935,235.333,     -0.56480,     85.48923,50.00000,48.00000,6.595452e-09,0.89121,3
314.935,236.333,     -0.56937,     85.46128,50.00000,48.00000,6.590977e-09,0.89097,3
315.927,237.333,     -0.57865,     85.39089,50.00000,48.00000,6.600686e-09,0.89073,3
316.94,238.333,     -0.58531,     85.32774,50.00000,48.00000,6.594036e-09,0.89050,3
317.919,239.333,     -0.59422,     85.26915,50.00000,48.00000,6.587614e-09,0.89026,3
318.924,240.333,     -0.59926,     85.19896,50.00000,48.00000,6.592224e-09,0.89002,3
319.919,241.333,     -0.60555,     85.14969,50.00000,48.00000,6.608805e-09,0.88978,3
320.932,242.333,     -0.61248,     85.06294,50.00000,48.00000,6.599705e-09,0.88954,3
321.921,243.333,     -0.61859,     84.97867,50.00000,48.00000,6.590796e-09,0.88928,3
322.933,244.333,     -0.62576,     84.92257,50.00000,48.00000,6.605794e-09,0.88908,3
323.937,245.333,     -0.63460,     84.81718,50.00000,48.00000,6.580791e-09,0.88884,3
324.933,246.333,     -0.64221,     84.73271,50.00000,48.00000,6.597071e-09,0.88859,3
325.932,247.333,     -0.64860,     84.64617,50.00000,48.00000,6.583270e-09,0.88835,3
326.927,248.333,     -0.65666,     84.53375,50.00000,48.00000,6.596049e-09,0.88810,3
327.924,249.333,     -0.66184,     84.44928,50.00000,48.00000,6.601501e-09,0.88786,3
328.932,250.333,     -0.66953,     84.31346,50.00000,48.00000,6.590898e-09,0.88762,3
329.918,251.333,     -0.67640,     84.20104,50.00000,48.00000,6.608297e-09,0.88737,3
330.931,252.333,     -0.68247,     84.05342,50.00000,48.00000,6.597375e-09,0.88712,3
331.911,253.333,     -0.68894,     83.90828,50.00000,48.00000,6.592810e-09,0.88688,3
332.926,254.333,     -0.69505,     83.76542,50.00000,48.00000,6.610991e-09,0.88663,3
333.929,255.333,     -0.70387,     83.63188,50.00000,48.00000,6.602464e-09,0.88638,3
334.926,256.333,     -0.70916,     83.45611,50.00000,48.00000,6.593176e-09,0.88618,3
335.935,257.333,     -0.71594,     83.28758,50.00000,48.00000,6.587516e-09,0.88592,3
336.93,258.333,     -0.72146,     83.08385,50.00000,48.00000,6.587034e-09,0.88567,3
337.933,259.333,     -0.72784,     82.85901,50.00000,48.00000,6.591738e-09,0.88542,3
338.932,260.333,     -0.73593,     82.61760,50.00000,48.00000,6.598377e-09,0.88517,3
339.932,261.333,     -0.73981,     82.39275,50.00000,48.00000,6.599769e-09,0.88491,3
340.934,262.333,     -0.74730,     82.11180,50.00000,48.00000,6.603916e-09,0.88466,3
341.924,263.333,     -0.75247,     81.85880,50.00000,48.00000,6.603455e-09,0.88441,3
342.928,264.333,     -0.75809,     81.54948,50.00000,48.00000,6.597308e-09,0.88415,3
343.926,265.333,     -0.76478,     81.21222,50.00000,48.00000,6.595557e-09,0.88389,3
344.923,266.333,     -0.76873,     80.86563,50.00000,48.00000,6.604895e-09,0.88364,3
345.934,267.333,     -0.77525,     80.46977,50.00000,48.00000,6.587279e-09,0.88338,3
346.915,268.333,     -0.78027,     80.06211,50.00000,48.00000,6.594102e-09,0.88313,3
347.92,269.333,     -0.78426,     79.62422,50.00000,48.00000,6.596192e-09,0.88291,3
348.933,270.333,     -0.78784,     79.14161,50.00000,48.00000,6.590601e-09,0.88264,3
349.925,271.333,     -0.79355,     78.64969,50.00000,48.00000,6.602844e-09,0.88239,3
350.929,272.333,     -0.80077,     78.06646,50.00000,48.00000,6.592020e-09,0.88213,3
351.934,273.333,     -0.80802,     77.46915,50.00000,48.00000,6.583996e-09,0.88187,3
352.932,274.333,     -0.81571,     76.83209,50.00000,48.00000,6.583591e-09,0.88160,3
353.933,275.333,     -0.82192,     76.12712,50.00000,48.00000,6.586743e-09,0.88134,3
354.919,276.333,     -0.82770,     75.37516,50.00000,48.00000,6.591259e-09,0.88108,3
355.933,277.333,     -0.83761,     74.56004,50.00000,48.00000,6.584819e-09,0.88081,3
356.932,278.333,     -0.84753,     73.66066,50.00000,48.00000,6.602285e-09,0.88055,3
357.909,279.333,     -0.85616,     72.78468,50.00000,48.00000,6.601414e-09,0.88028,3
358.921,280.333,     -0.86917,     71.72816,50.00000,48.00000,6.592014e-09,0.88007,3
359.932,281.333,     -0.88156,     70.68820,50.00000,48.00000,6.590003e-09,0.87980,3
360.93,282.333,     -0.89571,     69.52174,50.00000,48.00000,6.598396e-09,0.87953,3
361.926,283.333,     -0.91248,     68.29213,50.00000,48.00000,6.591510e-09,0.87926,3
362.932,284.333,     -0.92650,     66.98509,50.00000,48.00000,6.583076e-09,0.87899,3
363.923,285.333,     -0.90574,     65.56087,50.00000,48.00000,6.579291e-09,0.87873,3
364.92,286.333,     -0.89386,     64.06190,50.00000,48.00000,6.598374e-09,0.87846,3
365.918,287.333,     -0.92337,     62.43147,50.00000,48.00000,6.582738e-09,0.87819,3
366.911,288.333,     -0.96103,     60.72174,50.00000,48.00000,6.595625e-09,0.87792,3
367.922,289.333,     -0.99684,     58.90166,50.00000,48.00000,6.586472e-09,0.87765,3
368.932,290.333,     -1.03493,     57.00435,50.00000,48.00000,6.578480e-09,0.87737,3
369.925,291.333,     -1.06236,     54.99938,50.00000,48.00000,6.580348e-09,0.87710,3
370.922,292.333,     -1.11071,     52.85859,50.00000,48.00000,6.579762e-09,0.87683,3
371.918,293.333,     -0.97134,     50.74803,50.00000,48.00000,6.588325e-09,0.87657,3
372.912,294.333,     -0.96491,     48.46667,50.00000,48.00000,6.589927e-09,0.87629,3
373.925,295.333,     -0.99815,     46.08923,50.00000,48.00000,6.584188e-09,0.87606,3
374.92,296.333,     -0.96946,     43.64141,50.00000,48.00000,6.590422e-09,0.87578,3
375.923,297.333,     -0.99482,     41.04389,50.00000,48.00000,6.585383e-09,0.87551,3
376.928,298.333,     -1.03883,     38.45093,50.00000,48.00000,6.586283e-09,0.87523,3
377.921,299.333,     -1.05924,     35.78302,50.00000,48.00000,6.582539e-09,0.87496,3
378.917,300.333,     -1.02539,     33.07536,50.00000,48.00000,6.592838e-09,0.87468,3
379.933,301.333,     -1.06008,     30.27391,50.00000,48.00000,6.594461e-09,0.87441,3
380.924,302.333,     -1.10705,     27.50518,50.00000,48.00000,6.583520e-09,0.87412,3
381.918,303.333,     -1.04328,     24.74141,50.00000,48.00000,6.587083e-09,0.87385,3
382.921,304.333,     -1.05270,     22.00083,50.00000,48.00000,6.599080e-09,0.87357,3
383.933,305.333,     -1.08381,     19.30476,50.00000,48.00000,6.593553e-09,0.87329,3
384.923,306.333,     -1.11944,     16.68385,50.00000,48.00000,6.579299e-09,0.87300,3
385.92,307.333,     -1.14890,     14.14244,50.00000,48.00000,6.584080e-09,0.87272,3
386.928,308.333,     -1.16658,     11.74617,50.00000,48.00000,6.594476e-09,0.87244,3
387.934,309.333,     -1.20361,      9.46480,50.00000,48.00000,6.593172e-09,0.87217,3
388.936,310.333,     -1.24364,      7.33561,50.00000,48.00000,6.585522e-09,0.87187,3
389.922,311.333,     -1.28219,      5.35155,50.00000,48.00000,6.569290e-09,0.87160,3
390.926,312.333,     -1.31973,      3.54348,50.00000,48.00000,6.589006e-09,0.87131,3
391.921,313.333,     -1.35962,      1.88261,50.00000,48.00000,6.591493e-09,0.87103,3
392.932,314.333,     -1.39783,      0.43271,50.00000,48.00000,6.585275e-09,0.87074,3
393.926,315.333,     -1.43340,     -0.86729,50.00000,48.00000,6.582936e-09,0.87046,3
394.938,316.333,     -1.47634,     -2.02899,50.00000,48.00000,6.588303e-09,0.87017,3
395.923,317.333,     -1.52320,     -3.06190,50.00000,48.00000,6.583041e-09,0.86988,3
396.928,318.333,     -1.57477,     -3.96377,50.00000,48.00000,6.585791e-09,0.86959,3
397.931,319.333,     -1.62988,     -4.74369,50.00000,48.00000,6.592931e-09,0.86935,3
398.925,320.333,     -1.68831,     -5.40435,50.00000,48.00000,6.589701e-09,0.86907,3
399.621,321.025,     -1.72749,     -5.81656,50.00000,48.00000,6.577055e-09,0.86883,4
399.71,321.1,     -1.73705,     -5.84472,50.00000,48.00000,6.577055e-09,0.86883,4
399.841,321.175,     -1.73735,     -5.91014,50.00000,48.00000,6.577055e-09,0.86883,4
400.045,321.25,     -1.71069,     -5.91014,50.00000,48.00000,6.573984e-09,0.86878,4
400.384,321.325,     -1.64917,     -5.91014,50.00000,48.00000,6.573984e-09,0.86878,4
400.843,321.4,     -1.54903,     -5.84928,50.00000,48.00000,6.586274e-09,0.86873,4
401.462,321.475,     -1.40246,     -5.82112,50.00000,48.00000,6.586274e-09,0.86873,4
402.214,321.55,     -1.22270,     -5.73458,50.00000,48.00000,6.580161e-09,0.86868,4
403.153,321.625,     -1.00459,     -5.65714,50.00000,48.00000,6.580161e-09,0.86868,4
404.214,321.7,     -0.76518,     -5.56832,50.00000,48.00000,6.580161e-09,0.86868,4
405.404,321.775,     -0.50910,     -5.49793,50.00000,48.00000,6.583609e-09,0.86863,4
406.707,321.85,     -0.24533,     -5.42298,50.00000,48.00000,6.583609e-09,0.86863,4
408.116,321.925, 1.383448e-02,     -5.39482,50.00000,48.00000,6.569710e-09,0.86859,4
409.568,322,      0.25759,     -5.33644,50.00000,48.00000,6.569710e-09,0.86859,4
411.084,322.075,      0.48336,     -5.31532,50.00000,48.00000,6.576847e-09,0.86855,4
412.632,322.15,      0.68109,     -5.30828,50.00000,48.00000,6.576847e-09,0.86855,4
414.179,322.225,      0.85057,     -5.30828,50.00000,48.00000,6.587054e-09,0.86850,4
415.704,322.3,      0.98509,     -5.33644,50.00000,48.00000,6.587054e-09,0.86850,4
417.225,322.375,      1.08421,     -5.33644,50.00000,48.00000,6.582833e-09,0.86844,4
418.699,322.45,      1.15115,     -5.39255,50.00000,48.00000,6.582833e-09,0.86844,4
420.154,322.525,      1.19066,     -5.42070,50.00000,48.00000,6.582833e-09,0.86844,4
421.544,322.6,      1.19993,     -5.49793,50.00000,48.00000,6.587941e-09,0.86840,4
422.908,322.675,      1.18873,     -5.57992,50.00000,48.00000,6.587941e-09,0.86840,4
424.222,322.75,      1.15973,     -5.65031,50.00000,48.00000,6.584132e-09,0.86835,4
425.529,322.825,      1.11645,     -5.71118,50.00000,48.00000,6.584132e-09,0.86835,4
426.774,322.9,      1.06796,     -5.80725,50.00000,48.00000,6.595071e-09,0.86831,4
428.014,322.975,      1.01551,     -5.85155,50.00000,48.00000,6.595071e-09,0.86831,4
429.244,323.05,      0.96927,     -5.94058,50.00000,48.00000,6.574012e-09,0.86825,4
430.475,323.125,      0.92311,     -5.99213,50.00000,48.00000,6.574012e-09,0.86825,4
431.701,323.2,      0.88822,     -6.06253,50.00000,48.00000,6.574012e-09,0.86825,4
432.946,323.275,      0.86158,     -6.14907,50.00000,48.00000,6.577613e-09,0.86819,4
434.193,323.35,      0.84989,     -6.16315,50.00000,48.00000,6.577613e-09,0.86819,4
435.491,323.425,      0.84754,     -6.23106,50.00000,48.00000,6.580918e-09,0.86816,4
436.786,323.5,      0.85788,     -6.28489,50.00000,48.00000,6.580918e-09,0.86816,4
438.129,323.575,      0.88079,     -6.34120,50.00000,48.00000,6.594504e-09,0.86810,4
439.496,323.65,      0.91319,     -6.39752,50.00000,48.00000,6.594504e-09,0.86810,4
440.895,323.725,      0.95298,     -6.39752,50.00000,48.00000,6.584171e-09,0.86805,4
442.325,323.8,      0.99995,     -6.44886,50.00000,48.00000,6.584171e-09,0.86805,4
443.778,323.875,      1.05270,     -6.51925,50.00000,48.00000,6.584171e-09,0.86805,4
445.256,323.95,      1.10640,     -6.54741,50.00000,48.00000,6.581825e-09,0.86800,4
446.765,324.025,      1.15770,     -6.57536,50.00000,48.00000,6.581825e-09,0.86800,4
448.285,324.1,      1.21262,     -6.60352,50.00000,48.00000,6.594302e-09,0.86796,4
449.817,324.175,      1.26143,     -6.64803,50.00000,48.00000,6.594302e-09,0.86796,4
451.371,324.25,      1.30633,     -6.66915,50.00000,48.00000,6.592623e-09,0.86791,4
452.935,324.325,      1.34652,     -6.74886,50.00000,48.00000,6.592623e-09,0.86791,4
454.484,324.4,      1.38047,     -6.75569,50.00000,48.00000,6.586499e-09,0.86785,4
456.051,324.475,      1.40868,     -6.81429,50.00000,48.00000,6.586499e-09,0.86785,4
457.616,324.55,      1.42788,     -6.84472,50.00000,48.00000,6.586499e-09,0.86785,4
459.182,324.625,      1.44147,     -6.84472,50.00000,48.00000,6.592806e-09,0.86781,4
460.745,324.7,      1.45040,     -6.87288,50.00000,48.00000,6.592806e-09,0.86781,4
462.299,324.775,      1.45340,     -6.88696,50.00000,48.00000,6.588020e-09,0.86776,4
463.857,324.85,      1.45119,     -6.90104,50.00000,48.00000,6.588020e-09,0.86776,4
465.425,324.925,      1.44599,     -6.92215,50.00000,48.00000,6.588948e-09,0.86771,4
466.955,325,      1.43320,     -6.95714,50.00000,48.00000,6.588948e-09,0.86771,4
468.513,325.075,      1.42391,     -6.95714,50.00000,48.00000,6.586045e-09,0.86767,4
470.069,325.15,      1.40755,     -6.95714,50.00000,48.00000,6.586045e-09,0.86767,4
471.613,325.225,      1.39436,     -6.95010,50.00000,48.00000,6.586045e-09,0.86767,4
473.166,325.3,      1.38288,     -6.94327,50.00000,48.00000,6.572439e-09,0.86761,4
474.715,325.375,      1.37133,     -6.92919,50.00000,48.00000,6.572439e-09,0.86761,4
476.252,325.45,      1.36198,     -6.92919,50.00000,48.00000,6.581987e-09,0.86757,4
477.817,325.525,      1.35314,     -6.90104,50.00000,48.00000,6.581987e-09,0.86757,4
479.37,325.6,      1.34474,     -6.90104,50.00000,48.00000,6.591240e-09,0.86752,4
480.927,325.675,      1.34113,     -6.88696,50.00000,48.00000,6.591240e-09,0.86752,4
482.485,325.75,      1.33878,     -6.87288,50.00000,48.00000,6.589133e-09,0.86746,4
484.058,325.825,      1.33617,     -6.86584,50.00000,48.00000,6.589133e-09,0.86746,4
485.634,325.9,      1.33534,     -6.84472,50.00000,48.00000,6.589133e-09,0.86746,4
487.207,325.975,      1.33167,     -6.81677,50.00000,48.00000,6.584650e-09,0.86743,4
488.787,326.05,      1.33261,     -6.81677,50.00000,48.00000,6.584650e-09,0.86743,4
490.364,326.125,      1.33149,     -6.78861,50.00000,48.00000,6.582514e-09,0.86737,4
491.942,326.2,      1.32622,     -6.78861,50.00000,48.00000,6.582514e-09,0.86737,4
493.53,326.275,      1.32533,     -6.76046,50.00000,48.00000,6.597365e-09,0.86732,4
495.112,326.35,      1.32028,     -6.76046,50.00000,48.00000,6.597365e-09,0.86732,4
496.698,326.425,      1.31494,     -6.73230,50.00000,48.00000,6.597365e-09,0.86732,4
498.261,326.5,      1.30771,     -6.70435,50.00000,48.00000,6.574886e-09,0.86728,4
499.845,326.575,      1.30101,     -6.70435,50.00000,48.00000,6.574886e-09,0.86728,4
501.429,326.65,      1.29348,     -6.70435,50.00000,48.00000,6.581890e-09,0.86723,4
503.016,326.725,      1.28277,     -6.67619,50.00000,48.00000,6.581890e-09,0.86723,4
504.591,326.8,      1.27462,     -6.67619,50.00000,48.00000,6.586664e-09,0.86718,4
506.171,326.875,      1.26459,     -6.67619,50.00000,48.00000,6.586664e-09,0.86718,4
507.748,326.95,      1.25292,     -6.64803,50.00000,48.00000,6.577237e-09,0.86713,4
509.328,327.025,      1.23963,     -6.61988,50.00000,48.00000,6.577237e-09,0.86713,4
510.897,327.1,      1.23021,     -6.61988,50.00000,48.00000,6.577237e-09,0.86713,4
512.491,327.175,      1.21761,     -6.59193,50.00000,48.00000,6.575023e-09,0.86708,4
514.065,327.25,      1.20625,     -6.56377,50.00000,48.00000,6.575023e-09,0.86708,4
515.643,327.325,      1.19696,     -6.56377,50.00000,48.00000,6.582813e-09,0.86703,4
517.212,327.4,      1.18442,     -6.56377,50.00000,48.00000,6.582813e-09,0.86703,4
518.792,327.475,      1.16997,     -6.56377,50.00000,48.00000,6.580713e-09,0.86698,4
520.367,327.55,      1.15945,     -6.53561,50.00000,48.00000,6.580713e-09,0.86698,4
521.93,327.625,      1.14592,     -6.50745,50.00000,48.00000,6.592282e-09,0.86694,4
523.501,327.7,      1.13287,     -6.53561,50.00000,48.00000,6.592282e-09,0.86694,4
525.08,327.775,      1.11763,     -6.50745,50.00000,48.00000,6.592282e-09,0.86694,4
526.635,327.85,      1.10255,     -6.47930,50.00000,48.00000,6.586883e-09,0.86688,4
528.217,327.925,      1.08906,     -6.47930,50.00000,48.00000,6.586883e-09,0.86688,4
529.784,328,      1.07603,     -6.47930,50.00000,48.00000,6.581405e-09,0.86684,4
531.346,328.075,      1.06158,     -6.45135,50.00000,48.00000,6.581405e-09,0.86684,4
532.917,328.15,      1.04545,     -6.44431,50.00000,48.00000,6.575333e-09,0.86679,4
534.48,328.225,      1.03304,     -6.42319,50.00000,48.00000,6.575333e-09,0.86679,4
536.043,328.3,      1.02194,     -6.42319,50.00000,48.00000,6.578790e-09,0.86673,4
537.606,328.375,      1.00670,     -6.39503,50.00000,48.00000,6.578790e-09,0.86673,4
539.175,328.45,      0.99413,     -6.36687,50.00000,48.00000,6.578790e-09,0.86673,4
540.745,328.525,      0.98287,     -6.36687,50.00000,48.00000,6.572362e-09,0.86669,4
542.311,328.6,      0.96937,     -6.34596,50.00000,48.00000,6.572362e-09,0.86669,4
543.875,328.675,      0.95690,     -6.34596,50.00000,48.00000,6.574155e-09,0.86664,4
545.434,328.75,      0.94079,     -6.34596,50.00000,48.00000,6.574155e-09,0.86664,4
547.004,328.825,      0.92738,     -6.33892,50.00000,48.00000,6.587007e-09,0.86659,4
548.555,328.9,      0.91528,     -6.31077,50.00000,48.00000,6.587007e-09,0.86659,4
550.107,328.975,      0.89924,     -6.31077,50.00000,48.00000,6.587007e-09,0.86659,4
551.681,329.05,      0.88400,     -6.28261,50.00000,48.00000,6.593642e-09,0.86655,4
553.22,329.125,      0.86781,     -6.25445,50.00000,48.00000,6.593642e-09,0.86655,4
554.793,329.2,      0.85495,     -6.25445,50.00000,48.00000,6.580871e-09,0.86650,4
556.339,329.275,      0.83920,     -6.24058,50.00000,48.00000,6.580871e-09,0.86650,4
557.886,329.35,      0.82507,     -6.24058,50.00000,48.00000,6.592745e-09,0.86644,4
559.435,329.425,      0.81061,     -6.22650,50.00000,48.00000,6.592745e-09,0.86644,4
560.99,329.5,      0.79581,     -6.19834,50.00000,48.00000,6.575675e-09,0.86640,4
562.549,329.575,      0.78067,     -6.19834,50.00000,48.00000,6.575675e-09,0.86640,4
564.094,329.65,      0.76968,     -6.19834,50.00000,48.00000,6.575675e-09,0.86640,4
565.651,329.725,      0.75245,     -6.19834,50.00000,48.00000,6.599913e-09,0.86635,4
567.204,329.8,      0.74137,     -6.17019,50.00000,48.00000,6.599913e-09,0.86635,4
568.751,329.875,      0.72797,     -6.17019,50.00000,48.00000,6.583520e-09,0.86630,4
570.305,329.95,      0.71282,     -6.17019,50.00000,48.00000,6.583520e-09,0.86630,4
571.859,330.025,      0.69874,     -6.14203,50.00000,48.00000,6.587366e-09,0.86626,4
573.402,330.1,      0.68261,     -6.14203,50.00000,48.00000,6.587366e-09,0.86626,4
574.953,330.175,      0.66984,     -6.11408,50.00000,48.00000,6.582816e-09,0.86621,4
576.492,330.25,      0.65644,     -6.14203,50.00000,48.00000,6.582816e-09,0.86621,4
578.039,330.325,      0.64128,     -6.14203,50.00000,48.00000,6.582816e-09,0.86621,4
579.579,330.4,      0.62921,     -6.08592,50.00000,48.00000,6.574747e-09,0.86616,4
581.121,330.475,      0.61537,     -6.08592,50.00000,48.00000,6.574747e-09,0.86616,4
582.663,330.55,      0.60263,     -6.08592,50.00000,48.00000,6.577847e-09,0.86611,4
584.211,330.625,      0.59272,     -6.08592,50.00000,48.00000,6.577847e-09,0.86611,4
585.756,330.7,      0.57902,     -6.05776,50.00000,48.00000,6.581958e-09,0.86606,4
587.294,330.775,      0.56873,     -6.05776,50.00000,48.00000,6.581958e-09,0.86606,4
588.835,330.85,      0.55754,     -6.05776,50.00000,48.00000,6.586176e-09,0.86601,4
590.387,330.925,      0.54457,     -6.05072,50.00000,48.00000,6.586176e-09,0.86601,4
591.935,331,      0.53504,     -6.02961,50.00000,48.00000,6.586176e-09,0.86601,4
593.476,331.075,      0.52051,     -6.02961,50.00000,48.00000,6.590888e-09,0.86597,4
595.021,331.15,      0.51118,     -6.02961,50.00000,48.00000,6.590888e-09,0.86597,4
596.555,331.225,      0.49889,     -6.02961,50.00000,48.00000,6.586840e-09,0.86592,4
598.105,331.3,      0.48627,     -6.00166,50.00000,48.00000,6.586840e-09,0.86592,4
599.636,331.375,      0.47799,     -5.97350,50.00000,48.00000,6.577330e-09,0.86587,4
601.176,331.45,      0.46293,     -6.00166,50.00000,48.00000,6.577330e-09,0.86587,4
602.706,331.525,      0.45193,     -5.97101,50.00000,48.00000,6.588026e-09,0.86582,4
604.242,331.6,      0.44148,     -5.97101,50.00000,48.00000,6.588026e-09,0.86582,4
605.782,331.675,      0.42863,     -5.97101,50.00000,48.00000,6.588026e-09,0.86582,4
607.316,331.75,      0.41928,     -5.97101,50.00000,48.00000,6.590703e-09,0.86577,4
608.856,331.825,      0.40812,     -5.99917,50.00000,48.00000,6.590703e-09,0.86577,4
610.388,331.9,      0.39900,     -5.97101,50.00000,48.00000,6.571068e-09,0.86572,4
611.919,331.975,      0.39193,     -5.97101,50.00000,48.00000,6.571068e-09,0.86572,4
613.447,332.05,      0.38036,     -5.99917,50.00000,48.00000,6.587577e-09,0.86567,4
614.985,332.125,      0.36726,     -5.99917,50.00000,48.00000,6.587577e-09,0.86567,4
616.522,332.2,      0.35620,     -5.97101,50.00000,48.00000,6.572831e-09,0.86561,4
618.057,332.275,      0.34661,     -5.97101,50.00000,48.00000,6.572831e-09,0.86561,4
619.579,332.35,      0.33518,     -5.97101,50.00000,48.00000,6.572831e-09,0.86561,4
621.112,332.425,      0.32341,     -5.97101,50.00000,48.00000,6.583162e-09,0.86557,4
622.647,332.5,      0.31040,     -5.97101,50.00000,48.00000,6.583162e-09,0.86557,4
624.178,332.575,      0.29764,     -5.97101,50.00000,48.00000,6.584149e-09,0.86552,4
625.71,332.65,      0.28514,     -5.97101,50.00000,48.00000,6.584149e-09,0.86552,4
627.232,332.725,      0.27351,     -5.97101,50.00000,48.00000,6.585728e-09,0.86547,4
628.768,332.8,      0.25730,     -5.97101,50.00000,48.00000,6.585728e-09,0.86547,4
630.294,332.875,      0.24436,     -5.99917,50.00000,48.00000,6.596001e-09,0.86542,4
631.826,332.95,      0.22714,     -5.99917,50.00000,48.00000,6.596001e-09,0.86542,4
633.349,333.025,      0.21259,     -5.97101,50.00000,48.00000,6.596001e-09,0.86542,4
634.873,333.1,      0.19313,     -5.97101,50.00000,48.00000,6.586210e-09,0.86537,4
636.407,333.175,      0.17848,     -5.97101,50.00000,48.00000,6.586210e-09,0.86537,4
637.924,333.25,      0.15829,     -5.97101,50.00000,48.00000,6.583051e-09,0.86534,4
639.455,333.325,      0.14293,     -5.94306,50.00000,48.00000,6.583051e-09,0.86534,4
640.987,333.4,      0.12322,     -5.97101,50.00000,48.00000,6.596169e-09,0.86528,4
642.512,333.475,      0.10561,     -5.97101,50.00000,48.00000,6.596169e-09,0.86528,4
644.03,333.55, 8.609281e-02,     -5.94306,50.00000,48.00000,6.596169e-09,0.86528,4
645.555,333.625, 6.590087e-02,     -5.94306,50.00000,48.00000,6.585437e-09,0.86523,4
647.074,333.7, 4.965550e-02,     -5.94306,50.00000,48.00000,6.585437e-09,0.86523,4
648.596,333.775, 3.428689e-02,     -5.94306,50.00000,48.00000,6.583125e-09,0.86518,4
650.12,333.85, 1.423068e-02,     -5.91491,50.00000,48.00000,6.583125e-09,0.86518,4
651.647,333.925, 3.718016e-03,     -5.91491,50.00000,48.00000,6.583001e-09,0.86513,4
653.169,334,-1.334310e-02,     -5.88675,50.00000,48.00000,6.583001e-09,0.86513,4
654.695,334.075,-2.641590e-02,     -5.88675,50.00000,48.00000,6.577432e-09,0.86508,4
656.217,334.15,-3.766056e-02,     -5.90083,50.00000,48.00000,6.577432e-09,0.86508,4
657.742,334.225,-5.143274e-02,     -5.90083,50.00000,48.00000,6.577432e-09,0.86508,4
659.264,334.3,-5.993884e-02,     -5.86563,50.00000,48.00000,6.582466e-09,0.86503,4
660.789,334.375,-7.566125e-02,     -5.84472,50.00000,48.00000,6.582466e-09,0.86503,4
662.317,334.45,-8.736006e-02,     -5.84472,50.00000,48.00000,6.589452e-09,0.86498,4
663.84,334.525,-9.877934e-02,     -5.81656,50.00000,48.00000,6.589452e-09,0.86498,4
665.367,334.6,     -0.11180,     -5.81656,50.00000,48.00000,6.581156e-09,0.86493,4
666.881,334.675,     -0.12360,     -5.80952,50.00000,48.00000,6.581156e-09,0.86493,4
668.406,334.75,     -0.13891,     -5.78841,50.00000,48.00000,6.582645e-09,0.86488,4
669.922,334.825,     -0.14984,     -5.76025,50.00000,48.00000,6.582645e-09,0.86488,4
671.442,334.9,     -0.16143,     -5.76025,50.00000,48.00000,6.582645e-09,0.86488,4
672.965,334.975,     -0.17179,     -5.73230,50.00000,48.00000,6.601498e-09,0.86483,4
674.485,335.05,     -0.18471,     -5.76025,50.00000,48.00000,6.601498e-09,0.86483,4
676.008,335.125,     -0.19323,     -5.73230,50.00000,48.00000,6.576494e-09,0.86478,4
677.519,335.2,     -0.20209,     -5.70414,50.00000,48.00000,6.576494e-09,0.86478,4
679.042,335.275,     -0.21671,     -5.70414,50.00000,48.00000,6.587241e-09,0.86473,4
680.561,335.35,     -0.22531,     -5.70414,50.00000,48.00000,6.587241e-09,0.86473,4
682.086,335.425,     -0.23999,     -5.70414,50.00000,48.00000,6.596079e-09,0.86468,4
683.602,335.5,     -0.25153,     -5.67598,50.00000,48.00000,6.596079e-09,0.86468,4
685.118,335.575,     -0.26309,     -5.67598,50.00000,48.00000,6.596079e-09,0.86468,4
686.638,335.65,     -0.27565,     -5.67598,50.00000,48.00000,6.586426e-09,0.86463,4
688.159,335.725,     -0.28599,     -5.64783,50.00000,48.00000,6.586426e-09,0.86463,4
689.68,335.8,     -0.29797,     -5.61967,50.00000,48.00000,6.587291e-09,0.86459,4
691.185,335.875,     -0.30966,     -5.61967,50.00000,48.00000,6.587291e-09,0.86459,4
692.707,335.95,     -0.31977,     -5.61967,50.00000,48.00000,6.593448e-09,0.86453,4
694.216,336.025,     -0.33023,     -5.59172,50.00000,48.00000,6.593448e-09,0.86453,4
695.733,336.1,     -0.34427,     -5.59172,50.00000,48.00000,6.582278e-09,0.86449,4
697.249,336.175,     -0.35480,     -5.59172,50.00000,48.00000,6.582278e-09,0.86449,4
698.776,336.25,     -0.36502,     -5.56356,50.00000,48.00000,6.582278e-09,0.86449,4
700.305,336.325,     -0.37723,     -5.56356,50.00000,48.00000,6.593864e-09,0.86444,4
701.81,336.4,     -0.38913,     -5.56356,50.00000,48.00000,6.593864e-09,0.86444,4
703.317,336.475,     -0.40139,     -5.53540,50.00000,48.00000,6.577510e-09,0.86439,4
704.84,336.55,     -0.41304,     -5.53540,50.00000,48.00000,6.577510e-09,0.86439,4
706.348,336.625,     -0.42243,     -5.50725,50.00000,48.00000,6.574720e-09,0.86433,4
707.878,336.7,     -0.43643,     -5.50725,50.00000,48.00000,6.574720e-09,0.86433,4
709.397,336.775,     -0.44718,     -5.49337,50.00000,48.00000,6.574720e-09,0.86433,4
710.907,336.85,     -0.46157,     -5.47930,50.00000,48.00000,6.581824e-09,0.86430,4
712.432,336.925,     -0.47469,     -5.47930,50.00000,48.00000,6.581824e-09,0.86430,4
713.959,337,     -0.48752,     -5.45114,50.00000,48.00000,6.585819e-09,0.86424,4
715.471,337.075,     -0.50103,     -5.42298,50.00000,48.00000,6.585819e-09,0.86424,4
716.993,337.15,     -0.51524,     -5.42298,50.00000,48.00000,6.580909e-09,0.86419,4
718.513,337.225,     -0.52618,     -5.42298,50.00000,48.00000,6.580909e-09,0.86419,4
720.028,337.3,     -0.54145,     -5.42298,50.00000,48.00000,6.597038e-09,0.86415,4
721.541,337.375,     -0.55411,     -5.39482,50.00000,48.00000,6.597038e-09,0.86415,4
723.062,337.45,     -0.56415,     -5.39482,50.00000,48.00000,6.590714e-09,0.86409,4
724.578,337.525,     -0.57986,     -5.36439,50.00000,48.00000,6.590714e-09,0.86409,4
726.098,337.6,     -0.59529,     -5.36439,50.00000,48.00000,6.590714e-09,0.86409,4
727.621,337.675,     -0.61108,     -5.36439,50.00000,48.00000,6.588880e-09,0.86404,4
729.136,337.75,     -0.62491,     -5.36439,50.00000,48.00000,6.588880e-09,0.86404,4
730.662,337.825,     -0.64179,     -5.33644,50.00000,48.00000,6.575241e-09,0.86399,4
732.188,337.9,     -0.65738,     -5.33644,50.00000,48.00000,6.575241e-09,0.86399,4
733.694,337.975,     -0.67299,     -5.30828,50.00000,48.00000,6.584730e-09,0.86394,4
735.217,338.05,     -0.68765,     -5.30828,50.00000,48.00000,6.584730e-09,0.86394,4
736.737,338.125,     -0.70537,     -5.30828,50.00000,48.00000,6.584730e-09,0.86394,4
738.256,338.2,     -0.72313,     -5.24741,50.00000,48.00000,6.582754e-09,0.86390,4
739.775,338.275,     -0.73926,     -5.27536,50.00000,48.00000,6.582754e-09,0.86390,4
741.288,338.35,     -0.75643,     -5.27536,50.00000,48.00000,6.580395e-09,0.86385,4
742.796,338.425,     -0.77702,     -5.24741,50.00000,48.00000,6.580395e-09,0.86385,4
744.315,338.5,     -0.79699,     -5.24741,50.00000,48.00000,6.582892e-09,0.86378,4
745.826,338.575,     -0.81870,     -5.24741,50.00000,48.00000,6.582892e-09,0.86378,4
747.338,338.65,     -0.83539,     -5.21925,50.00000,48.00000,6.589096e-09,0.86374,4
748.856,338.725,     -0.85789,     -5.19814,50.00000,48.00000,6.589096e-09,0.86374,4
750.358,338.8,     -0.87840,     -5.19814,50.00000,48.00000,6.589096e-09,0.86374,4
751.874,338.875,     -0.90374,     -5.19814,50.00000,48.00000,6.590300e-09,0.86368,4
753.39,338.95,     -0.92335,     -5.19814,50.00000,48.00000,6.590300e-09,0.86368,4
754.893,339.025,     -0.94744,     -5.19814,50.00000,48.00000,6.573889e-09,0.86364,4
756.414,339.1,     -0.96648,     -5.19110,50.00000,48.00000,6.573889e-09,0.86364,4
757.928,339.175,     -0.98933,     -5.16294,50.00000,48.00000,6.588350e-09,0.86358,4
759.431,339.25,     -1.01119,     -5.16294,50.00000,48.00000,6.588350e-09,0.86358,4
760.942,339.325,     -1.03587,     -5.13499,50.00000,48.00000,6.588350e-09,0.86358,4
762.458,339.4,     -1.05581,     -5.13499,50.00000,48.00000,6.584867e-09,0.86355,4
763.964,339.475,     -1.08266,     -5.10683,50.00000,48.00000,6.584867e-09,0.86355,4
765.472,339.55,     -1.10202,     -5.10683,50.00000,48.00000,6.602073e-09,0.86349,4
766.99,339.625,     -1.12626,     -5.10683,50.00000,48.00000,6.602073e-09,0.86349,4
768.508,339.7,     -1.15056,     -5.07867,50.00000,48.00000,6.575308e-09,0.86344,4
770.025,339.775,     -1.17493,     -5.07867,50.00000,48.00000,6.575308e-09,0.86344,4
771.541,339.85,     -1.19901,     -5.07867,50.00000,48.00000,6.571486e-09,0.86340,4
773.061,339.925,     -1.22455,     -5.06460,50.00000,48.00000,6.571486e-09,0.86340,4
774.579,340,     -1.25050,     -5.02257,50.00000,48.00000,6.571486e-09,0.86340,4
776.092,340.075,     -1.27651,     -5.02257,50.00000,48.00000,6.586999e-09,0.86335,4
777.602,340.15,     -1.30294,     -5.02257,50.00000,48.00000,6.586999e-09,0.86335,4
779.129,340.225,     -1.32841,     -5.00849,50.00000,48.00000,6.587491e-09,0.86330,4
780.641,340.3,     -1.35567,     -4.99441,50.00000,48.00000,6.587491e-09,0.86330,4
782.153,340.375,     -1.37952,     -4.99441,50.00000,48.00000,6.580172e-09,0.86325,4
783.661,340.45,     -1.41111,     -4.97329,50.00000,48.00000,6.580172e-09,0.86325,4
785.169,340.525,     -1.43299,     -4.97329,50.00000,48.00000,6.594438e-09,0.86320,4
786.687,340.6,     -1.46966,     -4.97329,50.00000,48.00000,6.594438e-09,0.86320,4
788.186,340.675,     -1.49236,     -4.96625,50.00000,48.00000,6.594438e-09,0.86320,4
789.69,340.75,     -1.52216,     -4.93810,50.00000,48.00000,6.583702e-09,0.86315,4
791.201,340.825,     -1.55417,     -4.91014,50.00000,48.00000,            ,0.44842,4
792.715,340.9,     -1.58344,     -4.91014,50.00000,48.00000,            ,0.44781,4
794.222,340.975,     -1.60889,     -4.88199,50.00000,48.00000,            ,0.44720,4
794.726,341,     -1.61386,     -4.88199,50.00000,48.00000,            ,0.44700,4