File: data/TGA/commercial_samples/ExpDat_2025_08_24_SL_PS_Red_Solo_Cup_SCF3_Isothermal.csv
#EXPORTTYPE:                 ,DATA ALL
#FILE:                       ,2025_08_24_SL_PS_Red_Solo_Cup_SCF3_Isothermal.ngb-ss5
#FORMAT:                     ,NETZSCH5
#FTYPE:                      ,ASCII
#IDENTITY:                   ,250821-P5EER3-V1+2
#DECIMAL:                    ,POINT
#SEPARATOR:                  ,COMMA
#MTYPE:                      ,DSC
#INSTRUMENT:                 ,NETZSCH STA 449F5
#PROJECT:                    ,Polystyrene
#DATE/TIME:                  ,8/24/2025 11:16:25 AM (UTC-4)
#CORR. FILE:                 ,
#TEMPCAL:                    ,05-05-2025 14:38
#SENSITIVITY:                ,28-06-2023 13:53
#LABORATORY:                 ,Tran/AAG
#OPERATOR:                   ,Stanley
#REMARK:                     ,2025_03_29_SL_005d_M1_isothermal
#SAMPLE:                     ,250821-P5EER3-V1+2
#SAMPLE MASS /mg:            ,4.10
#MATERIAL:                   ,Polystyrene
#REFERENCE:                  ,
#REFERENCE MASS /mg:         ,0
#TYPE OF CRUCIBLE:           ,Al2O3 85 ‘l, open
#SAMPLE CRUCIBLE MASS /mg:   ,0
#REFERENCE CRUCIBLE MASS /mg:,0
#DSC RANGE /‘V:              ,5000
#TG RANGE /mg:               ,35000
#TAU-R:                      ,---
#CORR. CODE:                 ,000
#EXO:                        ,-1
#RANGE:                      ,30›C....800›C/0.0....20.0K/min
#SEGMENT:                    ,S1-5/5
#SEG. 1:                     ,30›C/10.0(K/min)/100›C
#SEG. 2:                     ,100›C/00:10/100›C
#SEG. 3:                     ,100›C/5.0(K/min)/300›C
#SEG. 4:                     ,300›C/20:00/300›C
#SEG. 5:                     ,300›C/20.0(K/min)/800›C

##Temp./›C,Time/min,DSC/(mW/mg),Mass/%,Gas Flow(purge2)/(ml/min),Gas Flow(protective)/(ml/min),TIC(scan:1)/A,Sensit./(uV/mW),Segment
 28.26500,   0.00000,      0.94410,    100,50.00000,54.00000,            ,0.92322,1
 32.36300,   1.28000,      0.92520,     90.77537,50.00000,51.00000,9.886542e-09,0.92337,1
 39.18200,   2.56000,      1.53678,     92.10829,50.00000,52.00000,9.933631e-09,0.92354,1
 48.47200,   3.84000,      2.18227,     93.57341,50.00000,52.00000,9.932363e-09,0.92373,1
 60.61800,   5.12000,      2.95883,     94.86220,50.00000,52.00000,9.930615e-09,0.92392,1
 74.88500,   6.40000,      3.63722,     95.80024,50.00000,52.00000,9.955205e-09,0.92415,1
 85.88800,   7.32000,      3.99762,     96.26659,50.00000,52.00000,9.985029e-09,0.92431,2
 92.59000,   7.96000,      3.69201,     95.63195,50.00000,52.00000,9.948343e-09,0.92444,2
 97.54600,   8.60000,      2.95636,     94.67439,50.00000,52.00000,9.981691e-09,0.92457,2
101.125,   9.24000,      2.25624,     93.97902,50.00000,52.00000,9.967400e-09,0.92466,2
104.007,   9.88000,      1.79591,     93.42732,50.00000,52.00000,9.969114e-09,0.92479,2
106.396,  10.52000,      1.45290,     92.95805,50.00000,52.00000,9.970909e-09,0.92492,2
108.134,  11.16000,      1.09867,     92.37878,50.00000,52.00000,9.977240e-09,0.92504,2
109.266,  11.80000,      0.73866,     91.83512,50.00000,52.00000,9.968961e-09,0.92516,2
109.871,  12.44000,      0.42614,     91.25829,50.00000,52.00000,9.993141e-09,0.92525,2
110.068,  13.08000,      0.17651,     90.83073,50.00000,52.00000,9.957756e-09,0.92537,2
109.985,  13.72000,-1.681928e-02,     90.39463,50.00000,52.00000,9.965888e-09,0.92549,2
109.642,  14.36000,     -0.17223,     90.02488,50.00000,52.00000,9.984119e-09,0.92560,2
109.145,  15.00000,     -0.29233,     89.60268,50.00000,52.00000,9.988958e-09,0.92567,2
108.506,  15.64000,     -0.38018,     89.31024,50.00000,52.00000,9.986675e-09,0.92577,2
107.772,  16.28000,     -0.43982,     88.99561,50.00000,52.00000,9.974467e-09,0.92586,2
107.017,  16.92000,     -0.47636,     88.72805,50.00000,52.00000,9.975162e-09,0.92595,2
106.323,  18.16000,     -0.14573,     89.03439,50.00000,52.00000,9.970027e-09,0.92607,3
108.296,  19.44000,      0.59706,     89.84561,50.00000,52.00000,9.979490e-09,0.92616,3
111.874,  20.72000,      1.10165,     90.49122,50.00000,52.00000,9.963081e-09,0.92620,3
117.109,  22.00000,      1.61890,     91.17829,50.00000,52.00000,9.988708e-09,0.92618,3
123.504,  23.28000,      2.00359,     91.68878,50.00000,52.00000,9.978225e-09,0.92610,3
130.585,  24.56000,      2.26486,     92.01439,50.00000,52.00000,9.965504e-09,0.92594,3
138.098,  25.84000,      2.41704,     92.29585,50.00000,52.00000,9.969517e-09,0.92572,3
145.675,  27.12000,      2.48681,     92.41171,50.00000,52.00000,9.963408e-09,0.92540,3
153.163,  28.40000,      2.49845,     92.46976,50.00000,52.00000,9.980865e-09,0.92503,3
160.475,  29.68000,      2.47494,     92.50293,50.00000,52.00000,9.966717e-09,0.92457,3
167.528,  30.96000,      2.43915,     92.50293,50.00000,52.00000,9.979156e-09,0.92428,3
174.406,  32.24000,      2.39703,     92.55244,50.00000,52.00000,9.967141e-09,0.92402,3
181.118,  33.52000,      2.35771,     92.56073,50.00000,52.00000,9.981586e-09,0.92370,3
187.696,  34.80000,      2.32860,     92.61610,50.00000,52.00000,9.988983e-09,0.92343,3
194.2,  36.08000,      2.30163,     92.61610,50.00000,52.00000,9.964883e-09,0.92312,3
200.652,  37.36000,      2.28473,     92.62415,50.00000,52.00000,9.982246e-09,0.92285,3
207.056,  38.64000,      2.27159,     92.62415,50.00000,52.00000,9.966085e-09,0.92255,3
213.429,  39.92000,      2.26141,     92.55537,50.00000,52.00000,9.958936e-09,0.92230,3
219.785,  41.20000,      2.24968,     92.55537,50.00000,52.00000,9.958040e-09,0.92203,3
226.156,  42.48000,      2.24101,     92.47244,50.00000,52.00000,9.978371e-09,0.92177,3
232.504,  43.76000,      2.22611,     92.38976,50.00000,52.00000,9.972068e-09,0.92156,3
238.885,  45.04000,      2.21205,     92.24902,50.00000,52.00000,9.976546e-09,0.92133,3
245.246,  46.32000,      2.19314,     92.01732,50.00000,52.00000,9.956624e-09,0.92114,3
251.622,  47.60000,      2.16755,     91.81585,50.00000,52.00000,9.955115e-09,0.92092,3
258.003,  48.88000,      2.13149,     91.58122,50.00000,52.00000,9.956376e-09,0.92075,3
264.378,  50.16000,      2.09946,     91.28049,50.00000,52.00000,9.955013e-09,0.92055,3
270.755,  51.44000,      2.07312,     90.97683,50.00000,52.00000,9.953950e-09,0.92038,3
277.124,  52.72000,      2.04727,     90.54634,50.00000,52.00000,9.949490e-09,0.92020,3
283.504,  54.00000,      2.01938,     90.10780,50.00000,52.00000,9.946590e-09,0.92001,3
289.882,  55.28000,      1.98585,     89.71049,50.00000,52.00000,9.956048e-09,0.91986,3
296.255,  56.56000,      1.95052,     89.23585,50.00000,52.00000,9.943455e-09,0.91969,3
302.767,  59.16000,     -0.31187,     87.46707,50.00000,52.00000,9.935331e-09,0.91940,4
302.994,  62.36000,     -1.03858,     85.86659,50.00000,52.00000,9.937096e-09,0.91907,4
301.734,  65.56000,     -1.10879,     84.82366,50.00000,52.00000,9.943927e-09,0.91880,4
300.85,  68.76000,     -1.04374,     83.99024,50.00000,52.00000,9.933647e-09,0.91860,4
300.392,  71.96000,     -0.99256,     83.29756,50.00000,52.00000,9.940999e-09,0.91844,4
300.177,  75.16000,     -0.97056,     82.66854,50.00000,52.00000,9.934542e-09,0.91834,4
300.08,  78.36000,     -0.95910,     82.08634,50.00000,52.00000,9.940443e-09,0.91828,4
300.031,  81.56000,     -0.95668,     81.62268,50.00000,52.00000,9.938857e-09,0.91826,4
300.016,  84.76000,     -0.95241,     81.15366,50.00000,52.00000,9.926840e-09,0.91826,4
300.002,  87.96000,     -0.95570,     80.78927,50.00000,52.00000,9.933334e-09,0.91830,4
299.999,  91.16000,     -0.95783,     80.38098,50.00000,52.00000,9.895962e-09,0.91836,4
300.023,  94.36000,     -0.95833,     80.05268,50.00000,52.00000,9.921060e-09,0.91843,4
300.021,  97.56000,     -0.96022,     79.78780,50.00000,52.00000,9.937424e-09,0.91853,4
300.021, 100.76,     -0.95738,     79.52000,50.00000,52.00000,9.919351e-09,0.91864,4
300.022, 103.96,     -0.96140,     79.24683,50.00000,52.00000,9.918779e-09,0.91876,4
300.013, 107.16,     -0.96044,     79.02341,50.00000,52.00000,9.906412e-09,0.91889,4
300.014, 110.36,     -0.96163,     78.81927,50.00000,52.00000,9.946335e-09,0.91901,4
300.017, 113.56,     -0.96281,     78.62049,50.00000,52.00000,9.921847e-09,0.91915,4
300.01, 116.76,     -0.96469,     78.45220,50.00000,52.00000,9.923975e-09,0.91935,4
300.012, 119.96,     -0.96044,     78.25341,50.00000,52.00000,9.917448e-09,0.91932,4
300.023, 123.16,     -0.96471,     78.11000,50.00000,52.00000,9.923096e-09,0.91900,4
300.009, 126.36,     -0.96138,     77.94439,50.00000,52.00000,9.914951e-09,0.91850,4
300.016, 129.56,     -0.96257,     77.75415,50.00000,52.00000,9.921799e-09,0.91783,4
300.021, 132.76,     -0.96140,     77.61049,50.00000,52.00000,9.919796e-09,0.91688,4
300.006, 135.96,     -0.96327,     77.49463,50.00000,52.00000,9.907302e-09,0.91574,4
300.022, 139.16,     -0.96282,     77.33463,50.00000,52.00000,9.919969e-09,0.91440,4
300.019, 142.36,     -0.96541,     77.23537,50.00000,52.00000,9.927310e-09,0.91297,4
300.017, 145.56,     -0.96541,     77.11951,50.00000,52.00000,9.927631e-09,0.91119,4
300.003, 148.76,     -0.96421,     77.01171,50.00000,52.00000,9.902939e-09,0.90935,4
300.02, 151.96,     -0.96258,     76.90415,50.00000,52.00000,9.911236e-09,0.90737,4
300.022, 155.16,     -0.96613,     76.79098,50.00000,52.00000,9.913930e-09,0.90529,4
300.015, 158.36,     -0.96683,     76.67244,50.00000,52.00000,9.925467e-09,0.90311,4
300.015, 161.56,     -0.96446,     76.58951,50.00000,52.00000,9.909725e-09,0.90086,4
300.018, 164.76,     -0.96612,     76.50683,50.00000,52.00000,9.916419e-09,0.89856,4
300.006, 167.96,     -0.96540,     76.38268,50.00000,52.00000,9.918309e-09,0.89621,4
300.003, 171.16,     -0.96752,     76.28878,50.00000,52.00000,9.904464e-09,0.89383,4
300.008, 174.36,     -0.96446,     76.21146,50.00000,52.00000,9.915891e-09,0.89142,4
300.032, 177.56,     -0.96259,     76.12878,50.00000,52.00000,9.902135e-09,0.88898,4
300.039, 180.76,     -0.96402,     76.01293,50.00000,52.00000,9.906569e-09,0.88650,4
300.015, 183.96,     -0.96470,     75.96317,50.00000,52.00000,9.913715e-09,0.88412,4
300.015, 187.16,     -0.96281,     75.84732,50.00000,52.00000,9.904110e-09,0.88159,4
300.009, 190.36,     -0.96351,     75.74805,50.00000,52.00000,9.899840e-09,0.87901,4
300.009, 193.56,     -0.96351,     75.65415,50.00000,52.00000,9.906158e-09,0.87640,4
300.021, 196.76,     -0.96092,     75.54390,50.00000,52.00000,9.913554e-09,0.87375,4
300.02, 199.96,     -0.96471,     75.49415,50.00000,52.00000,9.886352e-09,0.87105,4
300.01, 203.16,     -0.96233,     75.42780,50.00000,52.00000,9.913530e-09,0.86832,4
300.017, 206.36,     -0.96281,     75.36171,50.00000,52.00000,9.895632e-09,0.86555,4
300.029, 209.56,     -0.96212,     75.29537,50.00000,52.00000,9.908785e-09,0.86273,4
300.012, 212.76,     -0.96375,     75.20439,50.00000,52.00000,9.893014e-09,0.85987,4
300.014, 215.96,     -0.96423,     75.16293,50.00000,52.00000,9.885628e-09,0.85698,4
300.029, 219.16,     -0.96661,     75.08024,50.00000,52.00000,9.890647e-09,0.85420,4
300.016, 222.36,     -0.96919,     74.99756,50.00000,52.00000,9.907133e-09,0.85122,4
300.008, 225.56,     -0.96658,     74.93951,50.00000,52.00000,9.919717e-09,0.84821,4
300.012, 228.76,     -0.96493,     74.87317,50.00000,53.00000,9.878018e-09,0.84515,4
300.014, 231.96,     -0.96683,     74.78488,50.00000,53.00000,9.912185e-09,0.84205,4
300.017, 235.16,     -0.96730,     74.74366,50.00000,53.00000,9.892233e-09,0.83892,4
300.014, 238.36,     -0.96399,     74.67732,50.00000,53.00000,9.905211e-09,0.83575,4
300.012, 241.56,     -0.96682,     74.57805,50.00000,53.00000,9.907512e-09,0.83254,4
300.011, 244.76,     -0.96871,     74.51732,50.00000,53.00000,9.888952e-09,0.82932,4
300.017, 247.96,     -0.96683,     74.50634,50.00000,53.00000,9.878375e-09,0.82622,4
300.001, 251.16,     -0.96516,     74.42902,50.00000,53.00000,9.874703e-09,0.82294,4
300.029, 254.36,     -0.96235,     74.35732,50.00000,53.00000,9.902377e-09,0.81960,4
300.012, 257.56,     -0.96611,     74.30756,50.00000,53.00000,9.878396e-09,0.81625,4
300.006, 260.76,     -0.96634,     74.23317,50.00000,53.00000,9.892442e-09,0.81287,4
300.008, 263.96,     -0.96611,     74.18341,50.00000,53.00000,9.901374e-09,0.80947,4
300.011, 267.16,     -0.96871,     74.11439,50.00000,53.00000,9.906939e-09,0.80606,4
300.018, 270.36,     -0.96541,     74.06488,50.00000,53.00000,9.897436e-09,0.80261,4
300.008, 273.56,     -0.96729,     73.98195,50.00000,53.00000,9.886382e-09,0.79933,4
300.013, 276.76,     -0.97037,     73.91585,50.00000,53.00000,9.909216e-09,0.79584,4
300.014, 279.96,     -0.96683,     73.84683,50.00000,53.00000,9.896437e-09,0.79235,4
300.009, 283.16,     -0.96517,     73.81366,50.00000,53.00000,9.901513e-09,0.78884,4
300.013, 286.36,     -0.96919,     73.75561,50.00000,53.00000,9.914756e-09,0.78484,4
300.006, 289.56,     -0.96469,     73.69780,50.00000,53.00000,9.897952e-09,0.78400,4
300.02, 292.76,     -0.96636,     73.63146,50.00000,53.00000,9.906389e-09,0.78451,4
300.025, 295.96,     -0.96826,     73.59024,50.00000,53.00000,9.896599e-09,0.78524,4
300.006, 299.16,     -0.96989,     73.50195,50.00000,53.00000,9.884621e-09,0.78587,4
300.014, 302.36,     -0.96588,     73.46049,50.00000,53.00000,9.902807e-09,0.78634,4
300.007, 305.56,     -0.96540,     73.40244,50.00000,53.00000,9.899144e-09,0.78665,4
300.023, 308.76,     -0.96755,     73.35561,50.00000,53.00000,9.884823e-09,0.78686,4
300.02, 311.96,     -0.96683,     73.27293,50.00000,53.00000,9.924422e-09,0.78698,4
300.024, 315.16,     -0.96778,     73.26463,50.00000,53.00000,9.914210e-09,0.78707,4
300.017, 318.36,     -0.96707,     73.15415,50.00000,53.00000,9.901227e-09,0.78711,4
300.02, 321.56,     -0.96802,     73.13756,50.00000,53.00000,9.927617e-09,0.78715,4
300.03, 324.76,     -0.96874,     73.08805,50.00000,53.00000,9.902192e-09,0.78718,4
300.013, 327.96,     -0.96753,     72.99415,50.00000,53.00000,9.912793e-09,0.78719,4
300.018, 331.16,     -0.96707,     72.97756,50.00000,53.00000,9.893211e-09,0.78719,4
300.009, 334.36,     -0.96871,     72.93610,50.00000,53.00000,9.897482e-09,0.78719,4
300.016, 337.56,     -0.96990,     72.87268,50.00000,53.00000,9.892277e-09,0.78720,4
300.019, 340.76,     -0.96754,     72.79829,50.00000,53.00000,9.921306e-09,0.78721,4
300.019, 343.96,     -0.96872,     72.77341,50.00000,53.00000,9.908630e-09,0.78720,4
300.018, 347.16,     -0.96990,     72.72098,50.00000,53.00000,9.911147e-09,0.78719,4
300.024, 350.36,     -0.96920,     72.60244,50.00000,53.00000,9.914083e-09,0.78720,4
300.013, 353.56,     -0.96777,     72.58024,50.00000,53.00000,9.910718e-09,0.78720,4
300.013, 356.76,     -0.97415,     72.50854,50.00000,53.00000,9.909668e-09,0.78719,4
300.017, 359.96,     -0.96730,     72.46707,50.00000,53.00000,9.917166e-09,0.78719,4
300.019, 363.16,     -0.97203,     72.40927,50.00000,53.00000,9.910758e-09,0.78719,4
300.011, 366.36,     -0.97179,     72.35683,50.00000,53.00000,9.899972e-09,0.78719,4
300.02, 369.56,     -0.96872,     72.28220,50.00000,53.00000,9.898800e-09,0.78719,4
300.024, 372.76,     -0.96944,     72.23268,50.00000,53.00000,9.913086e-09,0.78719,4
300.021, 375.96,     -0.96991,     72.22439,50.00000,53.00000,9.906956e-09,0.78719,4
300.007, 379.16,     -0.97226,     72.14976,50.00000,53.00000,9.885323e-09,0.78720,4
300.028, 382.36,     -0.96637,     72.12488,50.00000,53.00000,9.910033e-09,0.78719,4
300.007, 385.56,     -0.96942,     72.04220,50.00000,53.00000,9.892575e-09,0.78719,4
300.02, 388.76,     -0.97180,     71.96756,50.00000,53.00000,9.920104e-09,0.78720,4
300.005, 391.96,     -0.97107,     71.89878,50.00000,53.00000,9.893280e-09,0.78719,4
300.02, 395.16,     -0.97227,     71.84073,50.00000,53.00000,9.903328e-09,0.78718,4
300.015, 398.36,     -0.97037,     71.86000,50.00000,53.00000,9.877426e-09,0.78720,4
300.018, 401.56,     -0.97345,     71.75244,50.00000,53.00000,9.877615e-09,0.78720,4
300.016, 404.76,     -0.97061,     71.71098,50.00000,53.00000,9.886714e-09,0.78720,4
300.014, 407.96,     -0.96990,     71.66976,50.00000,53.00000,9.880049e-09,0.78718,4
300.031, 411.16,     -0.96992,     71.62000,50.00000,53.00000,9.859522e-09,0.78720,4
300.022, 414.36,     -0.97251,     71.58146,50.00000,53.00000,9.857274e-09,0.78719,4
300.017, 417.56,     -0.97108,     71.49854,50.00000,53.00000,9.867117e-09,0.78720,4
300.017, 420.76,     -0.97061,     71.44341,50.00000,53.00000,9.851774e-09,0.78719,4
300.012, 423.96,     -0.96895,     71.40195,50.00000,53.00000,9.829617e-09,0.78718,4
299.998, 427.16,     -0.97437,     71.36341,50.00000,53.00000,9.849406e-09,0.78719,4
300.028, 430.36,     -0.97157,     71.29707,50.00000,53.00000,9.839145e-09,0.78719,4
300.02, 433.56,     -0.97345,     71.23927,50.00000,53.00000,9.831594e-09,0.78719,4
300.02, 436.76,     -0.97203,     71.19512,50.00000,53.00000,9.819534e-09,0.78720,4
300.02, 439.96,     -0.97062,     71.17024,50.00000,53.00000,9.806230e-09,0.78720,4
300.012, 443.16,     -0.97250,     71.10122,50.00000,53.00000,9.837199e-09,0.78719,4
300.012, 446.36,     -0.97321,     71.05146,50.00000,53.00000,9.798921e-09,0.78720,4
300.01, 449.56,     -0.97391,     70.97707,50.00000,53.00000,9.792285e-09,0.78719,4
300.017, 452.76,     -0.97227,     70.95220,50.00000,53.00000,9.809729e-09,0.78718,4
300.014, 455.96,     -0.97345,     70.86122,50.00000,53.00000,9.785761e-09,0.78719,4
300.007, 459.16,     -0.97438,     70.82805,50.00000,53.00000,9.806968e-09,0.78719,4
300.014, 462.36,     -0.96895,     70.77000,50.00000,53.00000,9.805654e-09,0.78719,4
300.011, 465.56,     -0.97084,     70.72878,50.00000,53.00000,9.805591e-09,0.78718,4
300.021, 468.76,     -0.97464,     70.66244,50.00000,53.00000,9.802766e-09,0.78719,4
300.014, 471.96,     -0.97652,     70.55488,50.00000,53.00000,9.782731e-09,0.78720,4
300.018, 475.16,     -0.97203,     70.56049,50.00000,53.00000,9.785266e-09,0.78719,4
300.014, 478.36,     -0.97345,     70.44439,50.00000,53.00000,9.774781e-09,0.78720,4
300.008, 481.56,     -0.97415,     70.43341,50.00000,53.00000,9.788843e-09,0.78720,4
300.012, 484.76,     -0.97321,     70.38659,50.00000,53.00000,9.759027e-09,0.78719,4
300.02, 487.96,     -0.97392,     70.31195,50.00000,53.00000,9.787346e-09,0.78719,4
300.018, 491.16,     -0.97960,     70.29561,50.00000,53.00000,9.776142e-09,0.78718,4
300.027, 494.36,     -0.97275,     70.22927,50.00000,53.00000,9.769487e-09,0.78719,4
300.014, 497.56,     -0.97155,     70.20707,50.00000,53.00000,9.743657e-09,0.78719,4
300.023, 500.76,     -0.97346,     70.15488,50.00000,53.00000,9.751205e-09,0.78719,4
300.024, 503.96,     -0.97369,     70.06366,50.00000,53.00000,9.734641e-09,0.78717,4
300.023, 507.16,     -0.97251,     70.05000,50.00000,53.00000,9.760840e-09,0.78720,4
300.008, 510.36,     -0.97840,     69.97805,50.00000,53.00000,9.750301e-09,0.78719,4
300.022, 513.56,     -0.97535,     69.91195,50.00000,53.00000,9.759447e-09,0.78720,4
300.014, 516.76,     -0.97250,     69.85951,50.00000,54.00000,9.739096e-09,0.78719,4
300.016, 519.96,     -0.97534,     69.81805,50.00000,54.00000,9.726020e-09,0.78719,4
300.014, 523.16,     -0.97746,     69.75195,50.00000,54.00000,9.718374e-09,0.78720,4
300.009, 526.36,     -0.97462,     69.67463,50.00000,54.00000,9.745650e-09,0.78719,4
300.01, 529.56,     -0.97651,     69.61659,50.00000,54.00000,9.749821e-09,0.78719,4
300.009, 532.76,     -0.97320,     69.59195,50.00000,54.00000,9.720920e-09,0.78719,4
300.014, 535.96,     -0.97510,     69.52561,50.00000,54.00000,9.721340e-09,0.78720,4
300.011, 539.16,     -0.97628,     69.45951,50.00000,54.00000,9.715962e-09,0.78720,4
300.013, 542.36,     -0.97439,     69.40976,50.00000,54.00000,9.726747e-09,0.78719,4
300.015, 545.56,     -0.97510,     69.39317,50.00000,54.00000,9.721540e-09,0.78720,4
300.009, 548.76,     -0.97533,     69.34902,50.00000,54.00000,9.696028e-09,0.78719,4
300.016, 551.96,     -0.97345,     69.27171,50.00000,54.00000,9.714036e-09,0.78719,4
300.022, 555.16,     -0.97818,     69.22220,50.00000,54.00000,9.706363e-09,0.78719,4
300.009, 558.36,     -0.97580,     69.15585,50.00000,54.00000,9.698794e-09,0.78718,4
300.01, 561.56,     -0.97746,     69.13098,50.00000,54.00000,9.693771e-09,0.78718,4
300.02, 564.76,     -0.97203,     69.08976,50.00000,54.00000,9.707107e-09,0.78718,4
300.027, 567.96,     -0.97370,     68.99854,50.00000,54.00000,9.699319e-09,0.78720,4
300.026, 571.16,     -0.97251,     69.00146,50.00000,54.00000,9.684730e-09,0.78719,4
300.013, 574.36,     -0.97628,     68.91024,50.00000,54.00000,9.714893e-09,0.78720,4
300.017, 577.56,     -0.97747,     68.84415,50.00000,54.00000,9.702057e-09,0.78719,4
300.002, 580.76,     -0.97958,     68.78610,50.00000,54.00000,9.674172e-09,0.78719,4
300.023, 583.96,     -0.97724,     68.74463,50.00000,54.00000,9.697850e-09,0.78719,4
300.014, 587.16,     -0.97652,     68.70610,50.00000,54.00000,9.681119e-09,0.78719,4
300.024, 590.36,     -0.97629,     68.63976,50.00000,54.00000,9.690526e-09,0.78719,4
300.023, 593.56,     -0.97889,     68.58195,50.00000,54.00000,9.687114e-09,0.78718,4
300.022, 596.76,     -0.97653,     68.53220,50.00000,54.00000,9.679653e-09,0.78719,4
300.022, 599.96,     -0.97724,     68.47439,50.00000,54.00000,9.687912e-09,0.78719,4
300.016, 603.16,     -0.97628,     68.39976,50.00000,54.00000,9.678179e-09,0.78719,4
300.015, 606.36,     -0.97723,     68.36659,50.00000,54.00000,9.680072e-09,0.78719,4
300.018, 609.56,     -0.97629,     68.30049,50.00000,54.00000,9.678585e-09,0.78720,4
300.024, 612.76,     -0.97606,     68.23415,50.00000,54.00000,9.679709e-09,0.78720,4
300.016, 615.96,     -0.97818,     68.18463,50.00000,54.00000,9.686713e-09,0.78718,4
300.007, 619.16,     -0.98006,     68.12659,50.00000,54.00000,9.667606e-09,0.78719,4
300.002, 622.36,     -0.97721,     68.10171,50.00000,54.00000,9.677882e-09,0.78719,4
300.023, 625.56,     -0.97889,     68.01341,50.00000,54.00000,9.687611e-09,0.78719,4
300.018, 628.76,     -0.97794,     67.96390,50.00000,54.00000,9.691933e-09,0.78719,4
300.019, 631.96,     -0.97865,     67.91415,50.00000,54.00000,9.670527e-09,0.78721,4
300.015, 635.16,     -0.98101,     67.83146,50.00000,54.00000,9.678620e-09,0.78721,4
300.017, 638.36,     -0.97841,     67.79829,50.00000,54.00000,9.663952e-09,0.78719,4
300.016, 641.56,     -0.97983,     67.74585,50.00000,54.00000,9.678391e-09,0.78720,4
300.021, 644.76,     -0.97960,     67.67951,50.00000,54.00000,9.669011e-09,0.78718,4
300.013, 647.96,     -0.97959,     67.63000,50.00000,54.00000,9.675807e-09,0.78719,4
300.026, 651.16,     -0.97677,     67.59683,50.00000,54.00000,9.662283e-09,0.78719,4
300.016, 654.36,     -0.98125,     67.51415,50.00000,54.00000,9.660720e-09,0.78720,4
300.017, 657.56,     -0.98007,     67.47268,50.00000,54.00000,9.700287e-09,0.78719,4
300.012, 660.76,     -0.98101,     67.43951,50.00000,54.00000,9.665201e-09,0.78718,4
300.012, 663.96,     -0.97723,     67.40927,50.00000,54.00000,9.685308e-09,0.78719,4
300.017, 667.16,     -0.98030,     67.35951,50.00000,54.00000,9.679080e-09,0.78720,4
300.021, 670.36,     -0.97913,     67.29341,50.00000,54.00000,9.690203e-09,0.78719,4
299.998, 673.56,     -0.98075,     67.20780,50.00000,54.00000,9.682966e-09,0.78719,4
300.004, 676.76,     -0.97840,     67.17463,50.00000,54.00000,9.712835e-09,0.78720,4
300.006, 679.96,     -0.97675,     67.13317,50.00000,54.00000,9.710155e-09,0.78719,4
300.012, 683.16,     -0.97746,     67.04780,50.00000,54.00000,9.709760e-09,0.78718,4
300.016, 686.36,     -0.98007,     67.04780,50.00000,54.00000,9.706810e-09,0.78719,4
300.011, 689.56,     -0.97746,     66.96488,50.00000,54.00000,9.732394e-09,0.78720,4
300.021, 692.76,     -0.97960,     66.92366,50.00000,54.00000,9.703617e-09,0.78720,4
300.018, 695.96,     -0.98196,     66.85732,50.00000,54.00000,9.727387e-09,0.78720,4
300.027, 699.16,     -0.97748,     66.75805,50.00000,54.00000,9.742466e-09,0.78719,4
300.01, 702.36,     -0.98100,     66.68341,50.00000,54.00000,9.733478e-09,0.78720,4
300.031, 705.56,     -0.97748,     66.65049,50.00000,54.00000,9.729503e-09,0.78719,4
300.019, 708.76,     -0.97842,     66.61732,50.00000,54.00000,9.728647e-09,0.78718,4
300.011, 711.96,     -0.98124,     66.55098,50.00000,53.00000,9.728137e-09,0.78720,4
300.013, 715.16,     -0.97794,     66.47659,50.00000,53.00000,9.734852e-09,0.78717,4
300.018, 718.36,     -0.98149,     66.41024,50.00000,53.00000,9.739923e-09,0.78718,4
300.031, 721.56,     -0.98056,     66.37439,50.00000,53.00000,9.737404e-09,0.78718,4
300.016, 724.76,     -0.98148,     66.29171,50.00000,53.00000,9.759765e-09,0.78719,4
300.014, 727.96,     -0.98101,     66.25024,50.00000,53.00000,9.752883e-09,0.78719,4
300.016, 731.16,     -0.97983,     66.17854,50.00000,53.00000,9.770811e-09,0.78719,4
300.008, 734.36,     -0.98431,     66.14805,50.00000,53.00000,9.742852e-09,0.78720,4
300.019, 737.56,     -0.98196,     66.08195,50.00000,53.00000,9.755430e-09,0.78719,4
300.015, 740.76,     -0.98172,     66.02390,50.00000,53.00000,9.744903e-09,0.78718,4
300.015, 743.96,     -0.97959,     65.97146,50.00000,53.00000,9.744860e-09,0.78719,4
300.008, 747.16,     -0.98289,     65.89707,50.00000,53.00000,9.751449e-09,0.78718,4
300.014, 750.36,     -0.98125,     65.82268,50.00000,53.00000,9.739945e-09,0.78718,4
300.012, 753.56,     -0.98361,     65.78951,50.00000,53.00000,9.743758e-09,0.78720,4
300.019, 756.76,     -0.98007,     65.69829,50.00000,54.00000,9.754902e-09,0.78719,4
300.025, 759.96,     -0.98528,     65.65146,50.00000,54.00000,9.782850e-09,0.78721,4
300.026, 763.16,     -0.98315,     65.58805,50.00000,54.00000,9.764911e-09,0.78719,4
300.024, 766.36,     -0.98268,     65.51341,50.00000,54.00000,9.752558e-09,0.78720,4
300.023, 769.56,     -0.97937,     65.43073,50.00000,54.00000,9.758616e-09,0.78720,4
300.007, 772.76,     -0.98171,     65.38927,50.00000,54.00000,9.747665e-09,0.78719,4
300.021, 775.96,     -0.98693,     65.32585,50.00000,54.00000,9.751472e-09,0.78719,4
300.021, 779.16,     -0.98196,     65.28171,50.00000,54.00000,9.750686e-09,0.78719,4
300.023, 782.36,     -0.98551,     65.18780,50.00000,54.00000,9.753871e-09,0.78719,4
300.007, 785.56,     -0.98171,     65.15488,50.00000,54.00000,9.780710e-09,0.78720,4
300.006, 788.76,     -0.98549,     65.10512,50.00000,54.00000,9.754867e-09,0.78720,4
300.025, 791.96,     -0.97913,     65.03073,50.00000,54.00000,9.762827e-09,0.78720,4
300.007, 795.16,     -0.98218,     64.96707,50.00000,54.00000,9.753741e-09,0.78720,4
300.007, 798.36,     -0.98337,     64.92585,50.00000,54.00000,9.765469e-09,0.78719,4
300.025, 801.56,     -0.98551,     64.87341,50.00000,54.00000,9.769128e-09,0.78720,4
300.026, 804.76,     -0.98457,     64.79049,50.00000,54.00000,9.751099e-09,0.78719,4
300.013, 807.96,     -0.98314,     64.73805,50.00000,54.00000,9.744503e-09,0.78718,4
300.014, 811.16,     -0.98006,     64.68561,50.00000,54.00000,9.780558e-09,0.78719,4
300.009, 814.36,     -0.98219,     64.58634,50.00000,54.00000,9.773251e-09,0.78717,4
300.008, 817.56,     -0.98242,     64.53390,50.00000,54.00000,9.755686e-09,0.78719,4
300.02, 820.76,     -0.98314,     64.47610,50.00000,54.00000,9.771532e-09,0.78719,4
300.018, 823.96,     -0.98172,     64.41805,50.00000,54.00000,9.732092e-09,0.78719,4
300.016, 827.16,     -0.98101,     64.36000,50.00000,54.00000,9.772817e-09,0.78719,4
300.014, 830.36,     -0.98314,     64.28000,50.00000,54.00000,9.756996e-09,0.78720,4
300.015, 833.56,     -0.98172,     64.20829,50.00000,54.00000,9.779312e-09,0.78719,4
300.028, 836.76,     -0.98268,     64.15878,50.00000,54.00000,9.766847e-09,0.78719,4
300.022, 839.96,     -0.98149,     64.11463,50.00000,54.00000,9.761533e-09,0.78718,4
300.023, 843.16,     -0.98646,     64.04829,50.00000,54.00000,9.764991e-09,0.78719,4
300.013, 846.36,     -0.98314,     63.99024,50.00000,54.00000,9.768409e-09,0.78718,4
300.018, 849.56,     -0.98503,     63.91024,50.00000,54.00000,9.751213e-09,0.78720,4
300.023, 852.76,     -0.98598,     63.85244,50.00000,54.00000,9.757666e-09,0.78719,4
300.027, 855.96,     -0.98339,     63.78073,50.00000,54.00000,9.777428e-09,0.78719,4
300.013, 859.16,     -0.98266,     63.73366,50.00000,54.00000,9.763027e-09,0.78719,4
300.018, 862.36,     -0.98078,     63.65927,50.00000,54.00000,9.776236e-09,0.78719,4
300.016, 865.56,     -0.98621,     63.60122,50.00000,54.00000,9.780925e-09,0.78719,4
300.018, 868.76,     -0.98527,     63.56000,50.00000,54.00000,9.759953e-09,0.78719,4
300.01, 871.96,     -0.97982,     63.49366,50.00000,54.00000,9.739632e-09,0.78719,4
300.004, 875.16,     -0.98171,     63.43561,50.00000,54.00000,9.755310e-09,0.78719,4
300.012, 878.36,     -0.98503,     63.36951,50.00000,54.00000,9.760430e-09,0.78718,4
300.017, 881.56,     -0.98621,     63.30610,50.00000,54.00000,9.766289e-09,0.78719,4
300.026, 884.76,     -0.98268,     63.23976,50.00000,54.00000,9.749208e-09,0.78719,4
300.022, 887.96,     -0.98244,     63.17634,50.00000,54.00000,9.760476e-09,0.78719,4
300.031, 891.16,     -0.98788,     63.14317,50.00000,54.00000,9.757474e-09,0.78719,4
300.026, 894.36,     -0.98410,     63.08537,50.00000,54.00000,9.765697e-09,0.78718,4
300.015, 897.56,     -0.98692,     63.01073,50.00000,54.00000,9.754144e-09,0.78719,4
300.022, 900.76,     -0.98480,     62.94463,50.00000,54.00000,9.757801e-09,0.78720,4
300.022, 903.96,     -0.98315,     62.88659,50.00000,54.00000,9.762518e-09,0.78719,4
300.024, 907.16,     -0.98315,     62.82854,50.00000,54.00000,9.759855e-09,0.78720,4
300.018, 910.36,     -0.98740,     62.74585,50.00000,54.00000,9.767385e-09,0.78721,4
300.022, 913.56,     -0.98622,     62.68780,50.00000,54.00000,9.734765e-09,0.78719,4
300.015, 916.76,     -0.98739,     62.63829,50.00000,54.00000,9.754034e-09,0.78719,4
300.02, 919.96,     -0.98598,     62.56366,50.00000,54.00000,9.749313e-09,0.78717,4
300.016, 923.16,     -0.98361,     62.54439,50.00000,54.00000,9.748973e-09,0.78719,4
300.019, 926.36,     -0.98669,     62.47000,50.00000,54.00000,9.745412e-09,0.78719,4
300.01, 929.56,     -0.98668,     62.39537,50.00000,54.00000,9.752672e-09,0.78719,4
300.007, 932.76,     -0.98715,     62.33756,50.00000,54.00000,9.745069e-09,0.78717,4
300.012, 935.96,     -0.98692,     62.29610,50.00000,54.00000,9.758017e-09,0.78720,4
300.003, 939.16,     -0.98762,     62.21341,50.00000,54.00000,9.746993e-09,0.78719,4
300.028, 942.36,     -0.98788,     62.17195,50.00000,54.00000,9.738391e-09,0.78719,4
300.012, 945.56,     -0.98479,     62.12220,50.00000,54.00000,9.737387e-09,0.78721,4
300.028, 948.76,     -0.98528,     62.05610,50.00000,54.00000,9.737088e-09,0.78718,4
300.009, 951.96,     -0.99022,     61.98976,50.00000,54.00000,9.742110e-09,0.78719,4
300.009, 955.16,     -0.98904,     61.94854,50.00000,54.00000,9.730068e-09,0.78719,4
300.01, 958.36,     -0.98951,     61.86561,50.00000,54.00000,9.723900e-09,0.78719,4
300.012, 961.56,     -0.98904,     61.80780,50.00000,54.00000,9.728136e-09,0.78719,4
300.015, 964.76,     -0.98928,     61.75805,50.00000,54.00000,9.727815e-09,0.78720,4
299.998, 967.96,     -0.98785,     61.68341,50.00000,54.00000,9.719198e-09,0.78720,4
300.031, 971.16,     -0.98788,     61.65049,50.00000,54.00000,9.735103e-09,0.78719,4
300.022, 974.36,     -0.98787,     61.55927,50.00000,54.00000,9.713893e-09,0.78720,4
300.016, 977.56,     -0.98976,     61.50976,50.00000,54.00000,9.718817e-09,0.78718,4
300.016, 980.76,     -0.98716,     61.42683,50.00000,54.00000,9.719025e-09,0.78718,4
300.005, 983.96,     -0.98904,     61.38561,50.00000,54.00000,9.724867e-09,0.78718,4
300.016, 987.16,     -0.99141,     61.28610,50.00000,54.00000,9.719819e-09,0.78718,4
300.013, 990.36,     -0.99023,     61.23659,50.00000,54.00000,9.731152e-09,0.78720,4
300.017, 993.56,     -0.98787,     61.20341,50.00000,54.00000,9.730597e-09,0.78718,4
300.022, 996.76,     -0.99166,     61.13707,50.00000,54.00000,9.724215e-09,0.78720,4
300.02, 999.96,     -0.98905,     61.06268,50.00000,54.00000,9.705228e-09,0.78718,4
300.014,1003.16,     -0.98881,     61.02122,50.00000,54.00000,9.718764e-09,0.78719,4
300.018,1006.36,     -0.99354,     60.97171,50.00000,54.00000,9.711044e-09,0.78719,4
300.017,1009.56,     -0.99071,     60.88049,50.00000,54.00000,9.722228e-09,0.78718,4
300.017,1012.76,     -0.99094,     60.82268,50.00000,54.00000,9.709843e-09,0.78718,4
300.018,1015.96,     -0.99236,     60.76463,50.00000,54.00000,9.720846e-09,0.78718,4
300.015,1019.16,     -0.99307,     60.72317,50.00000,54.00000,9.707889e-09,0.78720,4
300.017,1022.36,     -0.99047,     60.64049,50.00000,54.00000,9.711933e-09,0.78719,4
300.011,1025.56,     -0.99093,     60.56317,50.00000,54.00000,9.716061e-09,0.78719,4
300.018,1028.76,     -0.99283,     60.48878,50.00000,54.00000,9.707800e-09,0.78720,4
300.028,1031.96,     -0.99308,     60.42244,50.00000,54.00000,9.709148e-09,0.78718,4
300.018,1035.16,     -0.99260,     60.38927,50.00000,54.00000,9.693510e-09,0.78719,4
300.004,1038.36,     -0.99376,     60.30659,50.00000,54.00000,9.701057e-09,0.78719,4
300.018,1041.56,     -0.99354,     60.24854,50.00000,54.00000,9.699303e-09,0.78719,4
300.018,1044.76,     -0.99378,     60.15756,50.00000,54.00000,9.697624e-09,0.78720,4
300.022,1047.96,     -0.99331,     60.11610,50.00000,54.00000,9.708792e-09,0.78719,4
300.013,1051.16,     -0.99283,     60.06659,50.00000,54.00000,9.714204e-09,0.78721,4
300.02,1054.36,     -0.98976,     60.00854,50.00000,54.00000,9.695189e-09,0.78719,4
300.016,1057.56,     -0.99472,     59.91756,50.00000,54.00000,9.696952e-09,0.78720,4
300.014,1060.76,     -0.99567,     59.85122,50.00000,54.00000,9.703028e-09,0.78719,4
300.013,1063.96,     -0.99306,     59.81000,50.00000,54.00000,9.689951e-09,0.78719,4
300.016,1067.16,     -0.99425,     59.74366,50.00000,54.00000,9.693110e-09,0.78719,4
300.021,1070.36,     -0.99331,     59.69390,50.00000,54.00000,9.686548e-09,0.78720,4
300.015,1073.56,     -0.99448,     59.61951,50.00000,54.00000,9.689366e-09,0.78719,4
300.003,1076.76,     -0.99778,     59.55317,50.00000,54.00000,9.681739e-09,0.78720,4
300.017,1079.96,     -0.99354,     59.48707,50.00000,54.00000,9.675463e-09,0.78719,4
300.024,1083.16,     -0.99780,     59.45390,50.00000,54.00000,9.676066e-09,0.78720,4
300.006,1086.36,     -0.99613,     59.39317,50.00000,54.00000,9.674179e-09,0.78719,4
300.024,1089.56,     -0.99591,     59.33537,50.00000,54.00000,9.678905e-09,0.78719,4
300.016,1092.76,     -0.99614,     59.26073,50.00000,54.00000,9.677581e-09,0.78721,4
300.032,1095.96,     -0.99498,     59.21122,50.00000,54.00000,9.670590e-09,0.78720,4
300.017,1099.16,     -0.99331,     59.11171,50.00000,54.00000,9.675669e-09,0.78719,4
300.009,1102.36,     -0.99873,     59.07878,50.00000,54.00000,9.671063e-09,0.78720,4
300.016,1105.56,     -0.99992,     58.99585,50.00000,54.00000,9.666798e-09,0.78720,4
300.008,1108.76,     -0.99471,     58.94634,50.00000,54.00000,9.676747e-09,0.78719,4
300.021,1111.96,     -0.99496,     58.87171,50.00000,54.00000,9.659808e-09,0.78719,4
300.014,1115.16,     -0.99637,     58.83854,50.00000,54.00000,9.645524e-09,0.78720,4
300.02,1118.36,     -1.00158,     58.73098,50.00000,54.00000,9.661032e-09,0.78720,4
300.018,1121.56,     -0.99638,     58.73098,50.00000,54.00000,9.669681e-09,0.78720,4
300.016,1124.76,     -0.99803,     58.64829,50.00000,54.00000,9.680111e-09,0.78718,4
300.012,1127.96,     -0.99826,     58.54341,50.00000,54.00000,9.666756e-09,0.78718,4
300.014,1131.16,     -0.99708,     58.53780,50.00000,54.00000,9.647843e-09,0.78720,4
300.019,1134.36,     -0.99733,     58.49634,50.00000,54.00000,9.658092e-09,0.78719,4
300.017,1137.56,     -0.99685,     58.41366,50.00000,54.00000,9.652164e-09,0.78719,4
300.004,1140.76,     -1.00156,     58.37220,50.00000,54.00000,9.652751e-09,0.78720,4
300.02,1143.96,     -0.99851,     58.24537,50.00000,54.00000,9.655138e-09,0.78718,4
300.016,1147.16,     -1.00465,     58.21220,50.00000,54.00000,9.652022e-09,0.78719,4
300.015,1150.36,     -1.00039,     58.14610,50.00000,54.00000,9.647455e-09,0.78719,4
300.013,1153.56,     -0.99945,     58.07976,50.00000,54.00000,9.640123e-09,0.78718,4
300.02,1156.76,     -1.00040,     58.00537,50.00000,54.00000,9.635741e-09,0.78720,4
300.008,1159.96,     -1.00086,     57.98049,50.00000,54.00000,9.653509e-09,0.78719,4
300.016,1163.16,     -1.00323,     57.90878,50.00000,54.00000,9.647905e-09,0.78719,4
300,1166.36,     -1.00061,     57.83976,50.00000,54.00000,9.649761e-09,0.78718,4
300.023,1169.56,     -1.00135,     57.76805,50.00000,54.00000,9.635863e-09,0.78719,4
300.025,1172.76,     -1.00135,     57.72390,50.00000,54.00000,9.654395e-09,0.78720,4
300.012,1175.96,     -1.00205,     57.66585,50.00000,54.00000,9.649201e-09,0.78719,4
300.02,1179.16,     -0.99733,     57.61610,50.00000,54.00000,9.639121e-09,0.78719,4
300.011,1182.36,     -1.00512,     57.53341,50.00000,54.00000,9.649863e-09,0.78720,4
300.02,1185.56,     -1.00135,     57.44512,50.00000,54.00000,9.625772e-09,0.78719,4
300.024,1188.76,     -1.00324,     57.37610,50.00000,54.00000,9.632035e-09,0.78718,4
300.01,1191.96,     -1.00133,     57.32659,50.00000,54.00000,9.635754e-09,0.78719,4
300.015,1195.16,     -1.00158,     57.23268,50.00000,54.00000,9.646898e-09,0.78718,4
300.021,1198.36,     -1.00229,     57.24366,50.00000,54.00000,9.615173e-09,0.78719,4
300.012,1201.56,     -1.00039,     57.18024,50.00000,54.00000,9.629384e-09,0.78720,4
300.013,1204.76,     -1.00157,     57.13049,50.00000,54.00000,9.632607e-09,0.78718,4
300.014,1207.96,     -1.00276,     57.06439,50.00000,54.00000,9.618006e-09,0.78719,4
300.014,1211.16,     -1.00323,     57.02854,50.00000,54.00000,9.624823e-09,0.78718,4
300.018,1214.36,     -1.00182,     56.92098,50.00000,54.00000,9.632218e-09,0.78719,4
300.008,1217.56,     -1.00062,     56.87122,50.00000,54.00000,9.623413e-09,0.78719,4
300.018,1220.76,     -0.99851,     56.78829,50.00000,54.00000,9.613075e-09,0.78719,4
300.029,1223.96,     -1.00348,     56.74415,50.00000,54.00000,9.606526e-09,0.78719,4
300.02,1227.16,     -1.00111,     56.67244,50.00000,54.00000,9.600237e-09,0.78720,4
300.02,1230.36,     -1.00276,     56.63390,50.00000,54.00000,9.604664e-09,0.78721,4
300.011,1233.56,     -1.00181,     56.56756,50.00000,54.00000,9.594256e-09,0.78719,4
300.009,1236.76,     -1.00275,     56.50146,50.00000,54.00000,9.596418e-09,0.78720,4
300.007,1239.96,     -1.00062,     56.41049,50.00000,54.00000,9.607693e-09,0.78720,4
300.01,1243.16,     -1.00181,     56.36902,50.00000,54.00000,9.611458e-09,0.78719,4
300.014,1246.36,     -0.99921,     56.31659,50.00000,54.00000,9.624377e-09,0.78720,4
300.017,1249.56,     -0.99591,     56.27244,50.00000,54.00000,9.609561e-09,0.78719,4
300.012,1252.76,     -0.99424,     56.21732,50.00000,54.00000,9.604757e-09,0.78718,4
300.031,1255.96,     -0.99663,     56.14000,50.00000,54.00000,9.621290e-09,0.78718,4
300.021,1257.07,     -0.99331,     56.10683,50.00000,54.00000,9.597813e-09,0.78718,5
300.182,1257.23,     -0.85046,     56.17854,50.00000,54.00000,9.611267e-09,0.78719,5
300.682,1257.39,     -0.41353,     56.40488,50.00000,54.00000,9.601870e-09,0.78719,5
301.676,1257.55,      0.36736,     56.77732,50.00000,54.00000,9.608838e-09,0.78719,5
303.207,1257.71,      1.45006,     57.24098,50.00000,54.00000,9.605744e-09,0.78719,5
305.217,1257.87,      2.72085,     57.62732,50.00000,54.00000,9.600467e-09,0.78719,5
307.638,1258.03,      4.03626,     58.00805,50.00000,54.00000,9.611841e-09,0.78719,5
310.35,1258.19,      5.26292,     58.33098,50.00000,54.00000,9.603568e-09,0.78719,5
313.206,1258.35,      6.29180,     58.57098,50.00000,54.00000,9.603419e-09,0.78720,5
316.107,1258.51,      7.06779,     58.72829,50.00000,54.00000,9.594578e-09,0.78719,5
318.959,1258.67,      7.58670,     58.81098,50.00000,54.00000,9.594913e-09,0.78718,5
321.737,1258.83,      7.87656,     58.91317,50.00000,54.00000,9.595255e-09,0.78718,5
324.452,1258.99,      8.00856,     58.92146,50.00000,54.00000,9.608270e-09,0.78718,5
327.121,1259.15,      8.04721,     58.98756,50.00000,54.00000,9.608270e-09,0.78718,5
329.773,1259.31,      8.06391,     58.96268,50.00000,54.00000,9.590948e-09,0.78719,5
332.465,1259.47,      8.11706,     59.07049,50.00000,54.00000,9.597490e-09,0.78719,5
335.247,1259.63,      8.23472,     59.12829,50.00000,54.00000,9.605630e-09,0.78719,5
338.125,1259.79,      8.43798,     59.19463,50.00000,54.00000,9.596890e-09,0.78718,5
341.129,1259.95,      8.71898,     59.33244,50.00000,54.00000,9.598973e-09,0.78718,5
344.27,1260.11,      9.05867,     59.40439,50.00000,54.00000,9.595254e-09,0.78719,5
347.513,1260.27,      9.42340,     59.54512,50.00000,54.00000,9.604118e-09,0.78719,5
350.866,1260.43,      9.78326,     59.64707,50.00000,54.00000,9.596630e-09,0.78721,5
354.271,1260.59,     10.11151,     59.68293,50.00000,54.00000,9.613468e-09,0.78720,5
357.722,1260.75,     10.38661,     59.74927,50.00000,54.00000,9.612742e-09,0.78720,5
361.183,1260.91,     10.60101,     59.78220,50.00000,54.00000,9.585008e-09,0.78719,5
364.649,1261.07,     10.75841,     59.79049,50.00000,54.00000,9.594437e-09,0.78719,5
368.134,1261.23,     10.86544,     59.78220,50.00000,54.00000,9.598018e-09,0.78719,5
371.584,1261.39,     10.93871,     59.72439,50.00000,54.00000,9.597326e-09,0.78719,5
375.047,1261.55,     10.99015,     59.68293,50.00000,54.00000,9.602400e-09,0.78720,5
378.51,1261.71,     11.03491,     59.58366,50.00000,54.00000,9.590813e-09,0.78719,5
381.978,1261.87,     11.08136,     59.47049,50.00000,54.00000,9.596430e-09,0.78719,5
385.461,1262.03,     11.13914,     59.25805,50.00000,54.00000,9.594793e-09,0.78720,5
388.94,1262.19,     11.20573,     59.04000,50.00000,54.00000,9.594793e-09,0.78720,5
392.459,1262.35,     11.28670,     58.71732,50.00000,54.00000,9.601169e-09,0.78719,5
395.986,1262.51,     11.37399,     58.25634,50.00000,54.00000,9.594052e-09,0.78719,5
399.495,1262.67,     11.47509,     57.63829,50.00000,54.00000,9.599956e-09,0.78719,5
403.016,1262.83,     11.56284,     56.75537,50.00000,54.00000,9.608399e-09,0.78719,5
406.543,1262.99,     11.63260,     55.86390,50.00000,54.00000,9.590716e-09,0.78720,5
410.063,1263.15,     11.75990,     54.70244,50.00000,54.00000,9.589532e-09,0.78719,5
413.563,1263.31,     11.90262,     53.23976,50.00000,54.00000,9.589376e-09,0.78720,5
417.06,1263.47,     12.06262,     51.41049,50.00000,54.00000,9.582468e-09,0.78719,5
420.55,1263.63,     12.26409,     49.50366,50.00000,54.00000,9.598292e-09,0.78719,5
424.018,1263.79,     12.49540,     46.67537,50.00000,54.00000,9.610188e-09,0.78720,5
427.481,1263.95,     12.76809,     43.45512,50.00000,54.00000,9.589782e-09,0.78719,5
430.945,1264.11,     13.04474,     39.72171,50.00000,54.00000,9.571912e-09,0.78720,5
434.392,1264.27,     13.31743,     35.51366,50.00000,54.00000,9.588114e-09,0.78719,5
437.848,1264.43,     13.54387,     30.69024,50.00000,54.00000,9.594969e-09,0.78720,5
441.273,1264.59,     13.68573,     25.77317,50.00000,54.00000,9.598858e-09,0.78719,5
444.705,1264.75,     13.71397,     20.78146,50.00000,54.00000,9.589918e-09,0.78718,5
448.115,1264.91,     13.62820,     16.17341,50.00000,54.00000,9.603318e-09,0.78719,5
451.515,1265.07,     13.40663,     11.96537,50.00000,54.00000,9.609848e-09,0.78719,5
454.915,1265.23,     13.07305,      8.31195,50.00000,54.00000,9.625636e-09,0.78720,5
458.305,1265.39,     12.65454,      5.32341,50.00000,54.00000,9.625636e-09,0.78720,5
461.703,1265.55,     12.19172,      3.02780,50.00000,54.00000,9.589014e-09,0.78718,5
465.077,1265.71,     11.73189,      1.30049,50.00000,54.00000,9.591217e-09,0.78719,5
468.443,1265.87,     11.31075, 3.658537e-02,50.00000,54.00000,9.578577e-09,0.78719,5
471.809,1266.03,     10.94318,     -0.94293,50.00000,54.00000,9.590848e-09,0.78719,5
475.182,1266.19,     10.62853,     -1.64390,50.00000,54.00000,9.596989e-09,0.78718,5
478.532,1266.35,     10.36444,     -2.09927,50.00000,54.00000,9.591989e-09,0.78719,5
481.881,1266.51,     10.14055,     -2.45780,50.00000,54.00000,9.581727e-09,0.78719,5
485.226,1266.67,      9.94741,     -2.71439,50.00000,54.00000,9.598167e-09,0.78719,5
488.554,1266.83,      9.77623,     -2.87732,50.00000,54.00000,9.596723e-09,0.78719,5
491.88,1266.99,      9.61719,     -3.01805,50.00000,54.00000,9.583348e-09,0.78719,5
495.2,1267.15,      9.47925,     -3.08415,50.00000,54.00000,9.584501e-09,0.78719,5
498.496,1267.31,      9.35237,     -3.15049,50.00000,54.00000,9.622273e-09,0.78720,5
501.811,1267.47,      9.23325,     -3.15049,50.00000,54.00000,9.605634e-09,0.78719,5
505.102,1267.63,      9.12765,     -3.18366,50.00000,54.00000,9.585996e-09,0.78720,5
508.395,1267.79,      9.02429,     -3.18366,50.00000,54.00000,9.595324e-09,0.78719,5
511.679,1267.95,      8.92992,     -3.19195,50.00000,54.00000,9.582033e-09,0.78719,5
514.967,1268.11,      8.83826,     -3.19195,50.00000,54.00000,9.582033e-09,0.78719,5
518.252,1268.27,      8.74988,     -3.22488,50.00000,54.00000,9.581062e-09,0.78719,5
521.52,1268.43,      8.66281,     -3.22488,50.00000,54.00000,9.600359e-09,0.78719,5
524.797,1268.59,      8.57355,     -3.19195,50.00000,54.00000,9.581620e-09,0.78719,5
528.071,1268.75,      8.48450,     -3.19195,50.00000,54.00000,9.593780e-09,0.78719,5
531.319,1268.91,      8.39255,     -3.19195,50.00000,54.00000,9.614341e-09,0.78719,5
534.581,1269.07,      8.30388,     -3.19195,50.00000,54.00000,9.593438e-09,0.78719,5
537.841,1269.23,      8.21644,     -3.15878,50.00000,54.00000,9.587366e-09,0.78719,5
541.096,1269.39,      8.12925,     -3.13390,50.00000,54.00000,9.583928e-09,0.78718,5
544.356,1269.55,      8.04242,     -3.15317,50.00000,54.00000,9.598424e-09,0.78720,5
547.594,1269.71,      7.95863,     -3.08976,50.00000,54.00000,9.595930e-09,0.78720,5
550.846,1269.87,      7.87404,     -3.05659,50.00000,54.00000,9.579150e-09,0.78719,5
554.087,1270.03,      7.79136,     -3.05659,50.00000,54.00000,9.600057e-09,0.78718,5
557.341,1270.19,      7.71085,     -3.01805,50.00000,54.00000,9.585006e-09,0.78719,5
560.582,1270.35,      7.62436,     -2.98488,50.00000,54.00000,9.594711e-09,0.78719,5
563.832,1270.51,      7.53967,     -2.95171,50.00000,54.00000,9.575583e-09,0.78719,5
567.078,1270.67,      7.45269,     -2.94341,50.00000,54.00000,9.586081e-09,0.78718,5
570.318,1270.83,      7.36875,     -2.88561,50.00000,54.00000,9.586081e-09,0.78718,5
573.558,1270.99,      7.28761,     -2.85244,50.00000,54.00000,9.602954e-09,0.78719,5
576.793,1271.15,      7.19983,     -2.85244,50.00000,54.00000,9.587759e-09,0.78720,5
580.037,1271.31,      7.11224,     -2.78634,50.00000,54.00000,9.569259e-09,0.78718,5
583.279,1271.47,      7.02237,     -2.78634,50.00000,54.00000,9.581955e-09,0.78719,5
586.507,1271.63,      6.93489,     -2.71732,50.00000,54.00000,9.603460e-09,0.78720,5
589.755,1271.79,      6.84736,     -2.68415,50.00000,54.00000,9.611431e-09,0.78719,5
592.98,1271.95,      6.75399,     -2.68415,50.00000,54.00000,9.599103e-09,0.78719,5
596.22,1272.11,      6.66601,     -2.65927,50.00000,54.00000,9.583499e-09,0.78719,5
599.455,1272.27,      6.57749,     -2.61805,50.00000,54.00000,9.567695e-09,0.78720,5
602.684,1272.43,      6.49015,     -2.55171,50.00000,54.00000,9.597845e-09,0.78720,5
605.913,1272.59,      6.39848,     -2.55171,50.00000,54.00000,9.581960e-09,0.78720,5
609.152,1272.75,      6.30568,     -2.48537,50.00000,54.00000,9.585007e-09,0.78720,5
612.373,1272.91,      6.21295,     -2.50195,50.00000,54.00000,9.592217e-09,0.78720,5
615.596,1273.07,      6.12149,     -2.43585,50.00000,54.00000,9.580566e-09,0.78720,5
618.824,1273.23,      6.02924,     -2.40268,50.00000,54.00000,9.593396e-09,0.78720,5
622.053,1273.39,      5.93297,     -2.35293,50.00000,54.00000,9.578051e-09,0.78720,5
625.273,1273.55,      5.83829,     -2.33659,50.00000,54.00000,9.591669e-09,0.78720,5
628.502,1273.71,      5.74748,     -2.30341,50.00000,54.00000,9.591669e-09,0.78720,5
631.738,1273.87,      5.65340,     -2.23707,50.00000,54.00000,9.572063e-09,0.78719,5
634.96,1274.03,      5.55629,     -2.23707,50.00000,54.00000,9.575324e-09,0.78720,5
638.188,1274.19,      5.46127,     -2.20415,50.00000,54.00000,9.584724e-09,0.78719,5
641.407,1274.35,      5.36216,     -2.13780,50.00000,54.00000,9.578402e-09,0.78719,5
644.634,1274.51,      5.26010,     -2.13780,50.00000,54.00000,9.578996e-09,0.78720,5
647.867,1274.67,      5.16271,     -2.10463,50.00000,54.00000,9.585380e-09,0.78719,5
651.079,1274.83,      5.05859,     -2.07146,50.00000,54.00000,9.587703e-09,0.78719,5
654.32,1274.99,      4.95087,     -2.03854,50.00000,54.00000,9.592585e-09,0.78720,5
657.533,1275.15,      4.83851,     -2.03854,50.00000,54.00000,9.589627e-09,0.78719,5
660.756,1275.31,      4.72903,     -2.00537,50.00000,54.00000,9.606311e-09,0.78720,5
663.98,1275.47,      4.61689,     -1.93366,50.00000,54.00000,9.587224e-09,0.78720,5
667.187,1275.63,      4.50902,     -1.93366,50.00000,54.00000,9.584119e-09,0.78719,5
670.422,1275.79,      4.39900,     -1.90049,50.00000,54.00000,9.583063e-09,0.78719,5
673.635,1275.95,      4.29181,     -1.86732,50.00000,54.00000,9.582743e-09,0.78719,5
676.853,1276.11,      4.18649,     -1.83439,50.00000,54.00000,9.590924e-09,0.78719,5
680.085,1276.27,      4.07371,     -1.80122,50.00000,54.00000,9.581692e-09,0.78719,5
683.31,1276.43,      3.95936,     -1.73488,50.00000,54.00000,9.592918e-09,0.78719,5
686.532,1276.59,      3.84760,     -1.73488,50.00000,54.00000,9.585968e-09,0.78719,5
689.757,1276.75,      3.72637,     -1.70171,50.00000,54.00000,9.585968e-09,0.78719,5
692.981,1276.91,      3.60660,     -1.70171,50.00000,54.00000,9.563235e-09,0.78718,5
696.202,1277.07,      3.48487,     -1.65220,50.00000,54.00000,9.583600e-09,0.78719,5
699.429,1277.23,      3.36617,     -1.63561,50.00000,54.00000,9.587560e-09,0.78719,5
702.652,1277.39,      3.24898,     -1.60244,50.00000,54.00000,9.590870e-09,0.78719,5
705.882,1277.55,      3.13373,     -1.56927,50.00000,54.00000,9.597492e-09,0.78719,5
709.114,1277.71,      3.01466,     -1.56927,50.00000,54.00000,9.588893e-09,0.78720,5
712.325,1277.87,      2.89283,     -1.53341,50.00000,54.00000,9.592902e-09,0.78719,5
715.571,1278.03,      2.76954,     -1.46732,50.00000,54.00000,9.592209e-09,0.78718,5
718.791,1278.19,      2.63686,     -1.43415,50.00000,54.00000,9.591199e-09,0.78719,5
722.027,1278.35,      2.50572,     -1.40098,50.00000,54.00000,9.597708e-09,0.78719,5
725.248,1278.51,      2.37022,     -1.42585,50.00000,54.00000,9.598430e-09,0.78719,5
728.466,1278.67,      2.23467,     -1.36805,50.00000,54.00000,9.589391e-09,0.78719,5
731.684,1278.83,      2.10499,     -1.33488,50.00000,54.00000,9.610838e-09,0.78720,5
734.914,1278.99,      1.97534,     -1.31829,50.00000,54.00000,9.584058e-09,0.78719,5
738.153,1279.15,      1.84214,     -1.26854,50.00000,54.00000,9.591623e-09,0.78719,5
741.361,1279.31,      1.70175,     -1.23561,50.00000,54.00000,9.592036e-09,0.78719,5
744.586,1279.47,      1.56136,     -1.20244,50.00000,54.00000,9.591855e-09,0.78719,5
747.818,1279.63,      1.41814,     -1.20244,50.00000,54.00000,9.591855e-09,0.78719,5
751.045,1279.79,      1.27688,     -1.16927,50.00000,54.00000,9.604827e-09,0.78718,5
754.259,1279.95,      1.12875,     -1.13610,50.00000,54.00000,9.589498e-09,0.78718,5
757.495,1280.11,      0.98663,     -1.10293,50.00000,54.00000,9.582289e-09,0.78718,5
760.722,1280.27,      0.83882,     -1.10293,50.00000,54.00000,9.610159e-09,0.78719,5
763.944,1280.43,      0.69339,     -1.07000,50.00000,54.00000,9.584997e-09,0.78719,5
767.18,1280.59,      0.54673,     -1.00366,50.00000,54.00000,9.586334e-09,0.78718,5
770.418,1280.75,      0.40491,     -1.01195,50.00000,54.00000,9.616814e-09,0.78719,5
773.639,1280.91,      0.25002,     -0.97878,50.00000,54.00000,9.580134e-09,0.78718,5
776.869,1281.07,      0.10816,     -0.91268,50.00000,54.00000,9.597557e-09,0.78718,5
780.096,1281.23,-4.642961e-02,     -0.94585,50.00000,54.00000,9.590130e-09,0.78718,5
783.316,1281.39,     -0.19449,     -0.87951,50.00000,54.00000,9.589622e-09,0.78719,5
786.538,1281.55,     -0.34506,     -0.84634,50.00000,54.00000,9.594878e-09,0.78718,5
789.755,1281.71,     -0.48697,     -0.84634,50.00000,54.00000,9.588614e-09,0.78720,5
792.973,1281.87,     -0.63094,     -0.81341,50.00000,54.00000,            ,0.44770,5
794.791,1281.96,     -0.70649,     -0.78024,50.00000,54.00000,            ,0.44697,5