File: data/TGA/commercial_samples/ExpDat_2025_08_13_SL_PS_Cup_Lid_Isothermal.csv
#EXPORTTYPE:                 ,DATA ALL
#FILE:                       ,2025_08_13_SL_PS_Cup_Lid_Isothermal.ngb-ss5
#FORMAT:                     ,NETZSCH5
#FTYPE:                      ,ASCII
#IDENTITY:                   ,PS-Cup-Lid
#DECIMAL:                    ,POINT
#SEPARATOR:                  ,COMMA
#MTYPE:                      ,TG
#INSTRUMENT:                 ,NETZSCH STA 449F5
#PROJECT:                    ,
#DATE/TIME:                  ,8/13/2025 8:50:47 AM (UTC-4)
#CORR. FILE:                 ,
#TEMPCAL:                    ,05-05-2025 14:38
#SENSITIVITY:                ,28-06-2023 13:53
#LABORATORY:                 ,Tran/AAG
#OPERATOR:                   ,Stanley
#REMARK:                     ,2025_03_29_SL_005d_M1_isothermal
#SAMPLE:                     ,PS-Cup-Lid
#SAMPLE MASS /mg:            ,5.25
#MATERIAL:                   ,Polystyrene
#REFERENCE:                  ,
#REFERENCE MASS /mg:         ,0
#TYPE OF CRUCIBLE:           ,Al2O3 85 ‘l, open
#SAMPLE CRUCIBLE MASS /mg:   ,0
#REFERENCE CRUCIBLE MASS /mg:,0
#DSC RANGE /‘V:              ,5000
#TG RANGE /mg:               ,35000
#TAU-R:                      ,---
#CORR. CODE:                 ,000
#EXO:                        ,-1
#RANGE:                      ,30›C....800›C/0.0....20.0K/min
#SEGMENT:                    ,S1-5/5
#SEG. 1:                     ,30›C/10.0(K/min)/100›C
#SEG. 2:                     ,100›C/00:10/100›C
#SEG. 3:                     ,100›C/5.0(K/min)/300›C
#SEG. 4:                     ,300›C/20:00/300›C
#SEG. 5:                     ,300›C/20.0(K/min)/800›C

##Temp./›C,Time/min,Mass/%,Sensit./(uV/mW),Segment
 28.60200,   0.00000,    100,0.92329,1
 30.40000,   0.64000,     99.81029,0.92363,1
 32.77700,   1.28000,     93.02019,0.92404,1
 35.87700,   1.92000,     92.38876,0.92453,1
 39.61200,   2.56000,     93.47486,0.92503,1
 43.91200,   3.20000,     94.06971,0.92550,1
 48.91500,   3.84000,     94.55886,0.92589,1
 54.66400,   4.48000,     95.00057,0.92615,1
 61.09400,   5.12000,     95.40343,0.92618,1
 68.05500,   5.76000,     95.76762,0.92593,1
 75.38600,   6.40000,     96.07581,0.92535,1
 82.56200,   7.00083,     96.53486,0.92446,2
 86.40200,   7.32083,     96.52629,0.92385,2
 89.95600,   7.64083,     96.16419,0.92322,2
 93.08000,   7.96083,     95.89924,0.92260,2
 95.72300,   8.28083,     95.51562,0.92203,2
 97.93700,   8.60083,     95.12990,0.92152,2
 99.80600,   8.92083,     94.83238,0.92108,2
101.406,   9.24083,     94.58895,0.92068,2
102.86,   9.56083,     94.39295,0.92030,2
104.177,   9.88083,     94.22267,0.91995,2
105.385,  10.20083,     94.07181,0.91962,2
106.418,  10.52083,     93.90800,0.91933,2
107.338,  10.84083,     93.69257,0.91907,2
108.097,  11.16083,     93.54590,0.91885,2
108.679,  11.48083,     93.45333,0.91867,2
109.105,  11.80083,     93.22057,0.91855,2
109.436,  12.12083,     92.98571,0.91845,2
109.653,  12.44083,     92.76152,0.91838,2
109.751,  12.76083,     92.54400,0.91835,2
109.785,  13.08083,     92.34133,0.91834,2
109.749,  13.40083,     92.03962,0.91836,2
109.656,  13.72083,     91.90610,0.91838,2
109.504,  14.04083,     91.77029,0.91843,2
109.299,  14.36083,     91.66686,0.91849,2
109.059,  14.68083,     91.50743,0.91856,2
108.785,  15.00083,     91.40400,0.91864,2
108.477,  15.32083,     91.30057,0.91873,2
108.153,  15.64083,     91.19714,0.91883,2
107.786,  15.96083,     91.20781,0.91894,2
107.414,  16.28083,     91.09581,0.91904,2
107.048,  16.60083,     90.96876,0.91915,2
106.657,  16.92083,     90.86095,0.91926,2
106.046,  17.52083,     90.79619,0.91943,3
106.052,  18.16083,     91.08933,0.91943,3
106.884,  18.80083,     91.42552,0.91920,3
108.193,  19.44083,     91.69486,0.91882,3
109.873,  20.08083,     91.94495,0.91832,3
111.956,  20.72083,     92.19048,0.91768,3
114.432,  21.36083,     92.45333,0.91689,3
117.299,  22.00083,     92.68610,0.91593,3
120.442,  22.64083,     92.87581,0.91483,3
123.788,  23.28083,     93.05676,0.91360,3
127.307,  23.92083,     93.19048,0.91224,3
130.947,  24.56083,     93.34552,0.91077,3
134.689,  25.20083,     93.42533,0.90919,3
138.445,  25.84083,     93.50286,0.90753,3
142.249,  26.48083,     93.59333,0.90578,3
146.011,  27.12083,     93.65162,0.90398,3
149.754,  27.76083,     93.70324,0.90213,3
153.467,  28.40083,     93.72914,0.90022,3
157.125,  29.04083,     93.75505,0.89828,3
160.728,  29.68083,     93.78095,0.89631,3
164.275,  30.32083,     93.77448,0.89432,3
167.766,  30.96083,     93.80895,0.89230,3
171.203,  31.60083,     93.87352,0.89027,3
174.593,  32.24083,     93.86705,0.88821,3
177.959,  32.88083,     93.87352,0.88612,3
181.273,  33.52083,     93.91238,0.88402,3
184.574,  34.16083,     93.92533,0.88189,3
187.85,  34.80083,     93.97905,0.87973,3
191.111,  35.44083,     93.97905,0.87754,3
194.363,  36.08083,     94.00286,0.87531,3
197.576,  36.72083,     94.03295,0.87308,3
200.789,  37.36083,     94.06533,0.87081,3
203.999,  38.00083,     94.09333,0.86850,3
207.198,  38.64083,     94.08248,0.86617,3
210.391,  39.28083,     94.14933,0.86381,3
213.566,  39.92083,     94.15581,0.86143,3
216.757,  40.56083,     94.19029,0.85901,3
219.949,  41.20083,     94.20324,0.85655,3
223.123,  41.84083,     94.20971,0.85408,3
226.31,  42.48083,     94.22267,0.85157,3
229.484,  43.12083,     94.23562,0.84904,3
232.666,  43.76083,     94.22267,0.84648,3
235.844,  44.40083,     94.23562,0.84389,3
239.015,  45.04083,     94.23562,0.84129,3
242.212,  45.68083,     94.23562,0.83863,3
245.395,  46.32083,     94.21619,0.83596,3
248.575,  46.96083,     94.20971,0.83328,3
251.767,  47.60083,     94.20971,0.83056,3
254.962,  48.24083,     94.18381,0.82781,3
258.153,  48.88083,     94.18381,0.82505,3
261.34,  49.52083,     94.15790,0.82227,3
264.526,  50.16083,     94.13219,0.81947,3
267.717,  50.80083,     94.08686,0.81664,3
270.91,  51.44083,     94.07829,0.81380,3
274.096,  52.08083,     94.02648,0.81095,3
277.293,  52.72083,     94.00057,0.80807,3
280.47,  53.36083,     93.97486,0.80519,3
283.655,  54.00083,     93.92305,0.80229,3
286.838,  54.64083,     93.87143,0.79938,3
290.037,  55.28083,     93.81962,0.79644,3
293.215,  55.92083,     93.75505,0.79351,3
296.416,  56.56083,     93.70114,0.79054,3
300.953,  57.56083,     93.51371,0.78632,4
302.697,  59.16083,     92.90590,0.78469,4
303.312,  60.76083,     92.58267,0.78411,4
302.873,  62.36083,     92.27238,0.78452,4
302.245,  63.96083,     92.04838,0.78511,4
301.646,  65.56083,     91.83067,0.78567,4
301.179,  67.16083,     91.66895,0.78611,4
300.826,  68.76083,     91.50095,0.78644,4
300.556,  70.36083,     91.31771,0.78669,4
300.389,  71.96083,     91.18210,0.78684,4
300.258,  73.56083,     91.03981,0.78697,4
300.177,  75.16083,     90.91695,0.78704,4
300.121,  76.76083,     90.78114,0.78709,4
300.076,  78.36083,     90.67771,0.78714,4
300.058,  79.96083,     90.56133,0.78715,4
300.045,  81.56083,     90.47086,0.78716,4
300.027,  83.16083,     90.36743,0.78718,4
300.033,  84.76083,     90.28990,0.78718,4
300.025,  86.36083,     90.21238,0.78718,4
300.004,  87.96083,     90.09600,0.78720,4
300.018,  89.56083,     90.04419,0.78719,4
300.015,  91.16083,     89.96667,0.78719,4
300.026,  92.76083,     89.92133,0.78718,4
300.011,  94.36083,     89.85029,0.78720,4
300.014,  95.96083,     89.77695,0.78719,4
300.013,  97.56083,     89.74895,0.78719,4
300.004,  99.16083,     89.69733,0.78720,4
300.02, 100.761,     89.65200,0.78719,4
300.009, 102.361,     89.59162,0.78720,4
300.029, 103.961,     89.54000,0.78718,4
300.017, 105.561,     89.52057,0.78719,4
300.005, 107.161,     89.49467,0.78720,4
300.011, 108.761,     89.46876,0.78720,4
299.999, 110.361,     89.41714,0.78721,4
300.003, 111.961,     89.38476,0.78720,4
300.022, 113.561,     89.35238,0.78719,4
300.021, 115.161,     89.32667,0.78719,4
300.031, 116.761,     89.30076,0.78718,4
300.02, 118.361,     89.28990,0.78719,4
300.01, 119.961,     89.25771,0.78720,4
300.005, 121.561,     89.24895,0.78720,4
300.019, 123.161,     89.20381,0.78719,4
300.015, 124.761,     89.17790,0.78719,4
300.017, 126.361,     89.17143,0.78719,4
300.017, 127.961,     89.17143,0.78719,4
300.009, 129.561,     89.13276,0.78720,4
300.011, 131.161,     89.11981,0.78720,4
300.005, 132.761,     89.11981,0.78720,4
300.02, 134.361,     89.08095,0.78719,4
300.016, 135.961,     89.07886,0.78719,4
300.013, 137.561,     89.05505,0.78719,4
300.005, 139.161,     89.04210,0.78720,4
300.009, 140.761,     89.04210,0.78720,4
300.015, 142.361,     89.00990,0.78719,4
300.016, 143.961,     88.99048,0.78719,4
300.01, 145.561,     88.97752,0.78720,4
299.999, 147.161,     88.97752,0.78721,4
300.01, 148.761,     88.95390,0.78720,4
300.015, 150.361,     88.94095,0.78719,4
300.013, 151.961,     88.91505,0.78719,4
300.014, 153.561,     88.90857,0.78719,4
300.013, 155.161,     88.92152,0.78719,4
300.018, 156.761,     88.89562,0.78719,4
300.013, 158.361,     88.87410,0.78719,4
300.025, 159.961,     88.86114,0.78718,4
300.008, 161.561,     88.86552,0.78720,4
300.021, 163.161,     88.86552,0.78719,4
300.022, 164.761,     88.83962,0.78719,4
300.004, 166.361,     88.83105,0.78720,4
300.022, 167.961,     88.80952,0.78719,4
300.005, 169.561,     88.80305,0.78720,4
300.022, 171.161,     88.77714,0.78719,4
300.018, 172.761,     88.77276,0.78719,4
300.015, 174.361,     88.74686,0.78719,4
300.011, 175.961,     88.75981,0.78720,4
300.01, 177.561,     88.72324,0.78720,4
300.009, 179.161,     88.74914,0.78720,4
300.022, 180.761,     88.71238,0.78719,4
300.017, 182.361,     88.68667,0.78719,4
300.032, 183.961,     88.69962,0.78718,4
300.015, 185.561,     88.68229,0.78719,4
300.009, 187.161,     88.67581,0.78720,4
300.013, 188.761,     88.65638,0.78719,4
300.009, 190.361,     88.64990,0.78720,4
300.003, 191.961,     88.57676,0.78720,4
300.011, 193.561,     88.58971,0.78720,4
299.999, 195.161,     88.64133,0.78721,4
300.014, 196.761,     88.58971,0.78719,4
300.012, 198.361,     88.62838,0.78719,4
300.012, 199.961,     88.60895,0.78719,4
300.019, 201.561,     88.63486,0.78719,4
300.017, 203.161,     88.60895,0.78719,4
300.017, 204.761,     88.60895,0.78719,4
300.018, 206.361,     88.60248,0.78719,4
300.017, 207.961,     88.60248,0.78719,4
300.014, 209.561,     88.61981,0.78719,4
300.016, 211.161,     88.58743,0.78719,4
300.001, 212.761,     88.57448,0.78721,4
300.024, 214.361,     88.59390,0.78718,4
300.014, 215.961,     88.55524,0.78719,4
300.004, 217.561,     88.55524,0.78720,4
300.015, 219.161,     88.53143,0.78719,4
300.007, 220.761,     88.51200,0.78720,4
300.02, 222.361,     88.48629,0.78719,4
300.011, 223.961,     88.49486,0.78720,4
300.006, 225.561,     88.47543,0.78720,4
300.023, 227.161,     88.44952,0.78718,4
300.014, 228.761,     88.44952,0.78719,4
300.024, 230.361,     88.44952,0.78718,4
300.003, 231.961,     88.41714,0.78720,4
300.01, 233.561,     88.39143,0.78720,4
300.001, 235.161,     88.39143,0.78721,4
300.009, 236.761,     88.36552,0.78720,4
300.014, 238.361,     88.33962,0.78719,4
300.017, 239.961,     88.33314,0.78719,4
300.014, 241.561,     88.32667,0.78719,4
300.017, 243.161,     88.31371,0.78719,4
300.014, 244.761,     88.30095,0.78719,4
300.002, 246.361,     88.28152,0.78720,4
300.011, 247.961,     88.27505,0.78720,4
300.009, 249.561,     88.25562,0.78720,4
300.025, 251.161,     88.24914,0.78718,4
300.022, 252.761,     88.21676,0.78719,4
300.017, 254.361,     88.21905,0.78719,4
300.019, 255.961,     88.20610,0.78719,4
300.021, 257.561,     88.20610,0.78719,4
300.008, 259.161,     88.17371,0.78720,4
300.019, 260.761,     88.15657,0.78719,4
299.998, 262.361,     88.16076,0.78721,4
300.003, 263.961,     88.13486,0.78720,4
300.007, 265.561,     88.12838,0.78720,4
300.007, 267.161,     88.12210,0.78720,4
300.019, 268.761,     88.11562,0.78719,4
300.014, 270.361,     88.08324,0.78719,4
300.019, 271.961,     88.10267,0.78719,4
300.014, 273.561,     88.07467,0.78719,4
300.024, 275.161,     88.07467,0.78718,4
300.036, 276.761,     88.04876,0.78717,4
300.015, 278.361,     88.04876,0.78719,4
300.018, 279.961,     88.02286,0.78719,4
300.014, 281.561,     88.03581,0.78719,4
300.012, 283.161,     87.99924,0.78719,4
300.009, 284.761,     88.00571,0.78720,4
300.011, 286.361,     88.00990,0.78720,4
300.016, 287.961,     87.99048,0.78719,4
300.014, 289.561,     87.96476,0.78719,4
300.016, 291.161,     87.95181,0.78719,4
300.017, 292.761,     87.93238,0.78719,4
300.025, 294.361,     87.90648,0.78718,4
300.015, 295.961,     87.90000,0.78719,4
300.005, 297.561,     87.90648,0.78720,4
300.005, 299.161,     87.86133,0.78720,4
300.004, 300.761,     87.84190,0.78720,4
300.01, 302.361,     87.84838,0.78720,4
300.023, 303.961,     87.83752,0.78718,4
300.019, 305.561,     87.82457,0.78719,4
299.998, 307.161,     87.81162,0.78721,4
300.007, 308.761,     87.79886,0.78720,4
300.019, 310.361,     87.79886,0.78719,4
300.02, 311.961,     87.79238,0.78719,4
300.01, 313.561,     87.77943,0.78720,4
300.012, 315.161,     87.79238,0.78719,4
300.007, 316.761,     87.79010,0.78720,4
300.013, 318.361,     87.76857,0.78719,4
300.02, 319.961,     87.74267,0.78719,4
300.018, 321.561,     87.76857,0.78719,4
300.032, 323.161,     87.74914,0.78718,4
300.013, 324.761,     87.75352,0.78719,4
300.009, 326.361,     87.77295,0.78720,4
300.019, 327.961,     87.76000,0.78719,4
300.023, 329.561,     87.76648,0.78718,4
300.02, 331.161,     87.76648,0.78719,4
300.011, 332.761,     87.74057,0.78720,4
300.031, 334.361,     87.74705,0.78718,4
300.016, 335.961,     87.73848,0.78719,4
300.02, 337.561,     87.75143,0.78719,4
300.016, 339.161,     87.73200,0.78719,4
300.022, 340.761,     87.73200,0.78719,4
300.009, 342.361,     87.71905,0.78720,4
300.036, 343.961,     87.72990,0.78717,4
300.019, 345.561,     87.70400,0.78719,4
300.022, 347.161,     87.71048,0.78719,4
300.018, 348.761,     87.72990,0.78719,4
300.012, 350.361,     87.72990,0.78719,4
300.016, 351.961,     87.70400,0.78719,4
300.015, 353.561,     87.69105,0.78719,4
300.018, 355.161,     87.72990,0.78719,4
300.022, 356.761,     87.72343,0.78719,4
300.023, 358.361,     87.69752,0.78718,4
300.009, 359.961,     87.71695,0.78720,4
300.016, 361.561,     87.68457,0.78719,4
300.007, 363.161,     87.67810,0.78720,4
300.025, 364.761,     87.68457,0.78718,4
300.018, 366.361,     87.60914,0.78719,4
300.021, 367.961,     87.64800,0.78719,4
300.009, 369.561,     87.65448,0.78720,4
300.01, 371.161,     87.64800,0.78720,4
300.03, 372.761,     87.67371,0.78718,4
300.017, 374.361,     87.66076,0.78719,4
300.004, 375.961,     87.65448,0.78720,4
300.016, 377.561,     87.65448,0.78719,4
300.007, 379.161,     87.65448,0.78720,4
300.014, 380.761,     87.65219,0.78719,4
300.015, 382.361,     87.64571,0.78719,4
300.025, 383.961,     87.63924,0.78718,4
300.014, 385.561,     87.63276,0.78719,4
300.012, 387.161,     87.63276,0.78719,4
300.022, 388.761,     87.63924,0.78719,4
300.01, 390.361,     87.61352,0.78720,4
300.019, 391.961,     87.60914,0.78719,4
300.021, 393.561,     87.58971,0.78719,4
300.026, 395.161,     87.58762,0.78718,4
300.012, 396.761,     87.57467,0.78719,4
300.007, 398.361,     87.56171,0.78720,4
300.01, 399.961,     87.55524,0.78720,4
300.019, 401.561,     87.52286,0.78719,4
300.006, 403.161,     87.52286,0.78720,4
300.01, 404.761,     87.50362,0.78720,4
300.017, 406.361,     87.49714,0.78719,4
300.012, 407.961,     87.49714,0.78719,4
300.011, 409.561,     87.47771,0.78720,4
300.008, 411.161,     87.47771,0.78720,4
300.012, 412.761,     87.45181,0.78719,4
300.007, 414.361,     87.45829,0.78720,4
300.017, 415.961,     87.41733,0.78719,4
300.012, 417.561,     87.41733,0.78719,4
300.027, 419.161,     87.39790,0.78718,4
300.016, 420.761,     87.37638,0.78719,4
300.016, 422.361,     87.36990,0.78719,4
300.016, 423.961,     87.35924,0.78719,4
300.011, 425.561,     87.36133,0.78720,4
300.021, 427.161,     87.34190,0.78719,4
300.015, 428.761,     87.31600,0.78719,4
300.015, 430.361,     87.32895,0.78719,4
300.015, 431.961,     87.33752,0.78719,4
300.008, 433.561,     87.33752,0.78720,4
300.012, 435.161,     87.31181,0.78719,4
300.032, 436.761,     87.27295,0.78718,4
300.024, 438.361,     87.26000,0.78718,4
300.013, 439.961,     87.23410,0.78719,4
300.005, 441.561,     87.20838,0.78720,4
300.017, 443.161,     87.20190,0.78719,4
300.012, 444.761,     87.18248,0.78719,4
300.017, 446.361,     87.16514,0.78719,4
300.017, 447.961,     87.08114,0.78719,4
300.013, 449.561,     87.13295,0.78719,4
300.014, 451.161,     87.13295,0.78719,4
300.004, 452.761,     87.10705,0.78720,4
300.015, 454.361,     87.13943,0.78719,4
300.022, 455.961,     87.15238,0.78719,4
300.029, 457.561,     87.14590,0.78718,4
300.035, 459.161,     87.14590,0.78717,4
300.018, 460.761,     87.14590,0.78719,4
300.03, 462.361,     87.13943,0.78718,4
300.023, 463.961,     87.14590,0.78718,4
300.028, 465.561,     87.15238,0.78718,4
300.028, 467.161,     87.15238,0.78718,4
300.02, 468.761,     87.16514,0.78719,4
300.03, 470.361,     87.13943,0.78718,4
300.023, 471.961,     87.14590,0.78718,4
300.023, 473.561,     87.10914,0.78718,4
300.02, 475.161,     87.11562,0.78719,4
300.013, 476.761,     87.11562,0.78719,4
300.009, 478.361,     87.11562,0.78720,4
300.013, 479.961,     87.10267,0.78719,4
300.013, 481.561,     87.08343,0.78719,4
300.011, 483.161,     87.10914,0.78720,4
300.015, 484.761,     87.10267,0.78719,4
300.017, 486.361,     87.07048,0.78719,4
300.022, 487.961,     87.05105,0.78719,4
300.012, 489.561,     87.05105,0.78719,4
300.008, 491.161,     87.06400,0.78720,4
300.024, 492.761,     87.03810,0.78718,4
300.017, 494.361,     87.03162,0.78719,4
300.012, 495.961,     87.01219,0.78719,4
300.014, 497.561,     86.98629,0.78719,4
300.022, 499.161,     87.01429,0.78719,4
300.012, 500.761,     87.02305,0.78719,4
300.019, 502.361,     87.01010,0.78719,4
300.013, 503.961,     86.99067,0.78719,4
300.02, 505.561,     86.97771,0.78719,4
300.015, 507.161,     86.98419,0.78719,4
300.015, 508.761,     86.94971,0.78719,4
300.019, 510.361,     86.95829,0.78719,4
300.021, 511.961,     86.93257,0.78719,4
300.009, 513.561,     86.94533,0.78720,4
300.006, 515.161,     86.94533,0.78720,4
300.017, 516.761,     86.95829,0.78719,4
300.009, 518.361,     86.92819,0.78720,4
300.012, 519.961,     86.88286,0.78719,4
300.021, 521.561,     86.90876,0.78719,4
300.015, 523.161,     86.88933,0.78719,4
300.013, 524.761,     86.87638,0.78719,4
300.022, 526.361,     86.85714,0.78719,4
300.014, 527.961,     86.85714,0.78719,4
300.019, 529.561,     86.86362,0.78719,4
300.026, 531.161,     86.86990,0.78718,4
300.018, 532.761,     86.85714,0.78719,4
300.022, 534.361,     86.82914,0.78719,4
300.018, 535.961,     86.79029,0.78719,4
300.019, 537.561,     86.80324,0.78719,4
300.03, 539.161,     86.79029,0.78718,4
300.026, 540.761,     86.78381,0.78718,4
300.014, 542.361,     86.80971,0.78719,4
300.003, 543.961,     86.77733,0.78720,4
300.009, 545.561,     86.77733,0.78720,4
300.014, 547.161,     86.78381,0.78719,4
300.013, 548.761,     86.78381,0.78719,4
300.022, 550.361,     86.78381,0.78719,4
300.014, 551.961,     86.78381,0.78719,4
300.017, 553.561,     86.75790,0.78719,4
300.009, 555.161,     86.74286,0.78720,4
300.014, 556.761,     86.74933,0.78719,4
300.018, 558.361,     86.76876,0.78719,4
300.014, 559.961,     86.74933,0.78719,4
300.017, 561.561,     86.73638,0.78719,4
300.016, 563.161,     86.71048,0.78719,4
300.023, 564.761,     86.71048,0.78718,4
300.028, 566.361,     86.71048,0.78718,4
300.025, 567.961,     86.67181,0.78718,4
300.028, 569.561,     86.69752,0.78718,4
300.024, 571.161,     86.67181,0.78718,4
300.02, 572.761,     86.68686,0.78719,4
300.014, 574.361,     86.68686,0.78719,4
300.013, 575.961,     86.66743,0.78719,4
300.016, 577.561,     86.65448,0.78719,4
300.026, 579.161,     86.65448,0.78718,4
300.012, 580.761,     86.65448,0.78719,4
300.028, 582.361,     86.65448,0.78718,4
300.004, 583.961,     86.65448,0.78720,4
300.011, 585.561,     86.65448,0.78720,4
300.02, 587.161,     86.65448,0.78719,4
300.02, 588.761,     86.65448,0.78719,4
300.018, 590.361,     86.65029,0.78719,4
300.011, 591.961,     86.66305,0.78720,4
300.018, 593.561,     86.62857,0.78719,4
300.016, 595.161,     86.62857,0.78719,4
300.008, 596.761,     86.60933,0.78720,4
300.013, 598.361,     86.60933,0.78719,4
300.016, 599.961,     86.62210,0.78719,4
300.027, 601.561,     86.59638,0.78718,4
300.016, 603.161,     86.59638,0.78719,4
300.013, 604.761,     86.64152,0.78719,4
300.022, 606.361,     86.59638,0.78719,4
300.007, 607.961,     86.59848,0.78720,4
300.025, 609.561,     86.59410,0.78718,4
300.016, 611.161,     86.56838,0.78719,4
300.012, 612.761,     86.58762,0.78719,4
300.008, 614.361,     86.57486,0.78720,4
300.023, 615.961,     86.56190,0.78718,4
300.016, 617.561,     86.56838,0.78719,4
300.023, 619.161,     86.53600,0.78718,4
300.016, 620.761,     86.56190,0.78719,4
300.019, 622.361,     86.52305,0.78719,4
300.017, 623.961,     86.54895,0.78719,4
300.022, 625.561,     86.52305,0.78719,4
300.015, 627.161,     86.53600,0.78719,4
300.021, 628.761,     86.53600,0.78719,4
300.018, 630.361,     86.53390,0.78719,4
300.017, 631.961,     86.54038,0.78719,4
300.011, 633.561,     86.53390,0.78720,4
299.999, 635.161,     86.52743,0.78721,4
300.01, 636.761,     86.50152,0.78720,4
300.011, 638.361,     86.52305,0.78720,4
300.009, 639.961,     86.49714,0.78720,4
300.009, 641.561,     86.49714,0.78720,4
300.02, 643.161,     86.51657,0.78719,4
300.011, 644.761,     86.49067,0.78720,4
300.018, 646.361,     86.48648,0.78719,4
300.02, 647.961,     86.48648,0.78719,4
300.025, 649.561,     86.49943,0.78718,4
300.006, 651.161,     86.48000,0.78720,4
300.026, 652.761,     86.45410,0.78718,4
300.022, 654.361,     86.45410,0.78719,4
300.011, 655.961,     86.47352,0.78720,4
300.022, 657.561,     86.46057,0.78719,4
300.018, 659.161,     86.46057,0.78719,4
300.024, 660.761,     86.46705,0.78718,4
300.015, 662.361,     86.48648,0.78719,4
300.008, 663.961,     86.44762,0.78720,4
300.02, 665.561,     86.46705,0.78719,4
300.014, 667.161,     86.45410,0.78719,4
300.019, 668.761,     86.45410,0.78719,4
300.021, 670.361,     86.46705,0.78719,4
300.019, 671.961,     86.44114,0.78719,4
300.016, 673.561,     86.44114,0.78719,4
300.015, 675.161,     86.45410,0.78719,4
300.035, 676.761,     86.42819,0.78717,4
300.023, 678.361,     86.41524,0.78718,4
300.024, 679.961,     86.41962,0.78718,4
300.018, 681.561,     86.41962,0.78719,4
300.028, 683.161,     86.39371,0.78718,4
300.023, 684.761,     86.41962,0.78718,4
300.017, 686.361,     86.40667,0.78719,4
300.015, 687.961,     86.39371,0.78719,4
300.008, 689.561,     86.38724,0.78720,4
300.015, 691.161,     86.39371,0.78719,4
300.017, 692.761,     86.38514,0.78719,4
300.012, 694.361,     86.39810,0.78719,4
300.017, 695.961,     86.39162,0.78719,4
300.028, 697.561,     86.39162,0.78718,4
300.018, 699.161,     86.39371,0.78719,4
300.013, 700.761,     86.38724,0.78719,4
300.014, 702.361,     86.36152,0.78719,4
300.018, 703.961,     86.37429,0.78719,4
300.009, 705.561,     86.35505,0.78720,4
299.999, 707.161,     86.38724,0.78721,4
300.016, 708.761,     86.35505,0.78719,4
300.014, 710.361,     86.36781,0.78719,4
300.022, 711.961,     86.36781,0.78719,4
300.011, 713.561,     86.34857,0.78720,4
300.019, 715.161,     86.33562,0.78719,4
300.015, 716.761,     86.32914,0.78719,4
300.012, 718.361,     86.35505,0.78719,4
300.016, 719.961,     86.31619,0.78719,4
300.001, 721.561,     86.33562,0.78721,4
300.023, 723.161,     86.32914,0.78718,4
300.025, 724.761,     86.30971,0.78718,4
300.016, 726.361,     86.30971,0.78719,4
300.004, 727.961,     86.33562,0.78720,4
300.028, 729.561,     86.32267,0.78718,4
300.025, 731.161,     86.30971,0.78718,4
300.013, 732.761,     86.30971,0.78719,4
300.014, 734.361,     86.29029,0.78719,4
300.013, 735.961,     86.31619,0.78719,4
300.022, 737.561,     86.28610,0.78719,4
300.021, 739.161,     86.28610,0.78719,4
300.012, 740.761,     86.27962,0.78719,4
300.015, 742.361,     86.29886,0.78719,4
300.026, 743.961,     86.32267,0.78718,4
300.027, 745.561,     86.30971,0.78718,4
300.022, 747.161,     86.30971,0.78719,4
300.013, 748.761,     86.30114,0.78719,4
300.016, 750.361,     86.30324,0.78719,4
300.008, 751.961,     86.30324,0.78720,4
300.019, 753.561,     86.29676,0.78719,4
300.03, 755.161,     86.27733,0.78718,4
300.018, 756.761,     86.27524,0.78719,4
300.014, 758.361,     86.28819,0.78719,4
300.015, 759.961,     86.26019,0.78719,4
300.017, 761.561,     86.26019,0.78719,4
300.017, 763.161,     86.26438,0.78719,4
300.021, 764.761,     86.27962,0.78719,4
300.02, 766.361,     86.26019,0.78719,4
300.019, 767.961,     86.24724,0.78719,4
300.016, 769.561,     86.24076,0.78719,4
300.02, 771.161,     86.26667,0.78719,4
300.008, 772.761,     86.22781,0.78720,4
300.019, 774.361,     86.24724,0.78719,4
300.008, 775.961,     86.24724,0.78720,4
300.007, 777.561,     86.23429,0.78720,4
300.023, 779.161,     86.20838,0.78718,4
300.022, 780.761,     86.20838,0.78719,4
300.017, 782.361,     86.20190,0.78719,4
300.011, 783.961,     86.20190,0.78720,4
300.029, 785.561,     86.21486,0.78718,4
300.026, 787.161,     86.22781,0.78718,4
300.02, 788.761,     86.20838,0.78719,4
300.01, 790.361,     86.20838,0.78720,4
300.008, 791.961,     86.18895,0.78720,4
300.01, 793.561,     86.18895,0.78720,4
300.013, 795.161,     86.17619,0.78719,4
300.022, 796.761,     86.19543,0.78719,4
300.01, 798.361,     86.19543,0.78720,4
300.018, 799.961,     86.17619,0.78719,4
300.015, 801.561,     86.18895,0.78719,4
300.007, 803.161,     86.18895,0.78720,4
300.011, 804.761,     86.18267,0.78720,4
300.021, 806.361,     86.18267,0.78719,4
300.007, 807.961,     86.16324,0.78720,4
300.01, 809.561,     86.16971,0.78720,4
300.027, 811.161,     86.15029,0.78718,4
300.032, 812.761,     86.15676,0.78718,4
300.01, 814.361,     86.13733,0.78720,4
300.018, 815.961,     86.13086,0.78719,4
300.018, 817.561,     86.13733,0.78719,4
300.035, 819.161,     86.13733,0.78717,4
300.02, 820.761,     86.13733,0.78719,4
300.025, 822.361,     86.14381,0.78718,4
300.01, 823.961,     86.11790,0.78720,4
300.01, 825.561,     86.11790,0.78720,4
300.028, 827.161,     86.09200,0.78718,4
300.011, 828.761,     86.09200,0.78720,4
300.018, 830.361,     86.11143,0.78719,4
300.013, 831.961,     86.12648,0.78719,4
300.013, 833.561,     86.08133,0.78719,4
300.008, 835.161,     86.07486,0.78720,4
300.009, 836.761,     86.08133,0.78720,4
300.009, 838.361,     86.05333,0.78720,4
300.017, 839.961,     86.05333,0.78719,4
300.017, 841.561,     86.05105,0.78719,4
300.008, 843.161,     86.06400,0.78720,4
300.008, 844.761,     86.07048,0.78720,4
300.023, 846.361,     86.05105,0.78718,4
300.016, 847.961,     86.03181,0.78719,4
300.014, 849.561,     86.03181,0.78719,4
300.023, 851.161,     86.04457,0.78718,4
300.025, 852.761,     86.04457,0.78718,4
300.008, 854.361,     86.02533,0.78720,4
300.018, 855.961,     86.02533,0.78719,4
300.007, 857.561,     86.04457,0.78720,4
300.016, 859.161,     86.04457,0.78719,4
300.03, 860.761,     86.01886,0.78718,4
300.026, 862.361,     86.01886,0.78718,4
300.001, 863.961,     85.99943,0.78721,4
300.019, 865.561,     86.01886,0.78719,4
300.017, 867.161,     85.99295,0.78719,4
300.016, 868.761,     85.98438,0.78719,4
300.019, 870.361,     85.96495,0.78719,4
300.018, 871.961,     85.96495,0.78719,4
299.999, 873.561,     85.96495,0.78721,4
299.997, 875.161,     85.96495,0.78721,4
300.007, 876.761,     85.96495,0.78720,4
300.012, 878.361,     85.95200,0.78719,4
300.022, 879.961,     85.93257,0.78719,4
300.028, 881.561,     85.94552,0.78718,4
300.014, 883.161,     85.94552,0.78719,4
300.016, 884.761,     85.94552,0.78719,4
300.009, 886.361,     85.92610,0.78720,4
300.022, 887.961,     85.94552,0.78719,4
300.027, 889.561,     85.93257,0.78718,4
300.017, 891.161,     85.92610,0.78719,4
300.006, 892.761,     85.90667,0.78720,4
300.021, 894.361,     85.91314,0.78719,4
300.002, 895.961,     85.92610,0.78720,4
300.017, 897.561,     85.91962,0.78719,4
300.02, 899.161,     85.89390,0.78719,4
300.02, 900.761,     85.89810,0.78719,4
300.011, 902.361,     85.89162,0.78720,4
300.012, 903.961,     85.87867,0.78719,4
300.02, 905.561,     85.87867,0.78719,4
300.006, 907.161,     85.85295,0.78720,4
300.012, 908.761,     85.86571,0.78719,4
300.019, 910.361,     85.85924,0.78719,4
300.006, 911.961,     85.86571,0.78720,4
300.006, 913.561,     85.86571,0.78720,4
300.018, 915.161,     85.87867,0.78719,4
300.021, 916.761,     85.86571,0.78719,4
300.025, 918.361,     85.85295,0.78718,4
300.012, 919.961,     85.84648,0.78719,4
300.006, 921.561,     85.84648,0.78720,4
300.013, 923.161,     85.84648,0.78719,4
300.012, 924.761,     85.82705,0.78719,4
300.009, 926.361,     85.80552,0.78720,4
300.022, 927.961,     85.83124,0.78719,4
300.027, 929.561,     85.83352,0.78718,4
300.03, 931.161,     85.81410,0.78718,4
300.013, 932.761,     85.84000,0.78719,4
300.001, 934.361,     85.82705,0.78721,4
300.022, 935.961,     85.81410,0.78719,4
300.019, 937.561,     85.81410,0.78719,4
300.013, 939.161,     85.81410,0.78719,4
300.006, 940.761,     85.79467,0.78720,4
300.007, 942.361,     85.80552,0.78720,4
300.01, 943.961,     85.80324,0.78720,4
300.012, 945.561,     85.79676,0.78719,4
300.007, 947.161,     85.79676,0.78720,4
300.014, 948.761,     85.79029,0.78719,4
300.023, 950.361,     85.79029,0.78718,4
300.015, 951.961,     85.77752,0.78719,4
300.015, 953.561,     85.77752,0.78719,4
300.02, 955.161,     85.78400,0.78719,4
300.026, 956.761,     85.76457,0.78718,4
300.026, 958.361,     85.76457,0.78718,4
300.019, 959.961,     85.76457,0.78719,4
300.01, 961.561,     85.76457,0.78720,4
300.016, 963.161,     85.74514,0.78719,4
300.009, 964.761,     85.75162,0.78720,4
300.02, 966.361,     85.76457,0.78719,4
300.011, 967.961,     85.73867,0.78720,4
300.027, 969.561,     85.73219,0.78718,4
300.026, 971.161,     85.73867,0.78718,4
300.009, 972.761,     85.73867,0.78720,4
300.006, 974.361,     85.72571,0.78720,4
300.025, 975.961,     85.73219,0.78718,4
300.015, 977.561,     85.71276,0.78719,4
300.009, 979.161,     85.72571,0.78720,4
300.02, 980.761,     85.70629,0.78719,4
300.002, 982.361,     85.69981,0.78720,4
300.009, 983.961,     85.69981,0.78720,4
300.01, 985.561,     85.71924,0.78720,4
300.013, 987.161,     85.71924,0.78719,4
300.015, 988.761,     85.69333,0.78719,4
300.018, 990.361,     85.66762,0.78719,4
300.022, 991.961,     85.69771,0.78719,4
300.012, 993.561,     85.67829,0.78719,4
300.013, 995.161,     85.67829,0.78719,4
300.019, 996.761,     85.69124,0.78719,4
300, 998.361,     85.69124,0.78721,4
300.02, 999.961,     85.67829,0.78719,4
300.013,1001.56,     85.67829,0.78719,4
300.011,1003.16,     85.64590,0.78720,4
300.024,1004.76,     85.65886,0.78718,4
300.021,1006.36,     85.66533,0.78719,4
300.013,1007.96,     85.63962,0.78719,4
300.029,1009.56,     85.63086,0.78718,4
300.015,1011.16,     85.63733,0.78719,4
300.009,1012.76,     85.62438,0.78720,4
300.026,1014.36,     85.63086,0.78718,4
300.019,1015.96,     85.60514,0.78719,4
300.026,1017.56,     85.60286,0.78718,4
300.015,1019.16,     85.62229,0.78719,4
300.018,1020.76,     85.59638,0.78719,4
300.016,1022.36,     85.60933,0.78719,4
300.015,1023.96,     85.59638,0.78719,4
300.014,1025.56,     85.58343,0.78719,4
300.014,1027.16,     85.58343,0.78719,4
300.021,1028.76,     85.59638,0.78719,4
300.017,1030.36,     85.58343,0.78719,4
300.005,1031.96,     85.56419,0.78720,4
300.019,1033.56,     85.57067,0.78719,4
300.024,1035.16,     85.56419,0.78718,4
300.023,1036.76,     85.55771,0.78718,4
300.009,1038.36,     85.57695,0.78720,4
300.018,1039.96,     85.57067,0.78719,4
300.008,1041.56,     85.55771,0.78720,4
300.007,1043.16,     85.55333,0.78720,4
300.007,1044.76,     85.54895,0.78720,4
300.023,1046.36,     85.54895,0.78718,4
300.01,1047.96,     85.55543,0.78720,4
300.033,1049.56,     85.54248,0.78718,4
300.033,1051.16,     85.54248,0.78718,4
300.01,1052.76,     85.53600,0.78720,4
300.021,1054.36,     85.54895,0.78719,4
300.017,1055.96,     85.53600,0.78719,4
300.017,1057.56,     85.51676,0.78719,4
300.021,1059.16,     85.51676,0.78719,4
300.007,1060.76,     85.51029,0.78720,4
300.011,1062.36,     85.50381,0.78720,4
300.01,1063.96,     85.50381,0.78720,4
300.01,1065.56,     85.50381,0.78720,4
300.013,1067.16,     85.50381,0.78719,4
300.012,1068.76,     85.49295,0.78719,4
300.03,1070.36,     85.50590,0.78718,4
300.014,1071.96,     85.48648,0.78719,4
300.009,1073.56,     85.50590,0.78720,4
300.02,1075.16,     85.48000,0.78719,4
300.017,1076.76,     85.46705,0.78719,4
300.018,1078.36,     85.46705,0.78719,4
300.01,1079.96,     85.46076,0.78720,4
300.019,1081.56,     85.48000,0.78719,4
300.015,1083.16,     85.47790,0.78719,4
300.014,1084.76,     85.47790,0.78719,4
300.026,1086.36,     85.45200,0.78718,4
300.019,1087.96,     85.43257,0.78719,4
300.026,1089.56,     85.43905,0.78718,4
300.026,1091.16,     85.43257,0.78718,4
300.018,1092.76,     85.43257,0.78719,4
300.016,1094.36,     85.42629,0.78719,4
300.01,1095.96,     85.41981,0.78720,4
299.996,1097.56,     85.41981,0.78721,4
300.024,1099.16,     85.43257,0.78718,4
300.011,1100.76,     85.41333,0.78720,4
300.014,1102.36,     85.40038,0.78719,4
300.01,1103.96,     85.41981,0.78720,4
300.019,1105.56,     85.39390,0.78719,4
300.021,1107.16,     85.40038,0.78719,4
300.02,1108.76,     85.39390,0.78719,4
300.02,1110.36,     85.38743,0.78719,4
300.022,1111.96,     85.38095,0.78719,4
300.024,1113.56,     85.40686,0.78718,4
300.025,1115.16,     85.38095,0.78718,4
300.024,1116.76,     85.38095,0.78718,4
300.012,1118.36,     85.36800,0.78719,4
300.028,1119.96,     85.37448,0.78718,4
300.009,1121.56,     85.36800,0.78720,4
300.019,1123.16,     85.36152,0.78719,4
300.022,1124.76,     85.33562,0.78719,4
300.012,1126.36,     85.34648,0.78719,4
300.021,1127.96,     85.34000,0.78719,4
300.029,1129.56,     85.32705,0.78718,4
300.014,1131.16,     85.32705,0.78719,4
300.015,1132.76,     85.34000,0.78719,4
300.01,1134.36,     85.35295,0.78720,4
300.011,1135.96,     85.33352,0.78720,4
300.018,1137.56,     85.30762,0.78719,4
300.017,1139.16,     85.32057,0.78719,4
300.007,1140.76,     85.31848,0.78720,4
300.01,1142.36,     85.30552,0.78720,4
300.014,1143.96,     85.29905,0.78719,4
300.014,1145.56,     85.31200,0.78719,4
300.01,1147.16,     85.28610,0.78720,4
300.022,1148.76,     85.29905,0.78719,4
300.016,1150.36,     85.30552,0.78719,4
300.009,1151.96,     85.27314,0.78720,4
300.021,1153.56,     85.27314,0.78719,4
300.031,1155.16,     85.27314,0.78718,4
300.011,1156.76,     85.27314,0.78720,4
300.021,1158.36,     85.27314,0.78719,4
300.021,1159.96,     85.27962,0.78719,4
300.015,1161.56,     85.28610,0.78719,4
300.015,1163.16,     85.27314,0.78719,4
300.008,1164.76,     85.26019,0.78720,4
300.009,1166.36,     85.28610,0.78720,4
300.015,1167.96,     85.24724,0.78719,4
300.02,1169.56,     85.24724,0.78719,4
300.012,1171.16,     85.26019,0.78719,4
300.011,1172.76,     85.26019,0.78720,4
300.017,1174.36,     85.26667,0.78719,4
300.022,1175.96,     85.24095,0.78719,4
300.023,1177.56,     85.23448,0.78718,4
300.018,1179.16,     85.23448,0.78719,4
300.02,1180.76,     85.22152,0.78719,4
300.013,1182.36,     85.23219,0.78719,4
300.018,1183.96,     85.21276,0.78719,4
300.021,1185.56,     85.22571,0.78719,4
300.015,1187.16,     85.22571,0.78719,4
300.022,1188.76,     85.22571,0.78719,4
300.016,1190.36,     85.20648,0.78719,4
300.019,1191.96,     85.19352,0.78719,4
300.01,1193.56,     85.18705,0.78720,4
300.017,1195.16,     85.21276,0.78719,4
300.024,1196.76,     85.18705,0.78718,4
300.015,1198.36,     85.18057,0.78719,4
300.018,1199.96,     85.18057,0.78719,4
300.002,1201.56,     85.21067,0.78720,4
300.012,1203.16,     85.17200,0.78719,4
300.006,1204.76,     85.16762,0.78720,4
300.012,1206.36,     85.18705,0.78719,4
300.017,1207.96,     85.16762,0.78719,4
300.013,1209.56,     85.19352,0.78719,4
300.008,1211.16,     85.16762,0.78720,4
299.998,1212.76,     85.14819,0.78721,4
300,1214.36,     85.14819,0.78721,4
300.012,1215.96,     85.13524,0.78719,4
300.015,1217.56,     85.16114,0.78719,4
300.012,1219.16,     85.15467,0.78719,4
300.02,1220.76,     85.16114,0.78719,4
300.023,1222.36,     85.15905,0.78718,4
300.004,1223.96,     85.14610,0.78720,4
300.025,1225.56,     85.15905,0.78718,4
300.02,1227.16,     85.14819,0.78719,4
300.009,1228.76,     85.16114,0.78720,4
300.024,1230.36,     85.14171,0.78718,4
300.021,1231.96,     85.13524,0.78719,4
300.023,1233.56,     85.13524,0.78718,4
300.021,1235.16,     85.12876,0.78719,4
300.026,1236.76,     85.12876,0.78718,4
300.018,1238.36,     85.13524,0.78719,4
300.017,1239.96,     85.10933,0.78719,4
300.015,1241.56,     85.11581,0.78719,4
300.01,1243.16,     85.09867,0.78720,4
300.022,1244.76,     85.12457,0.78719,4
300.017,1246.36,     85.15029,0.78719,4
299.998,1247.96,     85.13752,0.78721,4
300.023,1249.56,     85.11810,0.78718,4
300.007,1251.16,     85.10514,0.78720,4
300.008,1252.76,     85.11162,0.78720,4
300.011,1254.36,     85.13752,0.78720,4
300.015,1255.96,     85.11810,0.78719,4
300.017,1256.99,     85.10076,0.78719,5
300.031,1257.07,     85.11371,0.78718,5
300.08,1257.15,     85.11371,0.78713,5
300.212,1257.23,     85.15467,0.78701,5
300.442,1257.31,     85.25162,0.78679,5
300.784,1257.39,     85.34210,0.78647,5
301.262,1257.47,     85.48876,0.78603,5
301.863,1257.55,     85.66114,0.78547,5
302.615,1257.63,     85.79905,0.78476,5
303.482,1257.71,     85.96914,0.78395,5
304.491,1257.79,     86.15238,0.78301,5
305.608,1257.87,     86.30533,0.78196,5
306.813,1257.95,     86.44762,0.78083,5
308.111,1258.03,     86.57048,0.77961,5
309.491,1258.11,     86.68038,0.77832,5
310.912,1258.19,     86.79886,0.77698,5
312.366,1258.27,     86.90229,0.77561,5
313.831,1258.35,     87.00362,0.77423,5
315.312,1258.43,     87.03371,0.77283,5
316.773,1258.51,     87.08971,0.77145,5
318.246,1258.59,     87.11562,0.77005,5
319.686,1258.67,     87.16743,0.76869,5
321.114,1258.75,     87.19314,0.76734,5
322.515,1258.83,     87.21905,0.76601,5
323.901,1258.91,     87.21905,0.76469,5
325.279,1258.99,     87.24495,0.76338,5
326.626,1259.07,     87.24495,0.76210,5
327.964,1259.15,     87.27086,0.76083,5
329.303,1259.23,     87.29676,0.75956,5
330.66,1259.31,     87.32248,0.75826,5
332.008,1259.39,     87.34838,0.75698,5
333.367,1259.47,     87.34838,0.75569,5
334.748,1259.55,     87.37429,0.75437,5
336.167,1259.63,     87.43029,0.75302,5
337.608,1259.71,     87.46476,0.75164,5
339.082,1259.79,     87.50362,0.75023,5
340.571,1259.87,     87.51638,0.74881,5
342.115,1259.95,     87.58552,0.74734,5
343.667,1260.03,     87.60476,0.74586,5
345.264,1260.11,     87.67371,0.74433,5
346.871,1260.19,     87.69962,0.74280,5
348.52,1260.27,     87.75143,0.74123,5
350.189,1260.35,     87.79010,0.73963,5
351.868,1260.43,     87.83105,0.73803,5
353.565,1260.51,     87.88286,0.73641,5
355.292,1260.59,     87.90876,0.73476,5
357.021,1260.67,     87.92800,0.73311,5
358.738,1260.75,     87.96476,0.73148,5
360.475,1260.83,     87.99048,0.72982,5
362.206,1260.91,     88.01638,0.72817,5
363.951,1260.99,     88.01638,0.72651,5
365.684,1261.07,     88.04229,0.72486,5
367.412,1261.15,     88.04229,0.72322,5
369.157,1261.23,     88.06819,0.72156,5
370.89,1261.31,     88.09390,0.71992,5
372.611,1261.39,     88.09390,0.71829,5
374.344,1261.47,     88.11333,0.71664,5
376.065,1261.55,     88.11981,0.71501,5
377.798,1261.63,     88.14571,0.71338,5
379.511,1261.71,     88.14571,0.71176,5
381.253,1261.79,     88.14571,0.71011,5
382.969,1261.87,     88.13924,0.70850,5
384.707,1261.95,     88.11981,0.70686,5
386.438,1262.03,     88.10038,0.70523,5
388.182,1262.11,     88.12629,0.70360,5
389.916,1262.19,     88.10038,0.70197,5
391.653,1262.27,     88.07467,0.70034,5
393.398,1262.35,     88.04876,0.69871,5
395.153,1262.43,     88.02286,0.69707,5
396.9,1262.51,     87.97124,0.69545,5
398.655,1262.59,     87.94533,0.69381,5
400.403,1262.67,     87.87638,0.69219,5
402.15,1262.75,     87.75790,0.69057,5
403.896,1262.83,     87.63714,0.68896,5
405.65,1262.91,     87.48419,0.68734,5
407.399,1262.99,     87.27505,0.68572,5
409.141,1263.07,     87.03162,0.68412,5
410.889,1263.15,     86.77524,0.68252,5
412.629,1263.23,     86.47562,0.68092,5
414.363,1263.31,     86.13733,0.67934,5
416.106,1263.39,     85.69124,0.67775,5
417.837,1263.47,     85.19352,0.67617,5
419.572,1263.55,     84.65048,0.67460,5
421.298,1263.63,     84.07714,0.67303,5
423.025,1263.71,     83.36819,0.67147,5
424.757,1263.79,     82.56438,0.66991,5
426.489,1263.87,     81.61410,0.66835,5
428.194,1263.95,     80.53886,0.66682,5
429.924,1264.03,     79.31695,0.66527,5
431.642,1264.11,     77.93143,0.66374,5
433.373,1264.19,     76.33676,0.66220,5
435.072,1264.27,     74.58267,0.66069,5
436.786,1264.35,     72.61733,0.65917,5
438.476,1264.43,     70.27276,0.65768,5
440.178,1264.51,     67.65657,0.65618,5
441.879,1264.59,     64.82933,0.65469,5
443.578,1264.67,     61.74781,0.65320,5
445.259,1264.75,     58.44648,0.65173,5
446.96,1264.83,     54.66019,0.65025,5
448.652,1264.91,     51.04648,0.64878,5
450.35,1264.99,     47.36362,0.64731,5
452.034,1265.07,     43.65067,0.64586,5
453.724,1265.15,     39.85810,0.64440,5
455.422,1265.23,     36.14724,0.64295,5
457.113,1265.31,     32.56362,0.64150,5
458.81,1265.39,     29.05752,0.64005,5
460.497,1265.47,     25.74743,0.63862,5
462.178,1265.55,     22.77581,0.63720,5
463.864,1265.63,     19.88819,0.63577,5
465.545,1265.71,     17.24210,0.63436,5
467.228,1265.79,     14.79410,0.63295,5
468.906,1265.87,     12.60667,0.63155,5
470.593,1265.95,     10.66514,0.63014,5
472.27,1266.03,      8.96914,0.62875,5
473.949,1266.11,      7.45867,0.62736,5
475.619,1266.19,      6.14838,0.62598,5
477.3,1266.27,      5.00419,0.62460,5
478.963,1266.35,      4.07314,0.62324,5
480.637,1266.43,      3.20914,0.62188,5
482.297,1266.51,      2.46571,0.62053,5
483.953,1266.59,      1.79981,0.61919,5
485.6,1266.67,      1.22648,0.61786,5
487.271,1266.75,      0.70514,0.61652,5
488.919,1266.83,      0.23105,0.61520,5
490.571,1266.91,     -0.16343,0.61388,5
492.224,1266.99,     -0.44571,0.61257,5
493.879,1267.07,     -0.79695,0.61126,5
495.529,1267.15,     -1.03829,0.60996,5
497.193,1267.23,     -1.19124,0.60865,5
498.843,1267.31,     -1.38095,0.60736,5
500.488,1267.39,     -1.47143,0.60608,5
502.142,1267.47,     -1.56629,0.60479,5
503.786,1267.55,     -1.59219,0.60352,5
505.436,1267.63,     -1.65029,0.60225,5
507.08,1267.71,     -1.65029,0.60099,5
508.723,1267.79,     -1.66971,0.59974,5
510.364,1267.87,     -1.67619,0.59849,5
512.02,1267.95,     -1.65676,0.59723,5
513.652,1268.03,     -1.65029,0.59600,5
515.292,1268.11,     -1.63086,0.59477,5
516.937,1268.19,     -1.62438,0.59354,5
518.576,1268.27,     -1.59848,0.59232,5
520.2,1268.35,     -1.57276,0.59111,5
521.845,1268.43,     -1.57276,0.58990,5
523.471,1268.51,     -1.57276,0.58870,5
525.104,1268.59,     -1.54686,0.58751,5
526.737,1268.67,     -1.54686,0.58631,5
528.372,1268.75,     -1.52095,0.58513,5
530.006,1268.83,     -1.49505,0.58395,5
531.636,1268.91,     -1.46933,0.58277,5
533.272,1268.99,     -1.46933,0.58160,5
534.893,1269.07,     -1.44343,0.58044,5
536.518,1269.15,     -1.44343,0.57929,5
538.144,1269.23,     -1.41752,0.57814,5
539.765,1269.31,     -1.39162,0.57700,5
541.388,1269.39,     -1.36590,0.57586,5
543.016,1269.47,     -1.36590,0.57472,5
544.625,1269.55,     -1.34000,0.57360,5
546.243,1269.63,     -1.31410,0.57249,5
547.864,1269.71,     -1.31410,0.57137,5
549.474,1269.79,     -1.28819,0.57027,5
551.084,1269.87,     -1.26248,0.56917,5
552.69,1269.95,     -1.26248,0.56808,5
554.318,1270.03,     -1.23657,0.56698,5
555.919,1270.11,     -1.23010,0.56590,5
557.529,1270.19,     -1.21067,0.56482,5
559.149,1270.27,     -1.21067,0.56374,5
560.75,1270.35,     -1.15905,0.56268,5
562.379,1270.43,     -1.15905,0.56160,5
563.981,1270.51,     -1.13314,0.56054,5
565.606,1270.59,     -1.10724,0.55948,5
567.229,1270.67,     -1.08133,0.55842,5
568.838,1270.75,     -1.05543,0.55738,5
570.458,1270.83,     -1.05543,0.55633,5
572.064,1270.91,     -1.05543,0.55530,5
573.687,1270.99,     -1.02971,0.55426,5
575.284,1271.07,     -1.00381,0.55325,5
576.907,1271.15,     -0.98438,0.55222,5
578.53,1271.23,     -0.97790,0.55120,5
580.134,1271.31,     -0.95200,0.55019,5
581.744,1271.39,     -0.92629,0.54918,5
583.365,1271.47,     -0.92629,0.54818,5
584.973,1271.55,     -0.92629,0.54718,5
586.589,1271.63,     -0.87448,0.54619,5
588.21,1271.71,     -0.87448,0.54519,5
589.807,1271.79,     -0.86152,0.54422,5
591.423,1271.87,     -0.84857,0.54324,5
593.03,1271.95,     -0.84857,0.54227,5
594.641,1272.03,     -0.82286,0.54130,5
596.256,1272.11,     -0.82286,0.54033,5
597.857,1272.19,     -0.79695,0.53938,5
599.471,1272.27,     -0.79695,0.53842,5
601.084,1272.35,     -0.77105,0.53747,5
602.69,1272.43,     -0.74514,0.53653,5
604.297,1272.51,     -0.71943,0.53559,5
605.907,1272.59,     -0.71943,0.53465,5
607.517,1272.67,     -0.71943,0.53372,5
609.134,1272.75,     -0.71943,0.53279,5
610.743,1272.83,     -0.71943,0.53187,5
612.348,1272.91,     -0.69352,0.53095,5
613.964,1272.99,     -0.66762,0.53003,5
615.568,1273.07,     -0.66762,0.52913,5
617.18,1273.15,     -0.64819,0.52822,5
618.786,1273.23,     -0.64171,0.52732,5
620.397,1273.31,     -0.61600,0.52643,5
622.004,1273.39,     -0.61600,0.52553,5
623.615,1273.47,     -0.62876,0.52464,5
625.226,1273.55,     -0.62876,0.52376,5
626.837,1273.63,     -0.62876,0.52288,5
628.449,1273.71,     -0.62876,0.52200,5
630.062,1273.79,     -0.62876,0.52113,5
631.676,1273.87,     -0.62876,0.52026,5
633.285,1273.95,     -0.62876,0.51939,5
634.891,1274.03,     -0.62876,0.51854,5
636.496,1274.11,     -0.62876,0.51768,5
638.11,1274.19,     -0.62876,0.51683,5
639.708,1274.27,     -0.64171,0.51599,5
641.327,1274.35,     -0.64171,0.51514,5
642.934,1274.43,     -0.64171,0.51430,5
644.53,1274.51,     -0.66762,0.51347,5
646.141,1274.59,     -0.66762,0.51264,5
647.749,1274.67,     -0.69352,0.51181,5
649.351,1274.75,     -0.69352,0.51099,5
650.983,1274.83,     -0.69352,0.51015,5
652.586,1274.91,     -0.71943,0.50934,5
654.194,1274.99,     -0.74514,0.50853,5
655.806,1275.07,     -0.74514,0.50771,5
657.421,1275.15,     -0.77105,0.50690,5
659.032,1275.23,     -0.75810,0.50610,5
660.642,1275.31,     -0.78838,0.50530,5
662.254,1275.39,     -0.78838,0.50450,5
663.873,1275.47,     -0.78838,0.50370,5
665.48,1275.55,     -0.78838,0.50291,5
667.089,1275.63,     -0.81410,0.50213,5
668.698,1275.71,     -0.78838,0.50134,5
670.303,1275.79,     -0.80762,0.50057,5
671.911,1275.87,     -0.80762,0.49979,5
673.524,1275.95,     -0.80762,0.49901,5
675.129,1276.03,     -0.81410,0.49824,5
676.735,1276.11,     -0.81410,0.49748,5
678.337,1276.19,     -0.81410,0.49672,5
679.945,1276.27,     -0.84000,0.49596,5
681.565,1276.35,     -0.86590,0.49519,5
683.165,1276.43,     -0.86590,0.49444,5
684.772,1276.51,     -0.85295,0.49369,5
686.388,1276.59,     -0.85295,0.49294,5
687.992,1276.67,     -0.84000,0.49219,5
689.609,1276.75,     -0.84000,0.49145,5
691.221,1276.83,     -0.84000,0.49070,5
692.824,1276.91,     -0.81410,0.48997,5
694.437,1276.99,     -0.81410,0.48923,5
696.048,1277.07,     -0.81410,0.48850,5
697.667,1277.15,     -0.80762,0.48776,5
699.283,1277.23,     -0.78610,0.48703,5
700.887,1277.31,     -0.76038,0.48631,5
702.503,1277.39,     -0.76038,0.48558,5
704.11,1277.47,     -0.73448,0.48486,5
705.71,1277.55,     -0.72152,0.48415,5
707.329,1277.63,     -0.70648,0.48343,5
708.947,1277.71,     -0.67848,0.48271,5
710.56,1277.79,     -0.67848,0.48200,5
712.165,1277.87,     -0.67200,0.48129,5
713.784,1277.95,     -0.64610,0.48058,5
715.4,1278.03,     -0.62667,0.47987,5
717.008,1278.11,     -0.62667,0.47917,5
718.628,1278.19,     -0.60724,0.47846,5
720.237,1278.27,     -0.60076,0.47777,5
721.844,1278.35,     -0.57505,0.47707,5
723.46,1278.43,     -0.57505,0.47637,5
725.077,1278.51,     -0.54914,0.47568,5
726.693,1278.59,     -0.54914,0.47499,5
728.306,1278.67,     -0.50381,0.47430,5
729.905,1278.75,     -0.49733,0.47361,5
731.526,1278.83,     -0.49733,0.47292,5
733.139,1278.91,     -0.46514,0.47224,5
734.749,1278.99,     -0.44571,0.47156,5
736.372,1279.07,     -0.44571,0.47087,5
737.989,1279.15,     -0.41981,0.47019,5
739.591,1279.23,     -0.39390,0.46952,5
741.193,1279.31,     -0.36800,0.46884,5
742.802,1279.39,     -0.39390,0.46817,5
744.414,1279.47,     -0.36171,0.46750,5
746.018,1279.55,     -0.34229,0.46683,5
747.63,1279.63,     -0.32933,0.46616,5
749.23,1279.71,     -0.29048,0.46549,5
750.856,1279.79,     -0.29048,0.46482,5
752.463,1279.87,     -0.29048,0.46416,5
754.078,1279.95,     -0.26457,0.46349,5
755.692,1280.03,     -0.23886,0.46282,5
757.317,1280.11,     -0.23886,0.46216,5
758.925,1280.19,     -0.21295,0.46150,5
760.538,1280.27,     -0.21295,0.46083,5
762.153,1280.35,     -0.17410,0.46017,5
763.765,1280.43,     -0.16114,0.45951,5
765.388,1280.51,     -0.13543,0.45885,5
766.994,1280.59,     -0.10952,0.45820,5
768.623,1280.67,     -0.10952,0.45753,5
770.231,1280.75,-8.361905e-02,0.45688,5
771.836,1280.83,-8.361905e-02,0.45623,5
773.444,1280.91,-5.771429e-02,0.45558,5
775.054,1280.99,-5.771429e-02,0.45493,5
776.66,1281.07,-3.200000e-02,0.45428,5
778.271,1281.15,-1.904762e-02,0.45362,5
779.874,1281.23,-4.000000e-03,0.45298,5
781.485,1281.31,-4.000000e-03,0.45233,5
783.092,1281.39, 2.190476e-02,0.45168,5
784.7,1281.47, 2.190476e-02,0.45103,5
786.299,1281.55, 4.780952e-02,0.45039,5
787.901,1281.63, 4.780952e-02,0.44974,5
789.506,1281.71, 7.371429e-02,0.44910,5
791.124,1281.79, 9.961905e-02,0.44845,5
792.73,1281.87, 9.961905e-02,0.44780,5
794.332,1281.95, 9.961905e-02,0.44716,5
794.536,1281.96,      0.11238,0.44708,5