File: data/TGA/commercial_samples/ExpDat_2025_08_23_SL_PS_Petri_Dish_SCF3_250721_P5EER2_dynamic.csv
#EXPORTTYPE:                 ,DATA ALL
#FILE:                       ,2025_08_23_SL_PS_Petri_Dish_SCF3_250721_P5EER2_V1_2_Dynamic.ngb-ss5
#FORMAT:                     ,NETZSCH5
#FTYPE:                      ,ASCII
#IDENTITY:                   ,PS-Petri-Dish-SCF3
#DECIMAL:                    ,POINT
#SEPARATOR:                  ,COMMA
#MTYPE:                      ,DSC
#INSTRUMENT:                 ,NETZSCH STA 449F5
#PROJECT:                    ,Polystyrene
#DATE/TIME:                  ,8/23/2025 10:46:43 AM (UTC-4)
#CORR. FILE:                 ,
#TEMPCAL:                    ,05-05-2025 14:38
#SENSITIVITY:                ,28-06-2023 13:53
#LABORATORY:                 ,Tran/AAG
#OPERATOR:                   ,Stanley
#REMARK:                     ,2025_03_20_Styrofoam_dynamic
#SAMPLE:                     ,PS-Petri-Dish-SCF3
#SAMPLE MASS /mg:            ,4.5
#MATERIAL:                   ,Polystyrene
#REFERENCE:                  ,
#REFERENCE MASS /mg:         ,0
#TYPE OF CRUCIBLE:           ,Al2O3 85 ‘l, open
#SAMPLE CRUCIBLE MASS /mg:   ,0
#REFERENCE CRUCIBLE MASS /mg:,0
#DSC RANGE /‘V:              ,5000
#TG RANGE /mg:               ,35000
#TAU-R:                      ,---
#CORR. CODE:                 ,000
#EXO:                        ,-1
#RANGE:                      ,20›C....800›C/0.0....20.0K/min
#SEGMENT:                    ,S1-4/4
#SEG. 1:                     ,20›C/5.0(K/min)/100›C
#SEG. 2:                     ,100›C/00:05/100›C
#SEG. 3:                     ,100›C/1.0(K/min)/400›C
#SEG. 4:                     ,400›C/20.0(K/min)/800›C

##Temp./›C,Time/min,DSC/(mW/mg),Mass/%,Gas Flow(purge2)/(ml/min),Gas Flow(protective)/(ml/min),TIC(scan:1)/A,Sensit./(uV/mW),Segment
 31.12600,  0.00000,      0.41259,100,50.00000,50.00000,            ,0.92376,1
 32.35000,  1.00000,      0.29414,101.498,50.00000,50.00000,1.019018e-08,0.92385,1
 33.42800,  2.00000,      0.23593,101.174,50.00000,50.00000,1.019477e-08,0.92393,1
 34.32300,  3.00000,      0.19407,100.732,50.00000,50.00000,1.019029e-08,0.92401,1
 35.55900,  4.00000,      0.30113,100.734,50.00000,50.00000,1.017937e-08,0.92408,1
 37.65300,  5.00000,      0.53680,101.074,50.00000,50.00000,1.019437e-08,0.92414,1
 40.65300,  6.00000,      0.81403,101.581,50.00000,50.00000,1.020032e-08,0.92420,1
 44.52800,  7.00000,      1.09101,102.122,50.00000,50.00000,1.021181e-08,0.92425,1
 49.19000,  8.00000,      1.34347,102.665,50.00000,50.00000,1.019260e-08,0.92431,1
 54.43400,  9.00000,      1.56372,103.218,50.00000,50.00000,1.018038e-08,0.92438,1
 60.16800, 10.00000,      1.74266,103.57,50.00000,50.00000,1.018692e-08,0.92447,1
 66.16700, 11.00000,      1.87863,103.849,50.00000,50.00000,1.016194e-08,0.92457,1
 72.27100, 12.00000,      1.97102,104.063,50.00000,50.00000,1.018041e-08,0.92469,1
 78.40300, 13.00000,      2.03430,104.216,50.00000,50.00000,1.018245e-08,0.92483,1
 84.49000, 14.00000,      2.07065,104.397,50.00000,50.00000,1.018304e-08,0.92495,1
 90.48200, 15.00000,      2.08714,104.46,50.00000,50.00000,1.019055e-08,0.92510,1
 96.38200, 15.99917,      2.08920,104.513,50.00000,50.00000,1.016808e-08,0.92524,1
100.389, 16.74917,      1.95089,104.276,50.00000,50.00000,1.017443e-08,0.92538,2
103.21, 17.49917,      1.48869,103.565,50.00000,50.00000,1.018554e-08,0.92548,2
105.124, 18.24917,      1.05262,103.06,50.00000,50.00000,1.017306e-08,0.92561,2
106.52, 18.99917,      0.75854,102.617,50.00000,50.00000,1.018695e-08,0.92571,2
107.45, 19.74917,      0.51138,102.24,50.00000,50.00000,1.016541e-08,0.92582,2
107.897, 20.49917,      0.26458,101.792,50.00000,50.00000,1.016670e-08,0.92591,2
107.936, 21.33250, 3.579438e-02,101.287,50.00000,50.00000,1.016781e-08,0.92600,3
107.754, 22.33250,-7.711953e-02,101.016,50.00000,50.00000,1.013898e-08,0.92609,3
107.554, 23.33250,-9.833042e-02,100.772,50.00000,50.00000,1.017827e-08,0.92616,3
107.35, 24.33250,     -0.10755,100.583,50.00000,50.00000,1.017211e-08,0.92620,3
107.203, 25.33250,-7.729065e-02,100.46,50.00000,50.00000,1.016749e-08,0.92620,3
107.214, 26.33250,-1.973777e-02,100.402,50.00000,50.00000,1.016209e-08,0.92617,3
107.39, 27.33250, 4.076905e-02,100.312,50.00000,50.00000,1.017052e-08,0.92611,3
107.741, 28.33250,      0.10203,100.251,50.00000,50.00000,1.016334e-08,0.92601,3
108.228, 29.33250,      0.16460,100.259,50.00000,50.00000,1.016238e-08,0.92588,3
108.851, 30.33250,      0.22018,100.221,50.00000,50.00000,1.016375e-08,0.92570,3
109.611, 31.33250,      0.26823,100.191,50.00000,50.00000,1.015957e-08,0.92549,3
110.449, 32.33250,      0.30819,100.199,50.00000,50.00000,1.016650e-08,0.92524,3
111.373, 33.33250,      0.34154,100.168,50.00000,50.00000,1.015462e-08,0.92496,3
112.359, 34.33250,      0.36586,100.138,50.00000,50.00000,1.016604e-08,0.92464,3
113.387, 35.33250,      0.38262,100.116,50.00000,50.00000,1.014128e-08,0.92429,3
114.426, 36.33250,      0.39589,100.078,50.00000,50.00000,1.015660e-08,0.92390,3
115.489, 37.33250,      0.40289,100.048,50.00000,50.00000,1.015347e-08,0.92349,3
116.542, 38.33250,      0.40638, 99.98733,50.00000,50.00000,1.013959e-08,0.92312,3
117.613, 39.33250,      0.40931, 99.97244,50.00000,50.00000,1.016689e-08,0.92264,3
118.682, 40.33250,      0.40855, 99.94978,50.00000,50.00000,1.015371e-08,0.92214,3
119.725, 41.33250,      0.40909, 99.92956,50.00000,50.00000,1.014233e-08,0.92169,3
120.775, 42.33250,      0.40685, 99.88444,50.00000,51.00000,1.014757e-08,0.92130,3
121.812, 43.33250,      0.40535, 99.88444,50.00000,50.00000,1.017276e-08,0.92093,3
122.847, 44.33250,      0.40366, 99.83156,50.00000,51.00000,1.013395e-08,0.92061,3
123.878, 45.33250,      0.40346, 99.85422,50.00000,51.00000,1.012235e-08,0.92033,3
124.89, 46.33250,      0.40029, 99.79378,50.00000,51.00000,1.013513e-08,0.92009,3
125.9, 47.33250,      0.40009, 99.79378,50.00000,51.00000,1.013936e-08,0.91988,3
126.907, 48.33250,      0.39933, 99.78622,50.00000,51.00000,1.014057e-08,0.91969,3
127.934, 49.33250,      0.39746, 99.75867,50.00000,51.00000,1.012689e-08,0.91955,3
128.92, 50.33250,      0.39801, 99.75867,50.00000,51.00000,1.014312e-08,0.91939,3
129.926, 51.33250,      0.39856, 99.75867,50.00000,51.00000,1.013529e-08,0.91925,3
130.924, 52.33250,      0.39687, 99.74356,50.00000,51.00000,1.014188e-08,0.91914,3
131.909, 53.33250,      0.39649, 99.72844,50.00000,51.00000,1.015007e-08,0.91905,3
132.909, 54.33250,      0.39966, 99.73600,50.00000,51.00000,1.012675e-08,0.91897,3
133.928, 55.33250,      0.39948, 99.72844,50.00000,51.00000,1.015994e-08,0.91893,3
134.908, 56.33250,      0.39873, 99.72844,50.00000,51.00000,1.013257e-08,0.91890,3
135.926, 57.33250,      0.40079, 99.76622,50.00000,51.00000,1.013720e-08,0.91888,3
136.914, 58.33250,      0.40098, 99.73600,50.00000,51.00000,1.014521e-08,0.91889,3
137.909, 59.33250,      0.40155, 99.73600,50.00000,51.00000,1.011507e-08,0.91891,3
138.913, 60.33250,      0.40250, 99.74356,50.00000,51.00000,1.014965e-08,0.91893,3
139.902, 61.33250,      0.40382, 99.77378,50.00000,51.00000,1.012841e-08,0.91895,3
140.906, 62.33250,      0.40459, 99.78889,50.00000,51.00000,1.013065e-08,0.91897,3
141.913, 63.33250,      0.40386, 99.76622,50.00000,51.00000,1.013604e-08,0.91899,3
142.916, 64.33250,      0.40276, 99.79889,50.00000,51.00000,1.014560e-08,0.91902,3
143.902, 65.33250,      0.40259, 99.78378,50.00000,51.00000,1.015150e-08,0.91904,3
144.927, 66.33250,      0.40525, 99.78378,50.00000,51.00000,1.014595e-08,0.91907,3
145.933, 67.33250,      0.40190, 99.79889,50.00000,51.00000,1.014164e-08,0.91909,3
146.94, 68.33250,      0.40137, 99.81400,50.00000,51.00000,1.014152e-08,0.91910,3
147.928, 69.33250,      0.40065, 99.81400,50.00000,51.00000,1.013425e-08,0.91911,3
148.936, 70.33250,      0.39918, 99.81400,50.00000,51.00000,1.011715e-08,0.91911,3
149.929, 71.33250,      0.39828, 99.81400,50.00000,51.00000,1.012999e-08,0.91910,3
150.92, 72.33250,      0.40000, 99.81400,50.00000,51.00000,1.012666e-08,0.91909,3
151.923, 73.33250,      0.39835, 99.81400,50.00000,51.00000,1.012869e-08,0.91906,3
152.937, 74.33250,      0.39915, 99.84156,50.00000,51.00000,1.013935e-08,0.91903,3
153.943, 75.33250,      0.39712, 99.84156,50.00000,51.00000,1.013450e-08,0.91900,3
154.944, 76.33250,      0.39433, 99.85422,50.00000,51.00000,1.013947e-08,0.91895,3
155.937, 77.33250,      0.39551, 99.82400,50.00000,51.00000,1.009929e-08,0.91890,3
156.934, 78.33250,      0.39574, 99.86933,50.00000,51.00000,1.011335e-08,0.91884,3
157.93, 79.33250,      0.39504, 99.86933,50.00000,51.00000,1.012146e-08,0.91877,3
158.929, 80.33250,      0.39603, 99.87689,50.00000,51.00000,1.013351e-08,0.91870,3
159.932, 81.33250,      0.39495, 99.87689,50.00000,51.00000,1.012722e-08,0.91863,3
160.931, 82.33250,      0.39368, 99.87689,50.00000,51.00000,1.011765e-08,0.91855,3
161.937, 83.33250,      0.39525, 99.87689,50.00000,51.00000,1.011203e-08,0.91846,3
162.935, 84.33250,      0.39285, 99.87689,50.00000,51.00000,1.011045e-08,0.91836,3
163.94, 85.33250,      0.39063, 99.89200,50.00000,51.00000,1.011280e-08,0.91826,3
164.939, 86.33250,      0.38842, 99.92200,50.00000,51.00000,1.011479e-08,0.91816,3
165.941, 87.33250,      0.38924, 99.88178,50.00000,51.00000,1.011909e-08,0.91805,3
166.935, 88.33250,      0.38759, 99.90444,50.00000,51.00000,1.011956e-08,0.91793,3
167.932, 89.33250,      0.38651, 99.90444,50.00000,51.00000,1.010892e-08,0.91782,3
168.927, 90.33250,      0.38810, 99.87933,50.00000,51.00000,1.011033e-08,0.91769,3
169.928, 91.33250,      0.38816, 99.87933,50.00000,51.00000,1.012612e-08,0.91757,3
170.948, 92.33250,      0.38672, 99.87178,50.00000,51.00000,1.011889e-08,0.91746,3
171.934, 93.33250,      0.38469, 99.89200,50.00000,51.00000,1.010167e-08,0.91733,3
172.939, 94.33250,      0.38285, 99.89200,50.00000,51.00000,1.010678e-08,0.91720,3
173.937, 95.33250,      0.38121, 99.86933,50.00000,51.00000,1.009748e-08,0.91707,3
174.949, 96.33250,      0.38243, 99.86933,50.00000,51.00000,1.008907e-08,0.91693,3
175.925, 97.33250,      0.37963, 99.85422,50.00000,51.00000,1.010966e-08,0.91679,3
176.922, 98.33250,      0.37760, 99.85422,50.00000,51.00000,1.012409e-08,0.91665,3
177.923, 99.33250,      0.37787, 99.86933,50.00000,51.00000,1.011778e-08,0.91651,3
178.924,100.332,      0.37794, 99.81644,50.00000,51.00000,1.010945e-08,0.91637,3
179.929,101.332,      0.37592, 99.82156,50.00000,51.00000,1.011055e-08,0.91623,3
180.925,102.332,      0.37465, 99.82156,50.00000,51.00000,1.009633e-08,0.91611,3
181.93,103.332,      0.37147, 99.82156,50.00000,51.00000,1.012514e-08,0.91596,3
182.926,104.332,      0.37117, 99.81889,50.00000,51.00000,1.011623e-08,0.91582,3
183.937,105.332,      0.36856, 99.78889,50.00000,51.00000,1.013914e-08,0.91567,3
184.939,106.332,      0.36826, 99.75867,50.00000,51.00000,1.009947e-08,0.91552,3
185.942,107.332,      0.36949, 99.72089,50.00000,51.00000,1.010656e-08,0.91538,3
186.942,108.332,      0.36746, 99.74111,50.00000,51.00000,1.010502e-08,0.91523,3
187.939,109.332,      0.36562, 99.71844,50.00000,51.00000,1.010707e-08,0.91508,3
188.942,110.332,      0.36512, 99.68822,50.00000,51.00000,1.011645e-08,0.91493,3
189.946,111.332,      0.36077, 99.65800,50.00000,51.00000,1.011139e-08,0.91478,3
190.946,112.332,      0.36182, 99.66556,50.00000,51.00000,1.013375e-08,0.91465,3
191.946,113.332,      0.35920, 99.62044,50.00000,51.00000,1.010402e-08,0.91450,3
192.95,114.332,      0.35774, 99.59022,50.00000,51.00000,1.011548e-08,0.91435,3
193.959,115.332,      0.35648, 99.54489,50.00000,51.00000,1.011693e-08,0.91420,3
194.953,116.332,      0.35365, 99.52733,50.00000,51.00000,1.011267e-08,0.91405,3
195.946,117.332,      0.35199, 99.50467,50.00000,51.00000,1.014187e-08,0.91389,3
196.943,118.332,      0.35247, 99.48956,50.00000,51.00000,1.011473e-08,0.91374,3
197.942,119.332,      0.35256, 99.42933,50.00000,51.00000,1.010935e-08,0.91359,3
198.937,120.332,      0.35012, 99.42178,50.00000,51.00000,1.009082e-08,0.91343,3
199.944,121.332,      0.35021, 99.39156,50.00000,51.00000,1.011192e-08,0.91331,3
200.966,122.332,      0.34914, 99.39911,50.00000,51.00000,1.011667e-08,0.91315,3
201.94,123.332,      0.34396, 99.34644,50.00000,51.00000,1.009619e-08,0.91300,3
202.931,124.332,      0.34346, 99.28600,50.00000,51.00000,1.011178e-08,0.91284,3
203.933,125.332,      0.34258, 99.22556,50.00000,51.00000,1.012050e-08,0.91268,3
204.945,126.332,      0.33916, 99.19556,50.00000,51.00000,1.011513e-08,0.91253,3
205.946,127.332,      0.33846, 99.18800,50.00000,51.00000,1.011390e-08,0.91237,3
206.945,128.333,      0.33542, 99.17289,50.00000,51.00000,1.009427e-08,0.91221,3
207.941,129.333,      0.33316, 99.11244,50.00000,51.00000,1.010523e-08,0.91205,3
208.933,130.333,      0.33246, 99.05467,50.00000,51.00000,1.010781e-08,0.91191,3
209.927,131.333,      0.33000, 98.98933,50.00000,51.00000,1.010984e-08,0.91176,3
210.934,132.333,      0.32989, 98.99689,50.00000,51.00000,1.009291e-08,0.91160,3
211.94,133.333,      0.32920, 98.95911,50.00000,51.00000,1.011659e-08,0.91143,3
212.932,134.333,      0.32732, 98.89889,50.00000,51.00000,1.009559e-08,0.91127,3
213.948,135.333,      0.32406, 98.83844,50.00000,51.00000,1.011504e-08,0.91110,3
214.927,136.333,      0.32080, 98.80822,50.00000,51.00000,1.011839e-08,0.91094,3
215.93,137.333,      0.31773, 98.74800,50.00000,51.00000,1.011951e-08,0.91078,3
216.937,138.333,      0.31367, 98.71778,50.00000,51.00000,1.011102e-08,0.91061,3
217.925,139.333,      0.31276, 98.66511,50.00000,51.00000,1.011303e-08,0.91048,3
218.919,140.333,      0.30928, 98.60467,50.00000,51.00000,1.009532e-08,0.91031,3
219.925,141.333,      0.30857, 98.56689,50.00000,51.00000,1.011370e-08,0.91015,3
220.918,142.333,      0.30529, 98.50911,50.00000,51.00000,1.011035e-08,0.90998,3
221.926,143.333,      0.30299, 98.47889,50.00000,51.00000,1.012035e-08,0.90980,3
222.931,144.333,      0.30208, 98.41867,50.00000,51.00000,1.013230e-08,0.90963,3
223.93,145.333,      0.29461, 98.34822,50.00000,51.00000,1.011469e-08,0.90946,3
224.939,146.333,      0.29369, 98.29556,50.00000,51.00000,1.009593e-08,0.90929,3
225.939,147.333,      0.29018, 98.24022,50.00000,51.00000,1.010089e-08,0.90913,3
226.921,148.333,      0.28506, 98.17978,50.00000,51.00000,1.011022e-08,0.90895,3
227.91,149.333,      0.28174, 98.13444,50.00000,51.00000,1.010865e-08,0.90878,3
228.925,150.333,      0.28181, 98.07422,50.00000,51.00000,1.008643e-08,0.90863,3
229.933,151.333,      0.27548, 98.03644,50.00000,51.00000,1.010689e-08,0.90845,3
230.925,152.333,      0.27494, 97.98111,50.00000,51.00000,1.009944e-08,0.90828,3
231.934,153.333,      0.27261, 97.95111,50.00000,51.00000,1.010416e-08,0.90810,3
232.933,154.333,      0.26906, 97.89822,50.00000,51.00000,1.008626e-08,0.90792,3
233.927,155.333,      0.26250, 97.83778,50.00000,51.00000,1.010323e-08,0.90774,3
234.931,156.333,      0.25553, 97.77000,50.00000,51.00000,1.011327e-08,0.90756,3
235.924,157.333,      0.25035, 97.67956,50.00000,51.00000,1.009539e-08,0.90738,3
236.914,158.333,      0.25119, 97.63422,50.00000,51.00000,1.011545e-08,0.90720,3
237.923,159.333,      0.24580, 97.58889,50.00000,51.00000,1.008624e-08,0.90705,3
238.92,160.333,      0.24020, 97.52111,50.00000,51.00000,1.009618e-08,0.90687,3
239.91,161.333,      0.23801, 97.43311,50.00000,51.00000,1.011587e-08,0.90669,3
240.919,162.333,      0.23522, 97.37289,50.00000,51.00000,1.012013e-08,0.90649,3
241.913,163.333,      0.23242, 97.31244,50.00000,51.00000,1.010874e-08,0.90631,3
242.911,164.333,      0.22638, 97.25200,50.00000,51.00000,1.009334e-08,0.90613,3
243.913,165.333,      0.22316, 97.19178,50.00000,51.00000,1.010162e-08,0.90594,3
244.922,166.333,      0.21771, 97.13400,50.00000,51.00000,1.010168e-08,0.90574,3
245.94,167.333,      0.21510, 97.04333,50.00000,51.00000,1.012350e-08,0.90556,3
246.923,168.333,      0.20922, 96.96800,50.00000,51.00000,1.011333e-08,0.90537,3
247.924,169.333,      0.20414, 96.93022,50.00000,51.00000,1.011303e-08,0.90522,3
248.917,170.333,      0.19885, 96.85489,50.00000,51.00000,1.011190e-08,0.90503,3
249.918,171.333,      0.19417, 96.76444,50.00000,51.00000,1.010396e-08,0.90484,3
250.939,172.333,      0.19192, 96.71911,50.00000,51.00000,1.012534e-08,0.90464,3
251.912,173.333,      0.18456, 96.68133,50.00000,51.00000,1.009815e-08,0.90444,3
252.914,174.333,      0.18169, 96.59089,50.00000,51.00000,1.010105e-08,0.90424,3
253.925,175.333,      0.17676, 96.50044,50.00000,51.00000,1.009216e-08,0.90405,3
254.913,176.333,      0.17060, 96.40978,50.00000,51.00000,1.008834e-08,0.90386,3
255.905,177.333,      0.16811, 96.34956,50.00000,51.00000,1.011318e-08,0.90367,3
256.918,178.333,      0.16110, 96.25911,50.00000,51.00000,1.011249e-08,0.90346,3
257.908,179.333,      0.15696, 96.19867,50.00000,51.00000,1.011645e-08,0.90327,3
258.914,180.333,      0.15260, 96.12333,50.00000,51.00000,1.010439e-08,0.90307,3
259.934,181.333,      0.14865, 96.03267,50.00000,51.00000,1.008144e-08,0.90287,3
260.92,182.333,      0.14035, 95.97244,50.00000,51.00000,1.011445e-08,0.90271,3
261.917,183.333,      0.13390, 95.91200,50.00000,51.00000,1.010748e-08,0.90251,3
262.926,184.333,      0.13012, 95.82156,50.00000,51.00000,1.012556e-08,0.90230,3
263.927,185.333,      0.12364, 95.73867,50.00000,51.00000,1.009618e-08,0.90210,3
264.91,186.333,      0.11860, 95.67067,50.00000,51.00000,1.010188e-08,0.90190,3
265.919,187.333,      0.11438, 95.56511,50.00000,51.00000,1.010465e-08,0.90170,3
266.908,188.333,      0.10931, 95.49733,50.00000,51.00000,1.011750e-08,0.90149,3
267.928,189.333,      0.10424, 95.40422,50.00000,51.00000,1.009199e-08,0.90129,3
268.93,190.333, 9.541813e-02, 95.34400,50.00000,51.00000,1.011574e-08,0.90109,3
269.919,191.333, 9.552127e-02, 95.26844,50.00000,51.00000,1.012203e-08,0.90088,3
270.922,192.333, 8.833453e-02, 95.20067,50.00000,51.00000,1.010812e-08,0.90071,3
271.924,193.333, 8.134063e-02, 95.10267,50.00000,51.00000,1.010161e-08,0.90050,3
272.923,194.333, 7.412240e-02, 95.01200,50.00000,51.00000,1.010761e-08,0.90029,3
273.917,195.333, 7.044145e-02, 94.95178,50.00000,51.00000,1.010802e-08,0.90008,3
274.909,196.333, 6.675237e-02, 94.86111,50.00000,51.00000,1.009566e-08,0.89987,3
275.917,197.333, 5.928559e-02, 94.80089,50.00000,51.00000,1.009983e-08,0.89967,3
276.912,198.333, 5.494724e-02, 94.69022,50.00000,51.00000,1.009158e-08,0.89945,3
277.918,199.333, 4.745059e-02, 94.63489,50.00000,51.00000,1.010505e-08,0.89924,3
278.91,200.333, 4.035688e-02, 94.54444,50.00000,51.00000,1.008953e-08,0.89903,3
279.912,201.333, 3.745637e-02, 94.43889,50.00000,51.00000,1.009695e-08,0.89885,3
280.913,202.333, 3.160000e-02, 94.36333,50.00000,51.00000,1.010989e-08,0.89864,3
281.911,203.333, 2.615217e-02, 94.25022,50.00000,51.00000,1.009608e-08,0.89841,3
282.911,204.333, 2.153667e-02, 94.18244,50.00000,51.00000,1.010993e-08,0.89821,3
283.903,205.333, 1.437398e-02, 94.09200,50.00000,51.00000,1.010227e-08,0.89799,3
284.91,206.333, 7.830118e-03, 94.00889,50.00000,51.00000,1.010377e-08,0.89778,3
285.911,207.333, 1.059335e-03, 93.91089,50.00000,51.00000,1.008299e-08,0.89756,3
286.916,208.333,-5.514890e-03, 93.85800,50.00000,51.00000,1.011365e-08,0.89734,3
287.907,209.333,-1.231646e-02, 93.76511,50.00000,51.00000,1.009543e-08,0.89713,3
288.914,210.333,-1.700794e-02, 93.67200,50.00000,51.00000,1.010368e-08,0.89690,3
289.903,211.333,-2.724379e-02, 93.58156,50.00000,51.00000,1.011626e-08,0.89672,3
290.899,212.333,-3.111079e-02, 93.49111,50.00000,51.00000,1.011993e-08,0.89650,3
291.903,213.333,-3.434710e-02, 93.40044,50.00000,51.00000,1.010936e-08,0.89628,3
292.9,214.333,-4.698838e-02, 93.31000,50.00000,51.00000,1.010308e-08,0.89605,3
293.901,215.333,-5.303058e-02, 93.24222,50.00000,51.00000,1.011386e-08,0.89582,3
294.906,216.333,-5.823094e-02, 93.16933,50.00000,51.00000,1.010910e-08,0.89560,3
295.912,217.333,-6.580140e-02, 93.07111,50.00000,51.00000,1.010491e-08,0.89538,3
296.92,218.333,-7.446298e-02, 93.01089,50.00000,51.00000,1.010936e-08,0.89516,3
297.909,219.333,-8.615111e-02, 92.90533,50.00000,51.00000,1.012242e-08,0.89493,3
298.904,220.333,-9.313528e-02, 92.80711,50.00000,51.00000,1.011097e-08,0.89469,3
299.903,221.333,-9.862907e-02, 92.70422,50.00000,51.00000,1.011082e-08,0.89451,3
300.908,222.333,     -0.10672, 92.65133,50.00000,51.00000,1.010460e-08,0.89428,3
301.912,223.333,     -0.11980, 92.56089,50.00000,51.00000,1.011284e-08,0.89406,3
302.915,224.333,     -0.12881, 92.47022,50.00000,51.00000,1.012211e-08,0.89383,3
303.914,225.333,     -0.13307, 92.40756,50.00000,51.00000,1.011608e-08,0.89360,3
304.908,226.333,     -0.14536, 92.28422,50.00000,51.00000,1.011728e-08,0.89336,3
305.908,227.333,     -0.15399, 92.18622,50.00000,51.00000,1.011802e-08,0.89314,3
306.913,228.333,     -0.16222, 92.12578,50.00000,51.00000,1.011562e-08,0.89290,3
307.9,229.333,     -0.17176, 92.03533,50.00000,51.00000,1.009945e-08,0.89267,3
308.903,230.333,     -0.17893, 91.94489,50.00000,51.00000,1.012904e-08,0.89244,3
309.912,231.333,     -0.19005, 91.85444,50.00000,51.00000,1.009839e-08,0.89221,3
310.907,232.333,     -0.20009, 91.73378,50.00000,51.00000,1.011062e-08,0.89197,3
311.904,233.333,     -0.20776, 91.67333,50.00000,51.00000,1.009348e-08,0.89174,3
312.908,234.333,     -0.21524, 91.55267,50.00000,51.00000,1.010183e-08,0.89150,3
313.924,235.333,     -0.22361, 91.46222,50.00000,51.00000,1.010773e-08,0.89126,3
314.919,236.333,     -0.23440, 91.34156,50.00000,51.00000,1.010927e-08,0.89106,3
315.908,237.333,     -0.24566, 91.25089,50.00000,51.00000,1.011333e-08,0.89082,3
316.907,238.333,     -0.25366, 91.15289,50.00000,51.00000,1.010937e-08,0.89059,3
317.92,239.333,     -0.25992, 91.07000,50.00000,51.00000,1.010290e-08,0.89034,3
318.924,240.333,     -0.27125, 90.95689,50.00000,51.00000,1.009459e-08,0.89010,3
319.908,241.333,     -0.28328, 90.87378,50.00000,51.00000,1.010745e-08,0.88987,3
320.924,242.333,     -0.29070, 90.73800,50.00000,51.00000,1.011405e-08,0.88962,3
321.927,243.333,     -0.30101, 90.63244,50.00000,51.00000,1.012707e-08,0.88938,3
322.906,244.333,     -0.31356, 90.50933,50.00000,51.00000,1.011102e-08,0.88914,3
323.909,245.333,     -0.32282, 90.38867,50.00000,51.00000,1.009310e-08,0.88889,3
324.916,246.333,     -0.33099, 90.29067,50.00000,51.00000,1.010981e-08,0.88869,3
325.906,247.333,     -0.34296, 90.17000,50.00000,51.00000,1.009907e-08,0.88844,3
326.919,248.333,     -0.35140, 90.04667,50.00000,51.00000,1.009482e-08,0.88820,3
327.922,249.333,     -0.35987, 89.89578,50.00000,51.00000,1.008143e-08,0.88795,3
328.915,250.333,     -0.37481, 89.78533,50.00000,51.00000,1.010687e-08,0.88772,3
329.914,251.333,     -0.38601, 89.66467,50.00000,51.00000,1.010259e-08,0.88747,3
330.916,252.333,     -0.39298, 89.48356,50.00000,51.00000,1.010187e-08,0.88722,3
331.919,253.333,     -0.40333, 89.33267,50.00000,51.00000,1.012138e-08,0.88697,3
332.914,254.333,     -0.41639, 89.21200,50.00000,51.00000,1.012787e-08,0.88673,3
333.922,255.333,     -0.42343, 89.03867,50.00000,51.00000,1.008616e-08,0.88653,3
334.902,256.332,     -0.43587, 88.84489,50.00000,51.00000,1.009850e-08,0.88627,3
335.923,257.332,     -0.44521, 88.69422,50.00000,51.00000,1.012465e-08,0.88602,3
336.915,258.332,     -0.45546, 88.54333,50.00000,51.00000,1.012270e-08,0.88576,3
337.912,259.332,     -0.46958, 88.38489,50.00000,51.00000,1.011696e-08,0.88552,3
338.915,260.332,     -0.47831, 88.19889,50.00000,51.00000,1.010724e-08,0.88526,3
339.912,261.332,     -0.48751, 87.99533,50.00000,51.00000,1.011717e-08,0.88501,3
340.913,262.332,     -0.49652, 87.80422,50.00000,51.00000,1.010118e-08,0.88475,3
341.941,263.332,     -0.51168, 87.56022,50.00000,51.00000,1.010528e-08,0.88450,3
342.908,264.332,     -0.52367, 87.34911,50.00000,51.00000,1.010227e-08,0.88425,3
343.912,265.332,     -0.53048, 87.10533,50.00000,51.00000,1.010264e-08,0.88398,3
344.908,266.332,     -0.54163, 86.83378,50.00000,51.00000,1.012297e-08,0.88377,3
345.905,267.332,     -0.55669, 86.56222,50.00000,51.00000,1.009964e-08,0.88352,3
346.905,268.332,     -0.57475, 86.28311,50.00000,51.00000,1.010913e-08,0.88326,3
347.911,269.332,     -0.58372, 85.97889,50.00000,51.00000,1.012089e-08,0.88300,3
348.904,270.332,     -0.59591, 85.63956,50.00000,51.00000,1.010702e-08,0.88275,3
349.917,271.332,     -0.60769, 85.27756,50.00000,51.00000,1.011091e-08,0.88248,3
350.916,272.332,     -0.62109, 84.91289,50.00000,51.00000,1.011363e-08,0.88222,3
351.893,273.332,     -0.62900, 84.51067,50.00000,51.00000,1.009078e-08,0.88196,3
352.897,274.332,     -0.64017, 84.08578,50.00000,51.00000,1.011501e-08,0.88170,3
353.903,275.332,     -0.64884, 83.61067,50.00000,51.00000,1.011789e-08,0.88143,3
354.912,276.332,     -0.65707, 83.13044,50.00000,51.00000,1.010797e-08,0.88117,3
355.908,277.332,     -0.67316, 82.60511,50.00000,51.00000,1.009635e-08,0.88091,3
356.911,278.332,     -0.68074, 82.02689,50.00000,51.00000,1.009772e-08,0.88069,3
357.906,279.332,     -0.69737, 81.41333,50.00000,51.00000,1.010604e-08,0.88043,3
358.902,280.332,     -0.70592, 80.72200,50.00000,51.00000,1.011557e-08,0.88016,3
359.907,281.332,     -0.71729, 80.00556,50.00000,51.00000,1.009431e-08,0.87989,3
360.91,282.332,     -0.72428, 79.22600,50.00000,51.00000,1.010033e-08,0.87963,3
361.905,283.332,     -0.74058, 78.44422,50.00000,51.00000,1.010028e-08,0.87936,3
362.916,284.332,     -0.74040, 77.55178,50.00000,51.00000,1.010257e-08,0.87910,3
363.919,285.332,     -0.75117, 76.53844,50.00000,51.00000,1.009851e-08,0.87883,3
364.916,286.332,     -0.76594, 75.55044,50.00000,51.00000,1.009482e-08,0.87855,3
365.918,287.332,     -0.77607, 74.46200,50.00000,51.00000,1.013030e-08,0.87828,3
366.905,288.332,     -0.78387, 73.24000,50.00000,51.00000,1.010720e-08,0.87802,3
367.905,289.332,     -0.78842, 71.96289,50.00000,51.00000,1.010825e-08,0.87778,3
368.908,290.332,     -0.80214, 70.58511,50.00000,51.00000,1.010928e-08,0.87751,3
369.916,291.332,     -0.80932, 69.04400,50.00000,51.00000,1.012318e-08,0.87724,3
370.905,292.332,     -0.82051, 67.50289,50.00000,51.00000,1.010034e-08,0.87697,3
371.891,293.332,     -0.82983, 65.80333,50.00000,51.00000,1.010220e-08,0.87670,3
372.902,294.332,     -0.83825, 64.02844,50.00000,51.00000,1.009496e-08,0.87642,3
373.892,295.332,     -0.85188, 62.14800,50.00000,51.00000,1.009979e-08,0.87615,3
374.897,296.332,     -0.86391, 60.12156,50.00000,51.00000,1.010992e-08,0.87587,3
375.904,297.332,     -0.87952, 58.07756,50.00000,51.00000,1.010778e-08,0.87559,3
376.914,298.332,     -0.89019, 55.88533,50.00000,51.00000,1.011595e-08,0.87537,3
377.908,299.332,     -0.91062, 53.64778,50.00000,51.00000,1.009429e-08,0.87509,3
378.914,300.332,     -0.92635, 51.29956,50.00000,51.00000,1.010712e-08,0.87482,3
379.897,301.332,     -0.95401, 48.95156,50.00000,51.00000,1.010197e-08,0.87455,3
380.912,302.332,     -0.97702, 46.53044,50.00000,51.00000,1.009338e-08,0.87427,3
381.903,303.332,     -1.00793, 44.05400,50.00000,51.00000,1.009622e-08,0.87399,3
382.893,304.332,     -1.03151, 41.67067,50.00000,51.00000,1.011518e-08,0.87371,3
383.906,305.332,     -1.07076, 39.20689,50.00000,51.00000,1.008932e-08,0.87343,3
384.903,306.332,     -1.10361, 36.81356,50.00000,51.00000,1.010375e-08,0.87315,3
385.905,307.332,     -1.14496, 34.53311,50.00000,51.00000,1.010060e-08,0.87287,3
386.911,308.332,     -1.19750, 32.28800,50.00000,51.00000,1.010909e-08,0.87265,3
387.91,309.332,     -1.24341, 30.14356,50.00000,51.00000,1.009542e-08,0.87235,3
388.912,310.332,     -1.29139, 28.12978,50.00000,51.00000,1.009258e-08,0.87208,3
389.913,311.332,     -1.33610, 26.24178,50.00000,52.00000,1.008332e-08,0.87179,3
390.916,312.332,     -1.38723, 24.44667,50.00000,52.00000,1.007255e-08,0.87151,3
391.899,313.332,     -1.42949, 22.78489,50.00000,52.00000,1.009514e-08,0.87122,3
392.904,314.332,     -1.47167, 21.24867,50.00000,52.00000,1.009485e-08,0.87093,3
393.919,315.332,     -1.52174, 19.84333,50.00000,52.00000,1.010110e-08,0.87066,3
394.909,316.332,     -1.56412, 18.55867,50.00000,52.00000,1.010248e-08,0.87036,3
395.897,317.332,     -1.60539, 17.43489,50.00000,52.00000,1.008372e-08,0.87012,3
396.903,318.332,     -1.64680, 16.44178,50.00000,52.00000,1.009653e-08,0.86984,3
397.916,319.332,     -1.68102, 15.51667,50.00000,52.00000,1.009433e-08,0.86956,3
398.917,320.332,     -1.72165, 14.65689,50.00000,52.00000,1.008406e-08,0.86927,3
399.592,321.024,     -1.74792, 14.11378,50.00000,52.00000,1.010609e-08,0.86908,4
399.676,321.099,     -1.74591, 14.05844,50.00000,52.00000,1.010887e-08,0.86903,4
399.817,321.174,     -1.69142, 14.01578,50.00000,52.00000,1.010887e-08,0.86903,4
400.05,321.249,     -1.55436, 14.01578,50.00000,52.00000,1.011408e-08,0.86899,4
400.374,321.324,     -1.30374, 14.01578,50.00000,52.00000,1.011408e-08,0.86899,4
400.838,321.399,     -0.94282, 14.04600,50.00000,52.00000,1.011408e-08,0.86899,4
401.444,321.474,     -0.46333, 14.08356,50.00000,52.00000,1.009624e-08,0.86894,4
402.2,321.549,      0.11957, 14.15400,50.00000,52.00000,1.009624e-08,0.86894,4
403.112,321.624,      0.78714, 14.20933,50.00000,52.00000,1.009310e-08,0.86888,4
404.148,321.699,      1.51837, 14.27711,50.00000,52.00000,1.009310e-08,0.86888,4
405.32,321.774,      2.28212, 14.37022,50.00000,52.00000,1.010989e-08,0.86884,4
406.603,321.849,      3.05565, 14.43800,50.00000,52.00000,1.010989e-08,0.86884,4
407.967,321.924,      3.81642, 14.46822,50.00000,52.00000,1.010908e-08,0.86879,4
409.396,321.999,      4.53600, 14.52867,50.00000,52.00000,1.010908e-08,0.86879,4
410.873,322.074,      5.19284, 14.52867,50.00000,52.00000,1.010908e-08,0.86879,4
412.375,322.149,      5.77755, 14.55867,50.00000,52.00000,1.009140e-08,0.86874,4
413.896,322.224,      6.27548, 14.55867,50.00000,52.00000,1.009140e-08,0.86874,4
415.395,322.299,      6.68351, 14.52867,50.00000,52.00000,1.009551e-08,0.86869,4
416.876,322.374,      7.00108, 14.46578,50.00000,52.00000,1.009551e-08,0.86869,4
418.329,322.449,      7.22277, 14.43556,50.00000,52.00000,1.007539e-08,0.86865,4
419.746,322.524,      7.36877, 14.37267,50.00000,52.00000,1.007539e-08,0.86865,4
421.143,322.599,      7.44055, 14.30222,50.00000,52.00000,1.007539e-08,0.86865,4
422.47,322.674,      7.45056, 14.19667,50.00000,52.00000,1.009744e-08,0.86860,4
423.786,322.749,      7.41143, 14.11133,50.00000,52.00000,1.009744e-08,0.86860,4
425.071,322.824,      7.34044, 13.95800,50.00000,52.00000,1.010497e-08,0.86855,4
426.337,322.899,      7.24516, 13.87756,50.00000,52.00000,1.010497e-08,0.86855,4
427.575,322.974,      7.14494, 13.77178,50.00000,52.00000,1.010626e-08,0.86850,4
428.817,323.049,      7.04643, 13.65867,50.00000,52.00000,1.010626e-08,0.86850,4
430.039,323.124,      6.96014, 13.54556,50.00000,52.00000,1.009499e-08,0.86845,4
431.281,323.199,      6.88930, 13.42733,50.00000,52.00000,1.009499e-08,0.86845,4
432.525,323.274,      6.84711, 13.30667,50.00000,52.00000,1.010997e-08,0.86840,4
433.801,323.349,      6.83324, 13.19622,50.00000,52.00000,1.010997e-08,0.86840,4
435.086,323.424,      6.84632, 13.07800,50.00000,52.00000,1.010997e-08,0.86840,4
436.404,323.499,      6.89314, 12.98000,50.00000,52.00000,1.010369e-08,0.86835,4
437.737,323.574,      6.96652, 12.87689,50.00000,52.00000,1.010369e-08,0.86835,4
439.112,323.649,      7.06194, 12.75867,50.00000,52.00000,1.008929e-08,0.86830,4
440.499,323.724,      7.17925, 12.64044,50.00000,52.00000,1.008929e-08,0.86830,4
441.932,323.799,      7.31607, 12.50222,50.00000,52.00000,1.011483e-08,0.86826,4
443.377,323.874,      7.46362, 12.33622,50.00000,52.00000,1.011483e-08,0.86826,4
444.85,323.949,      7.61745, 12.24822,50.00000,52.00000,1.011483e-08,0.86826,4
446.341,324.024,      7.76657, 12.10756,50.00000,52.00000,1.010100e-08,0.86821,4
447.862,324.099,      7.91630, 11.92644,50.00000,52.00000,1.010100e-08,0.86821,4
449.387,324.174,      8.05853, 11.78822,50.00000,52.00000,1.008681e-08,0.86816,4
450.937,324.249,      8.18899, 11.67267,50.00000,52.00000,1.008681e-08,0.86816,4
452.475,324.324,      8.30694, 11.52689,50.00000,52.00000,1.011575e-08,0.86811,4
454.034,324.399,      8.41030, 11.32556,50.00000,52.00000,1.011575e-08,0.86811,4
455.588,324.474,      8.49842, 11.17733,50.00000,52.00000,1.008289e-08,0.86806,4
457.147,324.549,      8.56920, 10.97111,50.00000,52.00000,1.008289e-08,0.86806,4
458.708,324.624,      8.62701, 10.87556,50.00000,52.00000,1.008289e-08,0.86806,4
460.271,324.699,      8.66804, 10.70711,50.00000,52.00000,1.008873e-08,0.86801,4
461.822,324.774,      8.69681, 10.55133,50.00000,52.00000,1.008873e-08,0.86801,4
463.382,324.849,      8.71536, 10.37022,50.00000,52.00000,1.009100e-08,0.86797,4
464.932,324.924,      8.72580, 10.20178,50.00000,52.00000,1.009100e-08,0.86797,4
466.48,324.999,      8.72524, 10.06111,50.00000,52.00000,1.009065e-08,0.86791,4
468.028,325.074,      8.72086,  9.87244,50.00000,52.00000,1.009065e-08,0.86791,4
469.558,325.149,      8.71191,  9.74933,50.00000,52.00000,1.009314e-08,0.86786,4
471.114,325.224,      8.70397,  9.56333,50.00000,52.00000,1.009314e-08,0.86786,4
472.673,325.299,      8.69543,  9.48289,50.00000,52.00000,1.009314e-08,0.86786,4
474.22,325.374,      8.68234,  9.32444,50.00000,52.00000,1.009746e-08,0.86782,4
475.776,325.449,      8.67872,  9.20378,50.00000,52.00000,1.009746e-08,0.86782,4
477.338,325.524,      8.67700,  9.07311,50.00000,52.00000,1.010534e-08,0.86777,4
478.9,325.599,      8.67195,  8.96000,50.00000,52.00000,1.010534e-08,0.86777,4
480.462,325.674,      8.67253,  8.89956,50.00000,52.00000,1.009033e-08,0.86772,4
482.015,325.749,      8.67132,  8.82667,50.00000,52.00000,1.009033e-08,0.86772,4
483.594,325.824,      8.67609,  8.71356,50.00000,52.00000,1.009824e-08,0.86767,4
485.175,325.899,      8.67837,  8.68333,50.00000,52.00000,1.009824e-08,0.86767,4
486.747,325.974,      8.68022,  8.61556,50.00000,52.00000,1.009824e-08,0.86767,4
488.327,326.049,      8.68210,  8.58533,50.00000,52.00000,1.008353e-08,0.86763,4
489.913,326.124,      8.68648,  8.54756,50.00000,52.00000,1.008353e-08,0.86763,4
491.495,326.199,      8.68828,  8.50978,50.00000,52.00000,1.010907e-08,0.86757,4
493.078,326.274,      8.68643,  8.47978,50.00000,52.00000,1.010907e-08,0.86757,4
494.669,326.349,      8.68070,  8.46467,50.00000,52.00000,1.009562e-08,0.86753,4
496.25,326.424,      8.67256,  8.43444,50.00000,52.00000,1.009562e-08,0.86753,4
497.832,326.499,      8.65819,  8.43444,50.00000,52.00000,1.010521e-08,0.86748,4
499.419,326.574,      8.64570,  8.40422,50.00000,52.00000,1.010521e-08,0.86748,4
500.999,326.649,      8.62434,  8.40422,50.00000,52.00000,1.010271e-08,0.86744,4
502.58,326.724,      8.60453,  8.40422,50.00000,52.00000,1.010271e-08,0.86744,4
504.163,326.799,      8.57896,  8.40422,50.00000,52.00000,1.010271e-08,0.86744,4
505.749,326.874,      8.55326,  8.41933,50.00000,52.00000,1.009894e-08,0.86739,4
507.323,326.949,      8.52162,  8.43444,50.00000,52.00000,1.009894e-08,0.86739,4
508.902,327.024,      8.49436,  8.41933,50.00000,52.00000,1.009681e-08,0.86734,4
510.478,327.099,      8.46433,  8.40422,50.00000,52.00000,1.009681e-08,0.86734,4
512.065,327.174,      8.43481,  8.43444,50.00000,52.00000,1.008202e-08,0.86729,4
513.646,327.249,      8.40703,  8.43444,50.00000,52.00000,1.008202e-08,0.86729,4
515.215,327.324,      8.37752,  8.43444,50.00000,52.00000,1.010156e-08,0.86724,4
516.794,327.399,      8.34593,  8.43444,50.00000,52.00000,1.010156e-08,0.86724,4
518.364,327.474,      8.31806,  8.43444,50.00000,52.00000,1.010156e-08,0.86724,4
519.937,327.549,      8.28603,  8.43444,50.00000,52.00000,1.010731e-08,0.86719,4
521.517,327.624,      8.25848,  8.43444,50.00000,52.00000,1.010731e-08,0.86719,4
523.086,327.699,      8.22545,  8.44956,50.00000,52.00000,1.011877e-08,0.86714,4
524.67,327.774,      8.19613,  8.44956,50.00000,52.00000,1.011877e-08,0.86714,4
526.242,327.849,      8.16333,  8.45711,50.00000,52.00000,1.010743e-08,0.86709,4
527.813,327.924,      8.12975,  8.46467,50.00000,52.00000,1.010743e-08,0.86709,4
529.386,327.999,      8.09802,  8.46467,50.00000,52.00000,1.008857e-08,0.86704,4
530.956,328.074,      8.06635,  8.46467,50.00000,52.00000,1.008857e-08,0.86704,4
532.534,328.149,      8.03255,  8.46467,50.00000,52.00000,1.008857e-08,0.86704,4
534.1,328.224,      7.99842,  8.49489,50.00000,52.00000,1.013353e-08,0.86699,4
535.661,328.299,      7.96200,  8.49489,50.00000,52.00000,1.013353e-08,0.86699,4
537.234,328.374,      7.92462,  8.49489,50.00000,52.00000,1.007834e-08,0.86694,4
538.809,328.449,      7.89174,  8.49489,50.00000,52.00000,1.007834e-08,0.86694,4
540.372,328.524,      7.85444,  8.49489,50.00000,52.00000,1.008321e-08,0.86690,4
541.935,328.599,      7.81664,  8.49489,50.00000,52.00000,1.008321e-08,0.86690,4
543.51,328.674,      7.77726,  8.52489,50.00000,52.00000,1.009462e-08,0.86685,4
545.07,328.749,      7.74049,  8.55511,50.00000,52.00000,1.009462e-08,0.86685,4
546.634,328.824,      7.70415,  8.56267,50.00000,52.00000,1.009462e-08,0.86685,4
548.2,328.899,      7.66168,  8.56267,50.00000,52.00000,1.010534e-08,0.86680,4
549.752,328.974,      7.62660,  8.54756,50.00000,52.00000,1.010534e-08,0.86680,4
551.304,329.049,      7.58388,  8.57778,50.00000,52.00000,1.011281e-08,0.86676,4
552.894,329.124,      7.54396,  8.60800,50.00000,52.00000,1.011281e-08,0.86676,4
554.444,329.199,      7.50736,  8.60800,50.00000,52.00000,1.010148e-08,0.86670,4
555.991,329.274,      7.46874,  8.60800,50.00000,52.00000,1.010148e-08,0.86670,4
557.551,329.349,      7.43033,  8.60800,50.00000,52.00000,1.009788e-08,0.86666,4
559.119,329.424,      7.39178,  8.60800,50.00000,52.00000,1.009788e-08,0.86666,4
560.669,329.499,      7.34987,  8.63800,50.00000,52.00000,1.009788e-08,0.86666,4
562.231,329.574,      7.31056,  8.63800,50.00000,52.00000,1.008758e-08,0.86661,4
563.773,329.649,      7.27299,  8.66822,50.00000,52.00000,1.008758e-08,0.86661,4
565.328,329.724,      7.23352,  8.66822,50.00000,52.00000,1.009872e-08,0.86655,4
566.897,329.799,      7.19396,  8.69844,50.00000,52.00000,1.009872e-08,0.86655,4
568.439,329.874,      7.15580,  8.69844,50.00000,52.00000,1.010089e-08,0.86651,4
569.991,329.949,      7.11539,  8.69844,50.00000,52.00000,1.010089e-08,0.86651,4
571.547,330.024,      7.07909,  8.72867,50.00000,52.00000,1.010356e-08,0.86646,4
573.092,330.099,      7.03761,  8.72867,50.00000,52.00000,1.010356e-08,0.86646,4
574.648,330.174,      7.00062,  8.75867,50.00000,52.00000,1.010356e-08,0.86646,4
576.196,330.249,      6.96153,  8.75867,50.00000,52.00000,1.010667e-08,0.86641,4
577.751,330.324,      6.92353,  8.78889,50.00000,52.00000,1.010667e-08,0.86641,4
579.299,330.399,      6.88497,  8.78889,50.00000,52.00000,1.009357e-08,0.86636,4
580.848,330.474,      6.84253,  8.81911,50.00000,52.00000,1.009357e-08,0.86636,4
582.396,330.549,      6.80266,  8.81911,50.00000,52.00000,1.009975e-08,0.86632,4
583.942,330.624,      6.76505,  8.84933,50.00000,52.00000,1.009975e-08,0.86632,4
585.483,330.699,      6.72133,  8.84933,50.00000,52.00000,1.010806e-08,0.86626,4
587.032,330.774,      6.68275,  8.87956,50.00000,52.00000,1.010806e-08,0.86626,4
588.59,330.849,      6.64435,  8.87956,50.00000,52.00000,1.011848e-08,0.86622,4
590.118,330.924,      6.60212,  8.87956,50.00000,52.00000,1.011848e-08,0.86622,4
591.674,330.999,      6.56021,  8.90956,50.00000,52.00000,1.011848e-08,0.86622,4
593.212,331.074,      6.52235,  8.90956,50.00000,52.00000,1.010519e-08,0.86617,4
594.748,331.149,      6.48367,  8.91711,50.00000,52.00000,1.010519e-08,0.86617,4
596.296,331.224,      6.44049,  8.93978,50.00000,52.00000,1.009367e-08,0.86612,4
597.844,331.299,      6.40121,  8.97000,50.00000,52.00000,1.009367e-08,0.86612,4
599.381,331.374,      6.36324,  8.97000,50.00000,52.00000,1.009557e-08,0.86607,4
600.921,331.449,      6.32006,  8.97000,50.00000,52.00000,1.009557e-08,0.86607,4
602.471,331.524,      6.27992,  8.97000,50.00000,52.00000,1.009557e-08,0.86607,4
604.001,331.599,      6.23661,  9.00022,50.00000,52.00000,1.009328e-08,0.86603,4
605.539,331.674,      6.19474,  9.00022,50.00000,52.00000,1.009328e-08,0.86603,4
607.082,331.749,      6.15146,  9.03022,50.00000,52.00000,1.009885e-08,0.86597,4
608.618,331.824,      6.10570,  9.03022,50.00000,52.00000,1.009885e-08,0.86597,4
610.161,331.899,      6.06744,  9.09067,50.00000,52.00000,1.010772e-08,0.86592,4
611.682,331.974,      6.02376,  9.06044,50.00000,52.00000,1.010772e-08,0.86592,4
613.221,332.049,      5.98449,  9.09067,50.00000,52.00000,1.010497e-08,0.86588,4
614.759,332.124,      5.94023,  9.12089,50.00000,52.00000,1.010497e-08,0.86588,4
616.294,332.199,      5.89768,  9.12089,50.00000,52.00000,1.010497e-08,0.86588,4
617.828,332.274,      5.85174,  9.12089,50.00000,52.00000,1.009728e-08,0.86583,4
619.36,332.349,      5.80848,  9.12089,50.00000,52.00000,1.009728e-08,0.86583,4
620.889,332.424,      5.76567,  9.15089,50.00000,52.00000,1.009596e-08,0.86578,4
622.424,332.499,      5.71949,  9.15089,50.00000,52.00000,1.009596e-08,0.86578,4
623.956,332.574,      5.67471,  9.18111,50.00000,52.00000,1.008612e-08,0.86573,4
625.485,332.649,      5.63167,  9.20378,50.00000,52.00000,1.008612e-08,0.86573,4
627.023,332.724,      5.58819,  9.20378,50.00000,52.00000,1.011375e-08,0.86568,4
628.544,332.799,      5.54508,  9.21133,50.00000,52.00000,1.011375e-08,0.86568,4
630.078,332.874,      5.50251,  9.24156,50.00000,52.00000,1.011375e-08,0.86568,4
631.612,332.949,      5.46205,  9.26400,50.00000,52.00000,1.009777e-08,0.86563,4
633.145,333.024,      5.41751,  9.26400,50.00000,52.00000,1.009777e-08,0.86563,4
634.666,333.099,      5.37729,  9.26400,50.00000,52.00000,1.010420e-08,0.86558,4
636.197,333.174,      5.33730,  9.28667,50.00000,52.00000,1.010420e-08,0.86558,4
637.725,333.249,      5.29450,  9.30178,50.00000,52.00000,1.008672e-08,0.86552,4
639.255,333.324,      5.24694,  9.33200,50.00000,52.00000,1.008672e-08,0.86552,4
640.789,333.399,      5.20284,  9.33200,50.00000,52.00000,1.008672e-08,0.86552,4
642.314,333.474,      5.15687,  9.33200,50.00000,52.00000,1.008515e-08,0.86548,4
643.831,333.549,      5.11036,  9.36222,50.00000,52.00000,1.008515e-08,0.86548,4
645.365,333.624,      5.06508,  9.36222,50.00000,52.00000,1.010522e-08,0.86544,4
646.895,333.699,      5.01993,  9.39222,50.00000,52.00000,1.010522e-08,0.86544,4
648.418,333.774,      4.97424,  9.39222,50.00000,52.00000,1.007613e-08,0.86538,4
649.943,333.849,      4.92840,  9.39222,50.00000,52.00000,1.007613e-08,0.86538,4
651.474,333.924,      4.88341,  9.42244,50.00000,52.00000,1.010048e-08,0.86534,4
653.001,333.999,      4.83723,  9.42244,50.00000,52.00000,1.010048e-08,0.86534,4
654.53,334.074,      4.79155,  9.45267,50.00000,52.00000,1.010048e-08,0.86534,4
656.051,334.149,      4.74400,  9.45267,50.00000,52.00000,1.011614e-08,0.86529,4
657.578,334.224,      4.69564,  9.48289,50.00000,52.00000,1.011614e-08,0.86529,4
659.097,334.299,      4.64505,  9.48289,50.00000,52.00000,1.008841e-08,0.86523,4
660.631,334.374,      4.59703,  9.48289,50.00000,52.00000,1.008841e-08,0.86523,4
662.144,334.449,      4.54438,  9.51289,50.00000,52.00000,1.011102e-08,0.86519,4
663.67,334.524,      4.49430,  9.51289,50.00000,52.00000,1.011102e-08,0.86519,4
665.198,334.599,      4.44674,  9.54311,50.00000,52.00000,1.011504e-08,0.86514,4
666.704,334.674,      4.39386,  9.54311,50.00000,52.00000,1.011504e-08,0.86514,4
668.224,334.749,      4.34458,  9.57333,50.00000,52.00000,1.011504e-08,0.86514,4
669.744,334.824,      4.29275,  9.57333,50.00000,52.00000,1.009294e-08,0.86509,4
671.273,334.899,      4.24384,  9.57333,50.00000,52.00000,1.009294e-08,0.86509,4
672.788,334.974,      4.19470,  9.57333,50.00000,52.00000,1.010886e-08,0.86504,4
674.312,335.049,      4.13863,  9.59600,50.00000,52.00000,1.010886e-08,0.86504,4
675.835,335.124,      4.08747,  9.63378,50.00000,52.00000,1.009042e-08,0.86500,4
677.364,335.199,      4.03549,  9.63378,50.00000,52.00000,1.009042e-08,0.86500,4
678.874,335.274,      3.98530,  9.63378,50.00000,52.00000,1.010421e-08,0.86494,4
680.391,335.349,      3.93327,  9.64111,50.00000,52.00000,1.010421e-08,0.86494,4
681.92,335.424,      3.87974,  9.64111,50.00000,52.00000,1.010421e-08,0.86494,4
683.438,335.499,      3.82874,  9.66378,50.00000,52.00000,1.009783e-08,0.86489,4
684.951,335.574,      3.77308,  9.69400,50.00000,52.00000,1.009783e-08,0.86489,4
686.476,335.649,      3.72108,  9.69400,50.00000,52.00000,1.009847e-08,0.86485,4
687.992,335.724,      3.66577,  9.69400,50.00000,52.00000,1.009847e-08,0.86485,4
689.519,335.799,      3.61274,  9.70156,50.00000,52.00000,1.010665e-08,0.86478,4
691.034,335.874,      3.55880,  9.72422,50.00000,52.00000,1.010665e-08,0.86478,4
692.55,335.949,      3.50713,  9.72422,50.00000,52.00000,1.011768e-08,0.86474,4
694.076,336.024,      3.44873,  9.75444,50.00000,52.00000,1.011768e-08,0.86474,4
695.582,336.099,      3.39842,  9.78444,50.00000,52.00000,1.011768e-08,0.86474,4
697.117,336.174,      3.35047,  9.78444,50.00000,52.00000,1.009850e-08,0.86469,4
698.627,336.249,      3.29464,  9.78444,50.00000,52.00000,1.009850e-08,0.86469,4
700.157,336.324,      3.24392,  9.78444,50.00000,52.00000,1.009632e-08,0.86464,4
701.686,336.399,      3.18920,  9.81467,50.00000,52.00000,1.009632e-08,0.86464,4
703.193,336.474,      3.13600,  9.84489,50.00000,52.00000,1.010353e-08,0.86459,4
704.726,336.549,      3.08620,  9.82222,50.00000,52.00000,1.010353e-08,0.86459,4
706.236,336.624,      3.02778,  9.81467,50.00000,52.00000,1.011706e-08,0.86455,4
707.767,336.699,      2.97345,  9.84489,50.00000,52.00000,1.011706e-08,0.86455,4
709.268,336.774,      2.91466,  9.87511,50.00000,52.00000,1.011430e-08,0.86448,4
710.802,336.849,      2.85789,  9.87511,50.00000,52.00000,1.011430e-08,0.86448,4
712.307,336.924,      2.80053,  9.87511,50.00000,52.00000,1.011430e-08,0.86448,4
713.823,336.999,      2.74337,  9.90511,50.00000,52.00000,1.009926e-08,0.86444,4
715.333,337.074,      2.68745,  9.93533,50.00000,52.00000,1.009926e-08,0.86444,4
716.859,337.149,      2.62962,  9.93533,50.00000,52.00000,1.009073e-08,0.86440,4
718.384,337.224,      2.57517,  9.93533,50.00000,52.00000,1.009073e-08,0.86440,4
719.884,337.299,      2.51908,  9.97311,50.00000,52.00000,1.010186e-08,0.86435,4
721.416,337.374,      2.46255,  9.99578,50.00000,52.00000,1.010186e-08,0.86435,4
722.934,337.449,      2.41008,  9.99578,50.00000,52.00000,1.010186e-08,0.86435,4
724.443,337.524,      2.35460,  9.99578,50.00000,52.00000,1.010289e-08,0.86431,4
725.955,337.599,      2.29825, 10.02578,50.00000,52.00000,1.010289e-08,0.86431,4
727.479,337.674,      2.24211, 10.02578,50.00000,52.00000,1.010357e-08,0.86425,4
728.991,337.749,      2.18436, 10.01089,50.00000,52.00000,1.010357e-08,0.86425,4
730.519,337.824,      2.12863, 10.03600,50.00000,52.00000,1.011732e-08,0.86421,4
732.035,337.899,      2.07163, 10.06111,50.00000,52.00000,1.011732e-08,0.86421,4
733.552,337.974,      2.01592, 10.06111,50.00000,52.00000,1.009037e-08,0.86416,4
735.074,338.049,      1.95861, 10.07622,50.00000,52.00000,1.009037e-08,0.86416,4
736.594,338.124,      1.89538, 10.10622,50.00000,52.00000,1.009037e-08,0.86416,4
738.101,338.199,      1.83807, 10.10622,50.00000,52.00000,1.011592e-08,0.86409,4
739.623,338.274,      1.77919, 10.10622,50.00000,52.00000,1.011592e-08,0.86409,4
741.135,338.349,      1.72013, 10.10622,50.00000,52.00000,1.010076e-08,0.86405,4
742.648,338.424,      1.66162, 10.10622,50.00000,52.00000,1.010076e-08,0.86405,4
744.164,338.499,      1.60332, 10.13644,50.00000,52.00000,1.010311e-08,0.86401,4
745.697,338.574,      1.54488, 10.16667,50.00000,52.00000,1.010311e-08,0.86401,4
747.204,338.649,      1.48661, 10.16667,50.00000,52.00000,1.008880e-08,0.86395,4
748.729,338.724,      1.43402, 10.18178,50.00000,52.00000,1.008880e-08,0.86395,4
750.246,338.799,      1.37581, 10.19689,50.00000,52.00000,1.008880e-08,0.86395,4
751.755,338.874,      1.31268, 10.19933,50.00000,52.00000,1.009903e-08,0.86390,4
753.262,338.949,      1.25157, 10.21444,50.00000,52.00000,1.009903e-08,0.86390,4
754.781,339.024,      1.19324, 10.21444,50.00000,52.00000,1.009119e-08,0.86386,4
756.303,339.099,      1.13291, 10.25978,50.00000,52.00000,1.009119e-08,0.86386,4
757.812,339.174,      1.06947, 10.25978,50.00000,52.00000,1.011144e-08,0.86381,4
759.325,339.249,      1.00733, 10.25978,50.00000,52.00000,1.011144e-08,0.86381,4
760.837,339.324,      0.95349, 10.25978,50.00000,52.00000,1.009958e-08,0.86375,4
762.368,339.399,      0.89398, 10.25978,50.00000,52.00000,1.009958e-08,0.86375,4
763.872,339.474,      0.83651, 10.28222,50.00000,52.00000,1.009958e-08,0.86375,4
765.387,339.549,      0.78111, 10.32000,50.00000,52.00000,1.009364e-08,0.86371,4
766.905,339.624,      0.72074, 10.32000,50.00000,52.00000,1.009364e-08,0.86371,4
768.42,339.699,      0.66095, 10.32000,50.00000,52.00000,1.009332e-08,0.86366,4
769.935,339.774,      0.59989, 10.32000,50.00000,52.00000,1.009332e-08,0.86366,4
771.443,339.849,      0.54386, 10.35022,50.00000,52.00000,1.010590e-08,0.86361,4
772.949,339.924,      0.48544, 10.38044,50.00000,52.00000,1.010590e-08,0.86361,4
774.469,339.999,      0.42762, 10.38044,50.00000,52.00000,1.010264e-08,0.86356,4
775.99,340.074,      0.37038, 10.38044,50.00000,52.00000,1.010264e-08,0.86356,4
777.502,340.149,      0.31000, 10.38044,50.00000,52.00000,1.011001e-08,0.86351,4
779.012,340.224,      0.25095, 10.38044,50.00000,52.00000,1.011001e-08,0.86351,4
780.528,340.299,      0.18912, 10.40289,50.00000,52.00000,1.011001e-08,0.86351,4
782.043,340.374,      0.12975, 10.44067,50.00000,52.00000,1.009825e-08,0.86346,4
783.564,340.449, 6.984641e-02, 10.40800,50.00000,52.00000,1.009825e-08,0.86346,4
785.069,340.524, 1.015263e-02, 10.43822,50.00000,52.00000,1.009299e-08,0.86341,4
786.577,340.599,-5.196116e-02, 10.46844,50.00000,52.00000,            ,0.45028,4
788.095,340.674,     -0.11198, 10.46844,50.00000,52.00000,            ,0.44966,4
789.612,340.749,     -0.17405, 10.46844,50.00000,52.00000,            ,0.44905,4
791.121,340.824,     -0.23478, 10.46844,50.00000,52.00000,            ,0.44845,4
792.634,340.899,     -0.29794, 10.49844,50.00000,52.00000,            ,0.44784,4
794.154,340.974,     -0.35673, 10.49844,50.00000,52.00000,            ,0.44723,4
794.66,340.999,     -0.37585, 10.49844,50.00000,52.00000,            ,0.44703,4