File: data/TGA/commercial_samples/ExpDat_2025_07_25_SL_PS_Red_Solo_Cup_Isothermal.csv
#EXPORTTYPE:                 ,DATA ALL
#FILE:                       ,2025_07_25_SL_PS_Red_Solo_Cup_Isothermal.ngb-ss5
#FORMAT:                     ,NETZSCH5
#FTYPE:                      ,ASCII
#IDENTITY:                   ,PS-Red-Solo-Cup
#DECIMAL:                    ,POINT
#SEPARATOR:                  ,COMMA
#MTYPE:                      ,DSC
#INSTRUMENT:                 ,NETZSCH STA 449F5
#PROJECT:                    ,
#DATE/TIME:                  ,7/25/2025 9:05:09 AM (UTC-4)
#CORR. FILE:                 ,
#TEMPCAL:                    ,05-05-2025 14:38
#SENSITIVITY:                ,28-06-2023 13:53
#LABORATORY:                 ,Tran/AAG
#OPERATOR:                   ,Stanley
#REMARK:                     ,2025_03_29_SL_005d_M1_isothermal
#SAMPLE:                     ,PS-Red-Solo-Cup
#SAMPLE MASS /mg:            ,4.32
#MATERIAL:                   ,Polystyrene
#REFERENCE:                  ,
#REFERENCE MASS /mg:         ,0
#TYPE OF CRUCIBLE:           ,Al2O3 85 ‘l, open
#SAMPLE CRUCIBLE MASS /mg:   ,0
#REFERENCE CRUCIBLE MASS /mg:,0
#DSC RANGE /‘V:              ,5000
#TG RANGE /mg:               ,35000
#TAU-R:                      ,---
#CORR. CODE:                 ,000
#EXO:                        ,-1
#RANGE:                      ,30›C....800›C/0.0....20.0K/min
#SEGMENT:                    ,S1-5/5
#SEG. 1:                     ,30›C/10.0(K/min)/100›C
#SEG. 2:                     ,100›C/00:10/100›C
#SEG. 3:                     ,100›C/5.0(K/min)/300›C
#SEG. 4:                     ,300›C/20:00/300›C
#SEG. 5:                     ,300›C/20.0(K/min)/800›C

##Temp./›C,Time/min,DSC/(mW/mg),Mass/%,Gas Flow(purge2)/(ml/min),Gas Flow(protective)/(ml/min),TIC(scan:1)/A,Sensit./(uV/mW),Segment
 29.98400,   0.00000,      0.72226,100,50.00000,50.00000,            ,0.92355,1
 33.72100,   1.24000,      0.72519, 93.18310,50.00000,50.00000,1.740864e-08,0.92366,1
 39.95100,   2.48000,      1.32110, 92.02037,50.00000,50.00000,1.740418e-08,0.92380,1
 48.39500,   3.72000,      1.93953, 93.25903,50.00000,50.00000,1.745020e-08,0.92395,1
 59.59500,   4.96000,      2.73815, 94.34074,50.00000,50.00000,1.742947e-08,0.92412,1
 72.99200,   6.20000,      3.46258, 95.21806,50.00000,50.00000,1.745424e-08,0.92433,1
 84.78900,   7.20000,      3.96129, 95.72083,50.00000,50.00000,1.743792e-08,0.92450,2
 91.49800,   7.82000,      3.72322, 95.31759,50.00000,50.00000,1.743849e-08,0.92459,2
 96.57100,   8.44000,      2.99210, 94.44815,50.00000,50.00000,1.746908e-08,0.92470,2
100.202,   9.06000,      2.25107, 93.71736,50.00000,50.00000,1.745943e-08,0.92482,2
103.095,   9.68000,      1.78461, 93.16481,50.00000,50.00000,1.745272e-08,0.92491,2
105.52,  10.30000,      1.47438, 92.76667,50.00000,50.00000,1.742122e-08,0.92502,2
107.386,  10.92000,      1.14989, 92.30856,50.00000,50.00000,1.742523e-08,0.92513,2
108.66,  11.54000,      0.78626, 91.77153,50.00000,50.00000,1.742488e-08,0.92521,2
109.404,  12.16000,      0.44783, 91.31852,50.00000,50.00000,1.742005e-08,0.92532,2
109.717,  12.78000,      0.17269, 90.85509,50.00000,50.00000,1.742286e-08,0.92543,2
109.736,  13.40000,-4.749969e-02, 90.42824,50.00000,50.00000,1.740552e-08,0.92551,2
109.525,  14.02000,     -0.22229, 90.06944,50.00000,50.00000,1.739565e-08,0.92561,2
109.133,  14.64000,     -0.35877, 89.70532,50.00000,50.00000,1.742123e-08,0.92570,2
108.585,  15.26000,     -0.46463, 89.38843,50.00000,50.00000,1.741187e-08,0.92577,2
107.928,  15.88000,     -0.54237, 89.10301,50.00000,50.00000,1.739383e-08,0.92586,2
107.226,  16.50000,     -0.59183, 88.84120,50.00000,50.00000,1.736098e-08,0.92594,2
106.305,  17.28000,     -0.60952, 88.57917,50.00000,50.00000,1.738726e-08,0.92601,3
106.539,  18.52000,      0.11469, 89.26273,50.00000,50.00000,1.739670e-08,0.92612,3
109.053,  19.76000,      0.80597, 89.90440,50.00000,50.00000,1.735794e-08,0.92618,3
113.001,  21.00000,      1.34628, 90.48056,50.00000,50.00000,1.738163e-08,0.92620,3
118.434,  22.24000,      1.88579, 91.13009,50.00000,50.00000,1.731485e-08,0.92616,3
124.826,  23.48000,      2.27410, 91.54630,50.00000,50.00000,1.735608e-08,0.92606,3
131.841,  24.72000,      2.55715, 91.89468,50.00000,50.00000,1.735894e-08,0.92591,3
139.126,  25.96000,      2.74091, 92.11991,50.00000,50.00000,1.731666e-08,0.92565,3
146.475,  27.20000,      2.85050, 92.24560,50.00000,50.00000,1.732862e-08,0.92535,3
153.702,  28.44000,      2.90721, 92.33727,50.00000,50.00000,1.732760e-08,0.92499,3
160.758,  29.68000,      2.93471, 92.43935,50.00000,50.00000,1.731322e-08,0.92452,3
167.605,  30.92000,      2.95090, 92.50231,50.00000,50.00000,1.728733e-08,0.92427,3
174.246,  32.16000,      2.96827, 92.58079,50.00000,50.00000,1.733131e-08,0.92400,3
180.739,  33.40000,      2.99248, 92.63588,50.00000,50.00000,1.732780e-08,0.92370,3
187.118,  34.64000,      3.03007, 92.74838,50.00000,50.00000,1.731370e-08,0.92342,3
193.442,  35.88000,      3.07890, 92.78773,50.00000,50.00000,1.728608e-08,0.92315,3
199.7,  37.12000,      3.13789, 92.85046,50.00000,50.00000,1.733295e-08,0.92284,3
205.89,  38.36000,      3.19942, 92.94491,50.00000,50.00000,1.729315e-08,0.92259,3
212.081,  39.60000,      3.27476, 93.03125,50.00000,50.00000,1.730107e-08,0.92234,3
218.273,  40.84000,      3.35200, 93.09676,50.00000,50.00000,1.729159e-08,0.92207,3
224.432,  42.08000,      3.42984, 93.19097,50.00000,50.00000,1.729296e-08,0.92184,3
230.59,  43.32000,      3.50629, 93.26181,50.00000,50.00000,1.729572e-08,0.92163,3
236.756,  44.56000,      3.58493, 93.31412,50.00000,50.00000,1.724881e-08,0.92140,3
242.924,  45.80000,      3.66242, 93.37685,50.00000,50.00000,1.727741e-08,0.92121,3
249.112,  47.04000,      3.73837, 93.40833,50.00000,50.00000,1.725912e-08,0.92103,3
255.274,  48.28000,      3.81472, 93.46343,50.00000,50.00000,1.727287e-08,0.92083,3
261.449,  49.52000,      3.88904, 93.48704,50.00000,50.00000,1.726698e-08,0.92066,3
267.634,  50.76000,      3.95999, 93.48704,50.00000,50.00000,1.725626e-08,0.92049,3
273.814,  52.00000,      4.03699, 93.46343,50.00000,50.00000,1.726317e-08,0.92031,3
280.001,  53.24000,      4.09347, 93.43194,50.00000,50.00000,1.728168e-08,0.92014,3
286.167,  54.48000,      4.15536, 93.40833,50.00000,50.00000,1.726831e-08,0.91999,3
292.353,  55.72000,      4.21003, 93.37685,50.00000,50.00000,1.725072e-08,0.91984,3
298.52,  56.96000,      4.26251, 93.31412,50.00000,50.00000,1.720553e-08,0.91968,3
303.401,  60.06000,      1.38216, 94.19931,50.00000,29.00000,1.724214e-08,0.91934,4
302.67,  63.16000,      0.74539, 93.54722,50.00000,29.00000,1.724996e-08,0.91905,4
301.479,  66.26000,      0.76209, 93.12292,50.00000,29.00000,1.724251e-08,0.91881,4
300.748,  69.36000,      0.85664, 92.77199,50.00000,29.00000,1.727089e-08,0.91863,4
300.353,  72.46000,      0.92177, 92.45255,50.00000,29.00000,1.722524e-08,0.91850,4
300.163,  75.56000,      0.95590, 92.17755,50.00000,29.00000,1.723072e-08,0.91841,4
300.059,  78.66000,      0.97665, 91.92361,50.00000,28.00000,1.716427e-08,0.91836,4
300.041,  81.76000,      0.97954, 91.72176,50.00000,28.00000,1.719404e-08,0.91835,4
300.019,  84.86000,      0.98625, 91.53079,50.00000,28.00000,1.722682e-08,0.91837,4
300.028,  87.96000,      0.99231, 91.35000,50.00000,28.00000,1.717365e-08,0.91840,4
300.009,  91.06000,      0.98668, 91.20069,50.00000,28.00000,1.716392e-08,0.91845,4
299.999,  94.16000,      0.98690, 91.04630,50.00000,28.00000,1.718197e-08,0.91853,4
300.015,  97.26000,      0.98983, 90.96227,50.00000,28.00000,1.713497e-08,0.91862,4
300.007, 100.36,      0.98870, 90.86806,50.00000,28.00000,1.715435e-08,0.91872,4
300.013, 103.46,      0.98781, 90.75810,50.00000,28.00000,1.715596e-08,0.91883,4
300.003, 106.56,      0.98286, 90.65856,50.00000,28.00000,1.711933e-08,0.91895,4
300.005, 109.66,      0.98556, 90.59583,50.00000,28.00000,1.714231e-08,0.91907,4
299.996, 112.76,      0.98981, 90.50926,50.00000,28.00000,1.716619e-08,0.91920,4
300.02, 115.86,      0.99410, 90.43079,50.00000,28.00000,1.712447e-08,0.91938,4
300.015, 118.96,      0.99006, 90.38889,50.00000,28.00000,1.711758e-08,0.91942,4
300.019, 122.06,      0.99141, 90.31296,50.00000,28.00000,1.715448e-08,0.91915,4
300.013, 125.16,      0.99095, 90.31296,50.00000,28.00000,1.712683e-08,0.91871,4
300.024, 128.26,      0.99321, 90.27616,50.00000,27.00000,1.714010e-08,0.91812,4
300.021, 131.36,      0.99231, 90.23704,50.00000,27.00000,1.711205e-08,0.91730,4
300.007, 134.46,      0.99139, 90.18981,50.00000,27.00000,1.710847e-08,0.91631,4
300.012, 137.56,      0.99185, 90.15046,50.00000,27.00000,1.710825e-08,0.91512,4
300.011, 140.66,      0.98781, 90.10347,50.00000,27.00000,1.708048e-08,0.91369,4
300.017, 143.76,      0.99701, 90.07731,50.00000,27.00000,1.710671e-08,0.91217,4
300.013, 146.86,      0.99252, 90.03542,50.00000,27.00000,1.709444e-08,0.91050,4
300.007, 149.96,      0.99274, 90.01181,50.00000,27.00000,1.709781e-08,0.90860,4
300.003, 153.06,      0.99161, 89.98819,50.00000,27.00000,1.707619e-08,0.90668,4
300.002, 156.16,      0.99161, 89.94097,50.00000,27.00000,1.708196e-08,0.90467,4
300.015, 159.26,      0.99499, 89.91736,50.00000,27.00000,1.707921e-08,0.90260,4
300.006, 162.36,      0.99296, 89.94884,50.00000,27.00000,1.707195e-08,0.90034,4
300.023, 165.46,      0.99343, 89.88079,50.00000,27.00000,1.706019e-08,0.89815,4
299.998, 168.56,      0.99004, 89.89653,50.00000,27.00000,1.706241e-08,0.89591,4
300, 171.66,      0.99138, 89.85718,50.00000,27.00000,1.704388e-08,0.89353,4
300.033, 174.76,      0.99097, 89.82315,50.00000,27.00000,1.706063e-08,0.89126,4
300.013, 177.86,      0.99454, 89.81528,50.00000,27.00000,1.707100e-08,0.88894,4
300.02, 180.96,      0.99231, 89.76829,50.00000,27.00000,1.707240e-08,0.88646,4
300.021, 184.06,      0.98894, 89.74722,50.00000,27.00000,1.704239e-08,0.88409,4
300.017, 187.16,      0.99410, 89.75509,50.00000,27.00000,1.704535e-08,0.88169,4
300.03, 190.26,      0.98940, 89.70787,50.00000,27.00000,1.704810e-08,0.87911,4
300.012, 193.36,      0.99050, 89.69236,50.00000,27.00000,1.701135e-08,0.87664,4
300.006, 196.46,      0.98780, 89.65301,50.00000,27.00000,1.703304e-08,0.87414,4
300.014, 199.56,      0.99185, 89.63472,50.00000,27.00000,1.698384e-08,0.87158,4
300.009, 202.66,      0.99117, 89.62685,50.00000,27.00000,1.697069e-08,0.86886,4
300.014, 205.76,      0.98781, 89.61111,50.00000,27.00000,1.697823e-08,0.86625,4
300.004, 208.86,      0.99004, 89.56389,50.00000,28.00000,1.694788e-08,0.86344,4
300.015, 211.96,      0.99118, 89.54306,50.00000,28.00000,1.697921e-08,0.86075,4
300.012, 215.06,      0.99207, 89.52454,50.00000,28.00000,1.693065e-08,0.85801,4
300.018, 218.16,      0.99118, 89.51690,50.00000,28.00000,1.695154e-08,0.85507,4
300.026, 221.26,      0.98760, 89.47755,50.00000,28.00000,1.696754e-08,0.85227,4
300.018, 224.36,      0.99230, 89.49329,50.00000,28.00000,1.689944e-08,0.84943,4
300.004, 227.46,      0.98892, 89.45139,50.00000,28.00000,1.693702e-08,0.84639,4
300.022, 230.56,      0.99478, 89.42778,50.00000,28.00000,1.691647e-08,0.84346,4
300.03, 233.66,      0.99321, 89.43565,50.00000,28.00000,1.689047e-08,0.84051,4
300.023, 236.76,      0.99141, 89.26528,50.00000,28.00000,1.692091e-08,0.83736,4
300.001, 239.86,      0.98892, 89.36227,50.00000,28.00000,1.696326e-08,0.83436,4
299.986, 242.96,      0.99204, 89.37014,50.00000,28.00000,1.695147e-08,0.83131,4
300.001, 246.06,      0.99206, 89.39884,50.00000,27.00000,1.700554e-08,0.82807,4
300.015, 249.16,      0.99275, 89.39097,50.00000,27.00000,1.697265e-08,0.82495,4
300.003, 252.26,      0.99004, 89.43032,50.00000,27.00000,1.700817e-08,0.82182,4
300.01, 255.36,      0.98579, 89.43032,50.00000,27.00000,1.700752e-08,0.81849,4
300.011, 258.46,      0.98399, 89.43032,50.00000,27.00000,1.702621e-08,0.81531,4
300.025, 261.56,      0.98648, 89.42245,50.00000,27.00000,1.705223e-08,0.81192,4
300.008, 264.66,      0.98691, 89.38843,50.00000,27.00000,1.703499e-08,0.80869,4
300.021, 267.76,      0.98737, 89.40162,50.00000,27.00000,1.705761e-08,0.80544,4
300.018, 270.86,      0.98602, 89.40162,50.00000,27.00000,1.700871e-08,0.80199,4
300.011, 273.96,      0.98758, 89.35440,50.00000,27.00000,1.701667e-08,0.79871,4
300.013, 277.06,      0.98646, 89.37014,50.00000,27.00000,1.704920e-08,0.79541,4
300.019, 280.16,      0.98490, 89.38333,50.00000,27.00000,1.698976e-08,0.79192,4
300.016, 283.26,      0.98804, 89.33611,50.00000,27.00000,1.701868e-08,0.78858,4
300.016, 286.36,      0.98804, 89.31250,50.00000,27.00000,1.700196e-08,0.78476,4
300.025, 289.46,      0.98738, 89.32037,50.00000,26.00000,1.699151e-08,0.78400,4
300.019, 292.56,      0.98916, 89.29676,50.00000,26.00000,1.702888e-08,0.78446,4
300.015, 295.66,      0.98871, 89.28102,50.00000,26.00000,1.710358e-08,0.78518,4
300.006, 298.76,      0.98578, 89.32037,50.00000,26.00000,1.704350e-08,0.78580,4
300.017, 301.86,      0.98804, 89.28889,50.00000,26.00000,1.705077e-08,0.78626,4
300.018, 304.96,      0.99006, 89.30995,50.00000,26.00000,1.704564e-08,0.78658,4
300.01, 308.06,      0.98758, 89.27847,50.00000,26.00000,1.702195e-08,0.78680,4
300.014, 311.16,      0.98624, 89.29931,50.00000,26.00000,1.705715e-08,0.78695,4
300.009, 314.26,      0.98713, 89.29167,50.00000,26.00000,1.705708e-08,0.78705,4
300.022, 317.36,      0.98535, 89.26528,50.00000,26.00000,1.707587e-08,0.78711,4
300.012, 320.46,      0.98669, 89.31505,50.00000,26.00000,1.702338e-08,0.78715,4
300.031, 323.56,      0.99030, 89.28102,50.00000,26.00000,1.698158e-08,0.78717,4
300.029, 326.66,      0.98895, 89.23403,50.00000,26.00000,1.701592e-08,0.78719,4
300.03, 329.76,      0.98873, 89.21042,50.00000,26.00000,1.700655e-08,0.78720,4
300.01, 332.86,      0.98848, 89.15532,50.00000,26.00000,1.698485e-08,0.78720,4
300.022, 335.96,      0.98760, 89.11343,50.00000,26.00000,1.702296e-08,0.78719,4
300.01, 339.06,      0.98960, 89.14236,50.00000,26.00000,1.704252e-08,0.78718,4
300.001, 342.16,      0.98623, 89.15810,50.00000,25.00000,1.704260e-08,0.78720,4
299.998, 345.26,      0.98847, 89.15810,50.00000,25.00000,1.706378e-08,0.78720,4
300.021, 348.36,      0.98917, 89.12662,50.00000,25.00000,1.705263e-08,0.78721,4
300.012, 351.46,      0.98826, 89.15810,50.00000,25.00000,1.705759e-08,0.78720,4
300.015, 354.56,      0.98624, 89.11875,50.00000,25.00000,1.705315e-08,0.78720,4
300.009, 357.66,      0.98579, 89.15023,50.00000,25.00000,1.707087e-08,0.78719,4
300.007, 360.76,      0.98444, 89.11875,50.00000,25.00000,1.704769e-08,0.78720,4
300.007, 363.86,      0.98915, 89.09514,50.00000,25.00000,1.704593e-08,0.78720,4
300.008, 366.96,      0.98646, 89.06366,50.00000,24.00000,1.706739e-08,0.78720,4
300.011, 370.06,      0.98377, 89.09514,50.00000,24.00000,1.705849e-08,0.78720,4
300.019, 373.16,      0.98737, 89.06111,50.00000,24.00000,1.703067e-08,0.78720,4
300.004, 376.26,      0.98152, 89.02708,50.00000,24.00000,1.706031e-08,0.78720,4
300.019, 379.36,      0.98490, 88.99560,50.00000,24.00000,1.701927e-08,0.78719,4
300.011, 382.46,      0.98489, 89.01921,50.00000,24.00000,1.703445e-08,0.78719,4
300.008, 385.56,      0.98960, 88.99815,50.00000,24.00000,1.704310e-08,0.78719,4
300.013, 388.66,      0.99095, 88.97986,50.00000,24.00000,1.702288e-08,0.78719,4
300.016, 391.76,      0.99252, 88.97477,50.00000,24.00000,1.700536e-08,0.78719,4
300.018, 394.86,      0.98782, 88.95370,50.00000,24.00000,1.701525e-08,0.78720,4
300.022, 397.96,      0.98849, 88.95370,50.00000,24.00000,1.700234e-08,0.78719,4
300.024, 401.06,      0.98984, 88.93796,50.00000,24.00000,1.702687e-08,0.78720,4
300.007, 404.16,      0.98825, 88.90139,50.00000,24.00000,1.705203e-08,0.78720,4
300.017, 407.26,      0.98894, 88.95903,50.00000,24.00000,1.703210e-08,0.78719,4
300.025, 410.36,      0.98984, 88.86991,50.00000,24.00000,1.699875e-08,0.78719,4
300.03, 413.46,      0.98873, 88.80718,50.00000,24.00000,1.698327e-08,0.78719,4
300.019, 416.56,      0.98759, 88.70764,50.00000,24.00000,1.697494e-08,0.78719,4
299.999, 419.66,      0.98914, 88.73889,50.00000,24.00000,1.703341e-08,0.78720,4
299.998, 422.76,      0.99318, 88.79931,50.00000,24.00000,1.701271e-08,0.78719,4
300.009, 425.86,      0.99498, 88.74421,50.00000,24.00000,1.700300e-08,0.78718,4
300.017, 428.96,      0.98737, 88.75995,50.00000,24.00000,1.697569e-08,0.78719,4
300.038, 432.06,      0.99031, 88.71273,50.00000,24.00000,1.698536e-08,0.78717,4
300.019, 435.16,      0.99275, 88.68657,50.00000,24.00000,1.696143e-08,0.78719,4
300.019, 438.26,      0.99230, 88.63171,50.00000,24.00000,1.696708e-08,0.78719,4
300.016, 441.36,      0.99387, 88.65509,50.00000,24.00000,1.694911e-08,0.78719,4
300.018, 444.46,      0.99432, 88.62894,50.00000,24.00000,1.693865e-08,0.78719,4
300.013, 447.56,      0.99319, 88.64468,50.00000,24.00000,1.695425e-08,0.78718,4
300.022, 450.66,      0.99276, 88.62106,50.00000,24.00000,1.695654e-08,0.78719,4
300.019, 453.76,      0.99298, 88.59491,50.00000,24.00000,1.696643e-08,0.78719,4
300.019, 456.86,      0.99679, 88.63426,50.00000,24.00000,1.693557e-08,0.78720,4
300.033, 459.96,      0.99434, 88.61065,50.00000,24.00000,1.693932e-08,0.78720,4
300.024, 463.06,      0.99321, 88.58704,50.00000,24.00000,1.695652e-08,0.78719,4
300.02, 466.16,      0.99275, 88.59491,50.00000,24.00000,1.697153e-08,0.78719,4
300.027, 469.26,      0.99792, 88.56343,50.00000,25.00000,1.697751e-08,0.78719,4
300.017, 472.36,      0.99365, 88.49537,50.00000,24.00000,1.699045e-08,0.78720,4
300.008, 475.46,      0.99498, 88.55833,50.00000,24.00000,1.700965e-08,0.78720,4
300.002, 478.56,      0.99094, 88.53472,50.00000,24.00000,1.704837e-08,0.78720,4
300.004, 481.66,      0.99565, 88.60023,50.00000,24.00000,1.703205e-08,0.78719,4
300.022, 484.76,      0.99679, 88.57662,50.00000,24.00000,1.699535e-08,0.78719,4
300.007, 487.86,      0.99162, 88.55301,50.00000,24.00000,1.703872e-08,0.78720,4
300.018, 490.96,      0.99701, 88.58449,50.00000,24.00000,1.703406e-08,0.78718,4
300.015, 494.06,      0.99477, 88.53727,50.00000,24.00000,1.702442e-08,0.78718,4
300.024, 497.16,      0.99545, 88.53727,50.00000,24.00000,1.702530e-08,0.78720,4
300.012, 500.26,      0.98938, 88.51366,50.00000,24.00000,1.702987e-08,0.78719,4
300.014, 503.36,      0.99364, 88.51366,50.00000,24.00000,1.704754e-08,0.78719,4
300.03, 506.46,      0.99232, 88.51898,50.00000,24.00000,1.701326e-08,0.78718,4
300.013, 509.56,      0.99140, 88.48750,50.00000,24.00000,1.702026e-08,0.78718,4
300.013, 512.66,      0.99678, 88.52431,50.00000,24.00000,1.701089e-08,0.78718,4
300.021, 515.76,      0.99096, 88.49282,50.00000,24.00000,1.704403e-08,0.78719,4
300.025, 518.86,      0.99411, 88.46134,50.00000,24.00000,1.701518e-08,0.78719,4
300.03, 521.96,      0.98985, 88.48495,50.00000,24.00000,1.697459e-08,0.78720,4
300.008, 525.06,      0.99566, 88.48495,50.00000,24.00000,1.702164e-08,0.78720,4
300.026, 528.16,      0.99299, 88.46134,50.00000,24.00000,1.698094e-08,0.78719,4
300.036, 531.26,      0.99793, 88.44306,50.00000,24.00000,1.693483e-08,0.78718,4
300.015, 534.36,      0.99320, 88.47454,50.00000,24.00000,1.693999e-08,0.78718,4
300.013, 537.46,      0.99387, 88.43519,50.00000,24.00000,1.694700e-08,0.78719,4
300.008, 540.56,      0.99341, 88.45093,50.00000,23.00000,1.694480e-08,0.78719,4
300.024, 543.66,      0.99455, 88.41944,50.00000,23.00000,1.697165e-08,0.78720,4
300.014, 546.76,      0.99118, 88.41157,50.00000,23.00000,1.693943e-08,0.78719,4
300.01, 549.86,      0.99162, 88.41157,50.00000,23.00000,1.694184e-08,0.78720,4
300.019, 552.96,      0.99410, 88.38009,50.00000,23.00000,1.699058e-08,0.78719,4
300.013, 556.06,      0.99364, 88.38796,50.00000,23.00000,1.695444e-08,0.78719,4
300.007, 559.16,      0.99207, 88.39583,50.00000,23.00000,1.698962e-08,0.78720,4
300.007, 562.26,      0.99274, 88.38009,50.00000,23.00000,1.694623e-08,0.78718,4
300.013, 565.36,      0.99476, 88.32523,50.00000,23.00000,1.696666e-08,0.78719,4
300.011, 568.46,      0.99207, 88.35671,50.00000,24.00000,1.693774e-08,0.78719,4
300.016, 571.56,      0.99499, 88.34352,50.00000,23.00000,1.694901e-08,0.78720,4
300.025, 574.66,      0.99321, 88.35926,50.00000,23.00000,1.698666e-08,0.78720,4
300.017, 577.76,      0.99499, 88.32778,50.00000,23.00000,1.690783e-08,0.78717,4
300.028, 580.86,      0.99546, 88.29375,50.00000,23.00000,1.692166e-08,0.78719,4
300.02, 583.96,      0.99365, 88.29375,50.00000,23.00000,1.689911e-08,0.78719,4
300.031, 587.06,      0.99232, 88.30162,50.00000,23.00000,1.688844e-08,0.78719,4
300.029, 590.16,      0.99254, 88.30417,50.00000,23.00000,1.687478e-08,0.78719,4
300.023, 593.26,      0.99388, 88.30162,50.00000,23.00000,1.684609e-08,0.78721,4
300.025, 596.36,      0.99500, 88.30162,50.00000,23.00000,1.681859e-08,0.78721,4
300.025, 599.46,      0.99590, 88.25440,50.00000,23.00000,1.677471e-08,0.78720,4
300.017, 602.56,      0.99589, 88.28866,50.00000,23.00000,1.678068e-08,0.78720,4
300.013, 605.66,      0.99454, 88.28079,50.00000,23.00000,1.678448e-08,0.78719,4
300.029, 608.76,      0.99411, 88.28333,50.00000,23.00000,1.675715e-08,0.78720,4
300.029, 611.86,      0.99209, 88.25972,50.00000,23.00000,1.673973e-08,0.78721,4
300.02, 614.96,      0.99679, 88.24676,50.00000,23.00000,1.676412e-08,0.78720,4
300.018, 618.06,      0.99746, 88.26227,50.00000,23.00000,1.678188e-08,0.78719,4
300.02, 621.16,      0.99432, 88.24676,50.00000,23.00000,1.677987e-08,0.78719,4
300.022, 624.26,      0.99567, 88.25440,50.00000,23.00000,1.676712e-08,0.78720,4
300.009, 627.36,      0.99588, 88.23889,50.00000,23.00000,1.675928e-08,0.78719,4
300.021, 630.46,      0.99545, 88.27014,50.00000,23.00000,1.677343e-08,0.78719,4
300.02, 633.56,      0.99298, 88.24931,50.00000,23.00000,1.672790e-08,0.78720,4
300.022, 636.66,      0.99747, 88.20995,50.00000,23.00000,1.677393e-08,0.78720,4
300.015, 639.76,      0.99409, 88.23889,50.00000,23.00000,1.673975e-08,0.78719,4
300.018, 642.86,      0.99477, 88.23611,50.00000,23.00000,1.673301e-08,0.78719,4
300.012, 645.96,      0.99431, 88.22824,50.00000,23.00000,1.674476e-08,0.78719,4
300.017, 649.06,      0.99297, 88.23356,50.00000,23.00000,1.678780e-08,0.78720,4
300.009, 652.16,      0.99700, 88.20208,50.00000,23.00000,1.673080e-08,0.78719,4
300.02, 655.26,      0.99208, 88.22569,50.00000,23.00000,1.675424e-08,0.78719,4
300.009, 658.36,      0.98915, 88.19167,50.00000,23.00000,1.672033e-08,0.78718,4
300.018, 661.46,      0.99073, 88.17593,50.00000,23.00000,1.672445e-08,0.78719,4
300.01, 664.56,      0.99229, 88.18380,50.00000,23.00000,1.670798e-08,0.78720,4
300.005, 667.66,      0.99319, 88.19167,50.00000,23.00000,1.671274e-08,0.78720,4
300.018, 670.76,      0.99657, 88.20741,50.00000,23.00000,1.674483e-08,0.78719,4
300.004, 673.86,      0.99386, 88.17593,50.00000,23.00000,1.671713e-08,0.78719,4
300.022, 676.96,      0.99478, 88.17060,50.00000,23.00000,1.674342e-08,0.78718,4
300.009, 680.06,      0.99252, 88.19954,50.00000,23.00000,1.675999e-08,0.78720,4
300.016, 683.16,      0.99342, 88.16019,50.00000,23.00000,1.678753e-08,0.78719,4
300.022, 686.26,      0.99522, 88.14444,50.00000,23.00000,1.669264e-08,0.78720,4
300.017, 689.36,      0.99096, 88.12870,50.00000,23.00000,1.678448e-08,0.78719,4
300.022, 692.46,      0.99500, 88.13148,50.00000,23.00000,1.679114e-08,0.78721,4
300.02, 695.56,      0.99567, 88.16551,50.00000,23.00000,1.675026e-08,0.78719,4
300.002, 698.66,      0.99273, 88.12616,50.00000,23.00000,1.670965e-08,0.78720,4
300.018, 701.76,      0.99612, 88.13403,50.00000,23.00000,1.675049e-08,0.78719,4
300.015, 704.86,      0.99409, 88.14190,50.00000,23.00000,1.676717e-08,0.78720,4
300.007, 707.96,      0.99184, 88.13403,50.00000,23.00000,1.674444e-08,0.78720,4
300.023, 711.06,      0.99388, 88.11829,50.00000,23.00000,1.673617e-08,0.78719,4
300.02, 714.16,      0.98961, 88.14977,50.00000,23.00000,1.673743e-08,0.78719,4
300.01, 717.26,      0.99207, 88.14190,50.00000,23.00000,1.673572e-08,0.78720,4
300.008, 720.36,      0.99386, 88.11574,50.00000,23.00000,1.675439e-08,0.78719,4
300.007, 723.46,      0.99498, 88.12083,50.00000,23.00000,1.675346e-08,0.78719,4
300.02, 726.56,      0.99141, 88.08958,50.00000,23.00000,1.671305e-08,0.78720,4
300.011, 729.66,      0.99319, 88.05278,50.00000,23.00000,1.674689e-08,0.78721,4
300.014, 732.76,      0.99252, 88.09213,50.00000,23.00000,1.676200e-08,0.78718,4
300.011, 735.86,      0.99409, 88.07639,50.00000,23.00000,1.677507e-08,0.78717,4
300.015, 738.96,      0.99566, 88.06852,50.00000,23.00000,1.673929e-08,0.78717,4
300.015, 742.06,      0.99387, 88.05278,50.00000,23.00000,1.674242e-08,0.78717,4
300.011, 745.16,      0.99072, 88.02153,50.00000,24.00000,1.674651e-08,0.78718,4
300.007, 748.26,      0.99543, 88.02153,50.00000,24.00000,1.674425e-08,0.78718,4
300.009, 751.36,      0.98915, 87.89306,50.00000,25.00000,1.677848e-08,0.78719,4
300.004, 754.46,      0.98802, 87.90093,50.00000,25.00000,1.675047e-08,0.78720,4
300.012, 757.56,      0.99162, 87.85903,50.00000,25.00000,1.675573e-08,0.78721,4
300.005, 760.66,      0.99498, 87.79630,50.00000,26.00000,1.674008e-08,0.78720,4
300.025, 763.76,      0.99792, 87.82755,50.00000,26.00000,1.673039e-08,0.78720,4
300.026, 766.86,      0.99725, 87.78843,50.00000,26.00000,1.674993e-08,0.78722,4
300.01, 769.96,      0.99364, 87.77269,50.00000,26.00000,1.673404e-08,0.78720,4
300.011, 773.06,      0.99745, 87.77269,50.00000,27.00000,1.673230e-08,0.78721,4
300.015, 776.16,      0.99544, 87.76481,50.00000,27.00000,1.675563e-08,0.78719,4
300.014, 779.26,      0.99342, 87.73333,50.00000,27.00000,1.673010e-08,0.78719,4
300.01, 782.36,      0.99342, 87.74120,50.00000,27.00000,1.677340e-08,0.78718,4
300.022, 785.46,      0.99545, 87.74120,50.00000,27.00000,1.672623e-08,0.78718,4
300.032, 788.56,      0.99681, 87.72546,50.00000,27.00000,1.673889e-08,0.78719,4
300.014, 791.66,      0.98983, 87.74120,50.00000,27.00000,1.673567e-08,0.78720,4
300.022, 794.76,      0.99478, 87.74375,50.00000,27.00000,1.673343e-08,0.78719,4
300.017, 797.86,      0.99253, 87.72037,50.00000,28.00000,1.672641e-08,0.78720,4
300.019, 800.96,      0.99320, 87.72037,50.00000,28.00000,1.671882e-08,0.78719,4
300.022, 804.06,      0.99365, 87.69676,50.00000,28.00000,1.676119e-08,0.78718,4
300.015, 807.16,      0.99477, 87.72801,50.00000,28.00000,1.671326e-08,0.78720,4
300.022, 810.26,      0.99769, 87.71250,50.00000,28.00000,1.673894e-08,0.78719,4
300.017, 813.36,      0.99522, 87.70463,50.00000,28.00000,1.671805e-08,0.78719,4
300.03, 816.46,      0.99658, 87.72801,50.00000,28.00000,1.678459e-08,0.78720,4
300.022, 819.56,      0.99410, 87.70463,50.00000,28.00000,1.673726e-08,0.78719,4
300.017, 822.66,      0.99253, 87.73588,50.00000,28.00000,1.672897e-08,0.78720,4
300.018, 825.76,      0.99320, 87.70463,50.00000,28.00000,1.673223e-08,0.78719,4
300.014, 828.86,      0.99521, 87.72801,50.00000,28.00000,1.674142e-08,0.78719,4
300.021, 831.96,      0.99343, 87.70463,50.00000,28.00000,1.673355e-08,0.78720,4
300.016, 835.06,      0.99297, 87.72037,50.00000,28.00000,1.674371e-08,0.78720,4
300.015, 838.16,      0.99522, 87.73588,50.00000,28.00000,1.672973e-08,0.78720,4
300.036, 841.26,      0.99345, 87.72037,50.00000,28.00000,1.671824e-08,0.78720,4
300.029, 844.36,      0.99254, 87.72037,50.00000,28.00000,1.675398e-08,0.78719,4
300.016, 847.46,      0.99365, 87.72037,50.00000,28.00000,1.675988e-08,0.78719,4
300.025, 850.56,      0.99254, 87.73079,50.00000,28.00000,1.671627e-08,0.78719,4
300.014, 853.66,      0.99297, 87.69931,50.00000,28.00000,1.670780e-08,0.78719,4
300.029, 856.76,      0.99254, 87.70718,50.00000,28.00000,1.674065e-08,0.78719,4
300.003, 859.86,      0.99789, 87.72292,50.00000,28.00000,1.675611e-08,0.78720,4
300.037, 862.96,      0.99210, 87.72292,50.00000,28.00000,1.670763e-08,0.78719,4
300.022, 866.06,      0.99276, 87.73079,50.00000,28.00000,1.672622e-08,0.78718,4
300.03, 869.16,      0.99389, 87.74653,50.00000,28.00000,1.674806e-08,0.78719,4
300.022, 872.26,      0.99119, 87.77269,50.00000,28.00000,1.675313e-08,0.78720,4
300.029, 875.36,      0.99703, 87.77778,50.00000,27.00000,1.671227e-08,0.78719,4
300.015, 878.46,      0.99724, 87.79884,50.00000,27.00000,1.671903e-08,0.78716,4
300.027, 881.56,      0.99366, 87.85394,50.00000,27.00000,1.674780e-08,0.78718,4
300.012, 884.66,      0.99790, 87.86157,50.00000,27.00000,1.672054e-08,0.78718,4
300.025, 887.76,      0.99276, 87.86157,50.00000,26.00000,1.672627e-08,0.78719,4
300.013, 890.86,      0.99454, 87.87222,50.00000,26.00000,1.672112e-08,0.78719,4
300.013, 893.96,      0.99342, 87.86690,50.00000,26.00000,1.672779e-08,0.78720,4
300.015, 897.06,      0.99252, 87.85903,50.00000,26.00000,1.670163e-08,0.78721,4
300.003, 900.16,      0.99386, 87.89051,50.00000,26.00000,1.673685e-08,0.78721,4
300.026, 903.26,      0.99321, 87.87477,50.00000,26.00000,1.673677e-08,0.78720,4
300.017, 906.36,      0.99410, 87.86157,50.00000,25.00000,1.668275e-08,0.78719,4
300.025, 909.46,      0.99097, 87.87731,50.00000,25.00000,1.670326e-08,0.78717,4
300.009, 912.56,      0.99364, 87.86157,50.00000,25.00000,1.674053e-08,0.78719,4
300.016, 915.66,      0.99499, 87.85394,50.00000,25.00000,1.671045e-08,0.78719,4
300.025, 918.76,      0.99276, 87.89306,50.00000,25.00000,1.671304e-08,0.78718,4
300.013, 921.86,      0.99432, 87.86157,50.00000,25.00000,1.671195e-08,0.78719,4
300.018, 924.96,      0.99746, 87.82245,50.00000,25.00000,1.674197e-08,0.78718,4
300.017, 928.06,      0.99320, 87.87222,50.00000,25.00000,1.671788e-08,0.78721,4
300.01, 931.16,      0.99207, 87.84861,50.00000,25.00000,1.670217e-08,0.78719,4
300.016, 934.26,      0.99365, 87.86435,50.00000,25.00000,1.671711e-08,0.78719,4
300.017, 937.36,      0.99589, 87.84861,50.00000,25.00000,1.670601e-08,0.78719,4
300.016, 940.46,      0.99410, 87.85648,50.00000,25.00000,1.672165e-08,0.78719,4
300.017, 943.56,      0.99163, 87.84861,50.00000,24.00000,1.671753e-08,0.78719,4
300.024, 946.66,      0.99276, 87.83032,50.00000,24.00000,1.667197e-08,0.78719,4
299.998, 949.76,      0.99430, 87.82245,50.00000,24.00000,1.666608e-08,0.78720,4
300.014, 952.86,      0.99409, 87.82245,50.00000,24.00000,1.666848e-08,0.78719,4
300.005, 955.96,      0.99408, 87.82245,50.00000,24.00000,1.670559e-08,0.78719,4
300.014, 959.06,      0.99521, 87.82245,50.00000,24.00000,1.666546e-08,0.78719,4
300.009, 962.16,      0.99050, 87.83819,50.00000,24.00000,1.667789e-08,0.78719,4
300.018, 965.26,      0.99612, 87.81458,50.00000,24.00000,1.664652e-08,0.78719,4
300.024, 968.36,      0.99388, 87.79097,50.00000,24.00000,1.667678e-08,0.78718,4
300.015, 971.46,      0.99499, 87.82245,50.00000,24.00000,1.668250e-08,0.78718,4
300.015, 974.56,      0.99544, 87.79097,50.00000,24.00000,1.668661e-08,0.78719,4
300.022, 977.66,      0.99567, 87.80671,50.00000,24.00000,1.665848e-08,0.78719,4
300.019, 980.76,      0.99387, 87.78310,50.00000,24.00000,1.666568e-08,0.78720,4
300.015, 983.86,      1.00105, 87.78310,50.00000,24.00000,1.666205e-08,0.78718,4
300.012, 986.96,      0.99611, 87.75162,50.00000,24.00000,1.666739e-08,0.78721,4
300.029, 990.06,      1.00039, 87.74375,50.00000,24.00000,1.664451e-08,0.78720,4
300.02, 993.16,      0.99904, 87.74375,50.00000,24.00000,1.667021e-08,0.78720,4
300.017, 996.26,      0.99634, 87.73866,50.00000,24.00000,1.667880e-08,0.78720,4
300.02, 999.36,      0.99904, 87.74375,50.00000,24.00000,1.664382e-08,0.78721,4
300.018,1002.46,      0.99814, 87.74907,50.00000,24.00000,1.664432e-08,0.78720,4
300.014,1005.56,      0.99364, 87.74120,50.00000,24.00000,1.668194e-08,0.78720,4
300.01,1008.66,      0.99454, 87.70972,50.00000,24.00000,1.665315e-08,0.78720,4
300.018,1011.76,      0.99746, 87.71759,50.00000,24.00000,1.663342e-08,0.78721,4
300.017,1014.86,      0.99567, 87.72546,50.00000,24.00000,1.665859e-08,0.78720,4
300.014,1017.96,      0.99566, 87.71759,50.00000,24.00000,1.667238e-08,0.78719,4
300.017,1021.06,      0.99656, 87.67847,50.00000,24.00000,1.668466e-08,0.78719,4
300.017,1024.16,      0.99051, 87.69398,50.00000,24.00000,1.662515e-08,0.78720,4
300.007,1027.26,      0.99251, 87.64699,50.00000,24.00000,1.665573e-08,0.78719,4
300.022,1030.36,      0.99500, 87.68356,50.00000,24.00000,1.666548e-08,0.78718,4
300.03,1033.46,      0.99725, 87.66782,50.00000,24.00000,1.661084e-08,0.78720,4
300.007,1036.56,      0.99610, 87.67060,50.00000,24.00000,1.665235e-08,0.78719,4
300.016,1039.66,      0.99522, 87.64699,50.00000,24.00000,1.665451e-08,0.78719,4
300.018,1042.76,      0.99679, 87.65486,50.00000,24.00000,1.664345e-08,0.78718,4
300.024,1045.86,      0.99635, 87.64699,50.00000,24.00000,1.660126e-08,0.78718,4
300.02,1048.96,      0.99724, 87.61551,50.00000,24.00000,1.664323e-08,0.78719,4
300.016,1052.06,      0.99499, 87.63912,50.00000,24.00000,1.666189e-08,0.78719,4
300.016,1055.16,      0.99544, 87.60764,50.00000,24.00000,1.662454e-08,0.78719,4
300.013,1058.26,      0.99185, 87.61551,50.00000,24.00000,1.662235e-08,0.78719,4
300.002,1061.36,      0.99587, 87.62338,50.00000,24.00000,1.665092e-08,0.78718,4
300.012,1064.46,      0.99656, 87.60764,50.00000,24.00000,1.666214e-08,0.78719,4
300.014,1067.56,      0.99521, 87.61551,50.00000,24.00000,1.660888e-08,0.78718,4
300.01,1070.66,      0.99790, 87.59977,50.00000,24.00000,1.663717e-08,0.78719,4
300.016,1073.76,      0.99410, 87.61551,50.00000,24.00000,1.662175e-08,0.78720,4
300.018,1076.86,      0.99432, 87.57616,50.00000,24.00000,1.662678e-08,0.78718,4
300.018,1079.96,      0.99567, 87.57616,50.00000,24.00000,1.666797e-08,0.78719,4
300.018,1083.06,      0.99544, 87.58403,50.00000,24.00000,1.664128e-08,0.78718,4
300.018,1086.16,      0.99432, 87.57616,50.00000,23.00000,1.665178e-08,0.78718,4
300.01,1089.26,      0.99499, 87.56042,50.00000,23.00000,1.665906e-08,0.78720,4
300.017,1092.36,      0.99455, 87.57616,50.00000,24.00000,1.662813e-08,0.78719,4
300.015,1095.46,      0.99858, 87.53704,50.00000,24.00000,1.666140e-08,0.78719,4
300.019,1098.56,      0.99612, 87.56829,50.00000,24.00000,1.663189e-08,0.78720,4
300.024,1101.66,      0.99837, 87.54491,50.00000,24.00000,1.662626e-08,0.78720,4
300.028,1104.76,      0.99568, 87.54491,50.00000,23.00000,1.665806e-08,0.78719,4
300.019,1107.86,      0.99500, 87.55255,50.00000,23.00000,1.664951e-08,0.78719,4
300.005,1110.96,      0.99386, 87.51852,50.00000,23.00000,1.664286e-08,0.78720,4
300.017,1114.06,      0.99410, 87.50301,50.00000,23.00000,1.663319e-08,0.78719,4
300.012,1117.16,      0.99319, 87.54213,50.00000,23.00000,1.665520e-08,0.78719,4
300.02,1120.26,      0.99500, 87.52639,50.00000,23.00000,1.663044e-08,0.78718,4
300.012,1123.36,      0.99611, 87.51852,50.00000,23.00000,1.660416e-08,0.78719,4
300.029,1126.46,      0.99613, 87.51065,50.00000,23.00000,1.663345e-08,0.78718,4
300.014,1129.56,      0.99432, 87.51852,50.00000,23.00000,1.663104e-08,0.78720,4
300.027,1132.66,      0.99658, 87.49514,50.00000,23.00000,1.663245e-08,0.78720,4
300.022,1135.76,      0.99545, 87.50301,50.00000,23.00000,1.664434e-08,0.78719,4
300.016,1138.86,      0.99499, 87.49514,50.00000,23.00000,1.663511e-08,0.78718,4
300.03,1141.96,      0.99546, 87.47940,50.00000,23.00000,1.665613e-08,0.78719,4
300.017,1145.06,      0.99365, 87.49514,50.00000,23.00000,1.662612e-08,0.78719,4
300.017,1148.16,      0.99320, 87.46620,50.00000,23.00000,1.660702e-08,0.78720,4
300.009,1151.26,      0.99588, 87.47407,50.00000,23.00000,1.663091e-08,0.78718,4
300.009,1154.36,      0.99319, 87.45833,50.00000,23.00000,1.660301e-08,0.78718,4
300.016,1157.46,      0.99701, 87.43472,50.00000,23.00000,1.662857e-08,0.78718,4
300.002,1160.56,      0.99587, 87.44259,50.00000,23.00000,1.659804e-08,0.78719,4
300.011,1163.66,      0.99745, 87.45833,50.00000,23.00000,1.664502e-08,0.78719,4
300.022,1166.76,      0.99837, 87.45046,50.00000,23.00000,1.664142e-08,0.78719,4
300.014,1169.86,      0.99723, 87.45046,50.00000,23.00000,1.659017e-08,0.78719,4
300.021,1172.96,      0.99634, 87.43472,50.00000,23.00000,1.659652e-08,0.78720,4
300.016,1176.06,      0.99679, 87.45046,50.00000,23.00000,1.662012e-08,0.78719,4
300.018,1179.16,      0.99746, 87.42685,50.00000,23.00000,1.661453e-08,0.78718,4
300.007,1182.26,      0.99498, 87.43472,50.00000,23.00000,1.665073e-08,0.78718,4
300.013,1185.36,      0.99454, 87.41134,50.00000,23.00000,1.662507e-08,0.78719,4
300.009,1188.46,      0.99431, 87.41898,50.00000,23.00000,1.657630e-08,0.78718,4
300.017,1191.56,      0.99477, 87.41898,50.00000,23.00000,1.662562e-08,0.78718,4
300.022,1194.66,      0.99747, 87.43472,50.00000,23.00000,1.661764e-08,0.78719,4
300.014,1197.76,      0.99768, 87.40347,50.00000,23.00000,1.665913e-08,0.78719,4
300.014,1200.86,      0.99207, 87.40347,50.00000,23.00000,1.661675e-08,0.78719,4
300.015,1203.96,      0.99679, 87.40347,50.00000,23.00000,1.659374e-08,0.78718,4
300.017,1207.06,      0.99365, 87.36412,50.00000,23.00000,1.663317e-08,0.78718,4
300.025,1210.16,      0.99500, 87.37986,50.00000,23.00000,1.659736e-08,0.78719,4
300.019,1213.26,      0.99814, 87.37199,50.00000,23.00000,1.657730e-08,0.78718,4
300.015,1216.36,      0.99499, 87.34051,50.00000,23.00000,1.659585e-08,0.78718,4
300.016,1219.46,      0.99365, 87.35625,50.00000,23.00000,1.658091e-08,0.78717,4
300.011,1222.56,      0.99588, 87.36412,50.00000,23.00000,1.656263e-08,0.78719,4
300.002,1225.66,      0.99385, 87.36412,50.00000,23.00000,1.662395e-08,0.78719,4
300.014,1228.76,      0.99589, 87.34051,50.00000,23.00000,1.657071e-08,0.78719,4
300.019,1231.86,      0.99208, 87.35625,50.00000,23.00000,1.657360e-08,0.78719,4
300.017,1234.96,      0.99612, 87.34306,50.00000,23.00000,1.661554e-08,0.78718,4
300.01,1238.06,      0.99678, 87.33519,50.00000,23.00000,1.660836e-08,0.78720,4
300.019,1241.16,      0.99724, 87.32755,50.00000,24.00000,1.659621e-08,0.78719,4
300.016,1244.26,      0.99634, 87.34583,50.00000,24.00000,1.659050e-08,0.78720,4
300.025,1247.36,      0.99680, 87.33009,50.00000,24.00000,1.658896e-08,0.78719,4
300.01,1250.46,      0.99947, 87.32755,50.00000,24.00000,1.661300e-08,0.78720,4
300.009,1253.56,      0.99768, 87.31968,50.00000,24.00000,1.657719e-08,0.78719,4
300.011,1256.66,      0.99319, 87.29606,50.00000,24.00000,1.655775e-08,0.78719,4
300.044,1257.1,      1.03047, 87.12847,50.00000,50.00000,1.660031e-08,0.78719,5
300.286,1257.26,      1.34227, 87.04468,50.00000,50.00000,1.657156e-08,0.78719,5
300.924,1257.41,      2.07478, 86.91366,50.00000,50.00000,1.658871e-08,0.78720,5
302.04,1257.57,      3.22762, 86.84560,50.00000,50.00000,1.656118e-08,0.78720,5
303.684,1257.72,      4.70062, 86.78264,50.00000,50.00000,1.658820e-08,0.78719,5
305.781,1257.88,      6.32963, 86.71991,50.00000,50.00000,1.657202e-08,0.78719,5
308.247,1258.03,      7.93984, 86.78796,50.00000,50.00000,1.657119e-08,0.78718,5
310.943,1258.18,      9.37779, 86.92685,50.00000,50.00000,1.657119e-08,0.78718,5
313.744,1258.34,     10.54927, 87.02616,50.00000,50.00000,1.660071e-08,0.78719,5
316.559,1258.49,     11.40429, 87.12569,50.00000,50.00000,1.661020e-08,0.78719,5
319.34,1258.65,     11.96371, 87.26204,50.00000,50.00000,1.661243e-08,0.78719,5
322.041,1258.81,     12.27834, 87.32477,50.00000,50.00000,1.660648e-08,0.78719,5
324.67,1258.96,     12.42526, 87.35880,50.00000,50.00000,1.658521e-08,0.78719,5
327.253,1259.12,     12.49222, 87.42176,50.00000,50.00000,1.659377e-08,0.78719,5
329.831,1259.27,     12.55493, 87.48449,50.00000,50.00000,1.656917e-08,0.78719,5
332.453,1259.42,     12.67317, 87.56319,50.00000,50.00000,1.660463e-08,0.78719,5
335.143,1259.58,     12.87788, 87.66528,50.00000,50.00000,1.657644e-08,0.78719,5
337.94,1259.73,     13.19157, 87.75694,50.00000,50.00000,1.655366e-08,0.78719,5
340.852,1259.89,     13.59492, 87.84606,50.00000,50.00000,1.658181e-08,0.78719,5
343.902,1260.05,     14.06510, 87.94537,50.00000,50.00000,1.661138e-08,0.78719,5
347.052,1260.2,     14.56701, 88.11042,50.00000,50.00000,1.661138e-08,0.78719,5
350.276,1260.36,     15.06488, 88.21250,50.00000,50.00000,1.655289e-08,0.78719,5
353.58,1260.51,     15.52438, 88.30694,50.00000,50.00000,1.657425e-08,0.78720,5
356.908,1260.66,     15.92663, 88.41435,50.00000,50.00000,1.657318e-08,0.78720,5
360.28,1260.82,     16.26239, 88.45093,50.00000,50.00000,1.660171e-08,0.78720,5
363.647,1260.97,     16.53047, 88.51644,50.00000,50.00000,1.657034e-08,0.78719,5
367.001,1261.13,     16.73782, 88.61319,50.00000,50.00000,1.660539e-08,0.78720,5
370.36,1261.29,     16.89897, 88.61319,50.00000,50.00000,1.658659e-08,0.78720,5
373.711,1261.44,     17.03072, 88.67870,50.00000,50.00000,1.657813e-08,0.78720,5
377.066,1261.6,     17.14702, 88.71019,50.00000,50.00000,1.658631e-08,0.78720,5
380.423,1261.75,     17.26027, 88.74167,50.00000,50.00000,1.659612e-08,0.78719,5
383.793,1261.9,     17.37467, 88.77315,50.00000,50.00000,1.659217e-08,0.78720,5
387.161,1262.06,     17.49712, 88.78079,50.00000,50.00000,1.659217e-08,0.78720,5
390.549,1262.21,     17.62296, 88.78079,50.00000,50.00000,1.658180e-08,0.78719,5
393.948,1262.37,     17.74820, 88.78079,50.00000,50.00000,1.655654e-08,0.78720,5
397.363,1262.53,     17.86023, 88.74954,50.00000,50.00000,1.659071e-08,0.78719,5
400.763,1262.68,     17.96116, 88.68657,50.00000,50.00000,1.657741e-08,0.78719,5
404.172,1262.84,     18.04578, 88.58449,50.00000,50.00000,1.659978e-08,0.78720,5
407.571,1262.99,     18.09842, 88.31481,50.00000,50.00000,1.657425e-08,0.78719,5
410.98,1263.14,     18.12119, 88.02917,50.00000,50.00000,1.660397e-08,0.78719,5
414.365,1263.3,     18.11360, 87.49514,50.00000,50.00000,1.659050e-08,0.78720,5
417.742,1263.45,     18.09313, 86.86644,50.00000,50.00000,1.658652e-08,0.78720,5
421.112,1263.61,     18.09109, 86.06250,50.00000,50.00000,1.658652e-08,0.78720,5
424.474,1263.77,     18.11323, 85.10394,50.00000,50.00000,1.658148e-08,0.78719,5
427.818,1263.92,     18.21045, 83.72662,50.00000,50.00000,1.657933e-08,0.78720,5
431.171,1264.08,     18.61390, 81.88542,50.00000,50.00000,1.656946e-08,0.78719,5
434.499,1264.23,     19.02607, 79.31389,50.00000,50.00000,1.656347e-08,0.78719,5
437.822,1264.38,     19.57177, 76.00625,50.00000,50.00000,1.657208e-08,0.78720,5
441.135,1264.54,     20.21054, 71.90255,50.00000,50.00000,1.656016e-08,0.78719,5
444.437,1264.69,     20.90429, 66.59398,50.00000,50.00000,1.656730e-08,0.78719,5
447.727,1264.85,     21.58374, 60.74630,50.00000,50.00000,1.657955e-08,0.78719,5
451.021,1265.01,     22.15845, 54.07083,50.00000,50.00000,1.661494e-08,0.78719,5
454.3,1265.16,     22.54193, 47.30370,50.00000,50.00000,1.656471e-08,0.78719,5
457.577,1265.32,     22.68652, 40.57847,50.00000,50.00000,1.660722e-08,0.78719,5
460.843,1265.47,     22.58629, 34.37454,50.00000,50.00000,1.657355e-08,0.78719,5
464.108,1265.62,     22.26892, 28.99005,50.00000,50.00000,1.657355e-08,0.78719,5
467.368,1265.78,     21.79983, 24.47778,50.00000,50.00000,1.657929e-08,0.78718,5
470.625,1265.93,     21.23545, 20.68843,50.00000,50.00000,1.658168e-08,0.78720,5
473.881,1266.09,     20.61827, 17.83912,50.00000,50.00000,1.662113e-08,0.78719,5
477.113,1266.24,     20.00358, 15.56852,50.00000,50.00000,1.658716e-08,0.78719,5
480.339,1266.4,     19.44338, 13.87940,50.00000,50.00000,1.661409e-08,0.78719,5
483.565,1266.56,     18.97649, 12.59352,50.00000,50.00000,1.660973e-08,0.78720,5
486.789,1266.71,     18.61010, 11.57222,50.00000,50.00000,1.662329e-08,0.78719,5
490.022,1266.87,     18.33082, 10.74468,50.00000,50.00000,1.657163e-08,0.78719,5
493.226,1267.02,     18.11318, 10.13704,50.00000,50.00000,1.657754e-08,0.78720,5
496.437,1267.17,     17.94115,  9.63681,50.00000,50.00000,1.656677e-08,0.78720,5
499.65,1267.33,     17.79746,  9.34097,50.00000,50.00000,1.662357e-08,0.78719,5
502.844,1267.48,     17.67028,  9.09213,50.00000,50.00000,1.662357e-08,0.78719,5
506.029,1267.64,     17.56184,  9.00833,50.00000,50.00000,1.660140e-08,0.78720,5
509.212,1267.8,     17.47401,  8.94560,50.00000,50.00000,1.660122e-08,0.78719,5
512.391,1267.95,     17.39990,  8.91412,50.00000,50.00000,1.659041e-08,0.78719,5
515.566,1268.11,     17.34178,  8.96921,50.00000,50.00000,1.660107e-08,0.78719,5
518.728,1268.26,     17.29844,  9.00046,50.00000,50.00000,1.661730e-08,0.78719,5
521.875,1268.41,     17.25298,  9.00833,50.00000,50.00000,1.660197e-08,0.78719,5
525.044,1268.57,     17.22360,  9.03981,50.00000,50.00000,1.656152e-08,0.78719,5
528.183,1268.72,     17.19248,  9.10278,50.00000,50.00000,1.660801e-08,0.78719,5
531.342,1268.88,     17.17098,  9.10278,50.00000,50.00000,1.657371e-08,0.78719,5
534.488,1269.04,     17.14968,  9.16551,50.00000,50.00000,1.661857e-08,0.78719,5
537.622,1269.19,     17.13046,  9.21273,50.00000,50.00000,1.661343e-08,0.78719,5
540.77,1269.35,     17.11173,  9.23634,50.00000,50.00000,1.662881e-08,0.78719,5
543.909,1269.5,     17.08964,  9.25972,50.00000,50.00000,1.662881e-08,0.78719,5
547.028,1269.65,     17.06888,  9.33056,50.00000,50.00000,1.656247e-08,0.78719,5
550.18,1269.81,     17.04125,  9.35417,50.00000,50.00000,1.657604e-08,0.78720,5
553.298,1269.96,     17.02024,  9.41690,50.00000,50.00000,1.660697e-08,0.78719,5
556.437,1270.12,     16.99863,  9.44838,50.00000,50.00000,1.655946e-08,0.78719,5
559.562,1270.28,     16.97788,  9.44838,50.00000,50.00000,1.660641e-08,0.78719,5
562.701,1270.43,     16.96142,  9.51111,50.00000,50.00000,1.660820e-08,0.78719,5
565.812,1270.59,     16.93803,  9.54259,50.00000,50.00000,1.659684e-08,0.78719,5
568.956,1270.74,     16.91298,  9.60556,50.00000,50.00000,1.657054e-08,0.78719,5
572.072,1270.89,     16.89363,  9.63681,50.00000,50.00000,1.659395e-08,0.78719,5
575.2,1271.05,     16.87574,  9.66829,50.00000,50.00000,1.655952e-08,0.78719,5
578.326,1271.2,     16.85936,  9.73125,50.00000,50.00000,1.656057e-08,0.78718,5
581.455,1271.36,     16.84044,  9.76273,50.00000,50.00000,1.656057e-08,0.78718,5
584.582,1271.52,     16.81692,  9.78611,50.00000,50.00000,1.661520e-08,0.78718,5
587.701,1271.67,     16.79124,  9.82546,50.00000,50.00000,1.662989e-08,0.78719,5
590.822,1271.83,     16.76422,  9.86204,50.00000,50.00000,1.662006e-08,0.78719,5
593.937,1271.98,     16.73701,  9.89352,50.00000,50.00000,1.659067e-08,0.78718,5
597.061,1272.13,     16.71251,  9.92500,50.00000,50.00000,1.662612e-08,0.78719,5
600.177,1272.29,     16.69176,  9.98773,50.00000,50.00000,1.661630e-08,0.78720,5
603.282,1272.44,     16.67146,  9.98773,50.00000,50.00000,1.657294e-08,0.78719,5
606.39,1272.6,     16.65253, 10.01921,50.00000,50.00000,1.660331e-08,0.78719,5
609.506,1272.76,     16.64007, 10.05069,50.00000,50.00000,1.657570e-08,0.78719,5
612.619,1272.91,     16.63826, 10.08218,50.00000,50.00000,1.657687e-08,0.78719,5
615.729,1273.07,     16.63821, 10.12917,50.00000,50.00000,1.658208e-08,0.78719,5
618.844,1273.22,     16.63909, 10.12917,50.00000,50.00000,1.658208e-08,0.78719,5
621.971,1273.38,     16.64203, 10.16065,50.00000,50.00000,1.660594e-08,0.78719,5
625.074,1273.53,     16.65351, 10.19213,50.00000,50.00000,1.659175e-08,0.78719,5
628.201,1273.68,     16.67276, 10.19213,50.00000,50.00000,1.662860e-08,0.78719,5
631.328,1273.84,     16.68826, 10.24722,50.00000,50.00000,1.657335e-08,0.78720,5
634.454,1273.99,     16.70097, 10.25486,50.00000,50.00000,1.660193e-08,0.78719,5
637.563,1274.15,     16.70615, 10.25486,50.00000,50.00000,1.658655e-08,0.78720,5
640.683,1274.31,     16.70732, 10.28634,50.00000,50.00000,1.658197e-08,0.78719,5
643.79,1274.46,     16.70780, 10.28634,50.00000,50.00000,1.660181e-08,0.78720,5
646.904,1274.62,     16.71139, 10.28634,50.00000,50.00000,1.657935e-08,0.78719,5
650,1274.77,     16.71909, 10.30995,50.00000,50.00000,1.657600e-08,0.78720,5
653.101,1274.92,     16.74486, 10.30995,50.00000,50.00000,1.659948e-08,0.78719,5
656.198,1275.08,     16.78142, 10.31782,50.00000,50.00000,1.657723e-08,0.78719,5
659.323,1275.23,     16.82801, 10.28634,50.00000,50.00000,1.660319e-08,0.78720,5
662.425,1275.39,     16.88073, 10.28634,50.00000,50.00000,1.660319e-08,0.78720,5
665.536,1275.55,     16.93314, 10.22361,50.00000,50.00000,1.660598e-08,0.78719,5
668.643,1275.7,     16.98539, 10.16065,50.00000,50.00000,1.660332e-08,0.78720,5
671.75,1275.86,     17.03718, 10.09792,50.00000,50.00000,1.658534e-08,0.78720,5
674.864,1276.01,     17.08758,  9.99838,50.00000,50.00000,1.661171e-08,0.78719,5
677.974,1276.16,     17.13710,  9.92245,50.00000,50.00000,1.660332e-08,0.78720,5
681.091,1276.32,     17.17417,  9.82546,50.00000,50.00000,1.656565e-08,0.78719,5
684.206,1276.47,     17.19673,  9.70764,50.00000,50.00000,1.654622e-08,0.78719,5
687.327,1276.63,     17.20732,  9.60810,50.00000,50.00000,1.661959e-08,0.78719,5
690.446,1276.79,     17.20497,  9.49028,50.00000,50.00000,1.656664e-08,0.78718,5
693.565,1276.94,     17.19324,  9.41181,50.00000,50.00000,1.658691e-08,0.78720,5
696.674,1277.1,     17.17549,  9.28588,50.00000,50.00000,1.659694e-08,0.78719,5
699.804,1277.25,     17.15764,  9.19167,50.00000,50.00000,1.658905e-08,0.78719,5
702.92,1277.4,     17.12930,  9.12894,50.00000,50.00000,1.658905e-08,0.78719,5
706.052,1277.56,     17.10400,  8.99259,50.00000,50.00000,1.657819e-08,0.78719,5
709.169,1277.71,     17.06996,  8.92731,50.00000,50.00000,1.658585e-08,0.78720,5
712.274,1277.87,     17.02790,  8.86435,50.00000,50.00000,1.657769e-08,0.78719,5
715.392,1278.03,     16.97630,  8.80162,50.00000,50.00000,1.658445e-08,0.78719,5
718.519,1278.18,     16.92242,  8.73866,50.00000,50.00000,1.657740e-08,0.78720,5
721.635,1278.34,     16.85520,  8.69144,50.00000,50.00000,1.660055e-08,0.78719,5
724.739,1278.49,     16.78233,  8.64444,50.00000,50.00000,1.656989e-08,0.78719,5
727.867,1278.64,     16.70619,  8.62083,50.00000,50.00000,1.661909e-08,0.78720,5
730.975,1278.8,     16.62497,  8.65231,50.00000,50.00000,1.654974e-08,0.78720,5
734.096,1278.95,     16.53689,  8.62083,50.00000,50.00000,1.657961e-08,0.78719,5
737.217,1279.11,     16.44997,  8.62083,50.00000,50.00000,1.659722e-08,0.78719,5
740.331,1279.27,     16.36075,  8.62083,50.00000,50.00000,1.659722e-08,0.78719,5
743.438,1279.42,     16.27715,  8.66019,50.00000,50.00000,1.658263e-08,0.78721,5
746.558,1279.58,     16.19611,  8.67569,50.00000,50.00000,1.660425e-08,0.78720,5
749.691,1279.73,     16.11690,  8.74653,50.00000,50.00000,1.658505e-08,0.78720,5
752.8,1279.88,     16.03712,  8.76227,50.00000,50.00000,1.659832e-08,0.78719,5
755.918,1280.04,     15.95076,  8.80926,50.00000,50.00000,1.658321e-08,0.78719,5
759.027,1280.19,     15.86479,  8.84074,50.00000,50.00000,1.654297e-08,0.78719,5
762.14,1280.35,     15.76829,  8.90370,50.00000,50.00000,1.658505e-08,0.78719,5
765.248,1280.51,     15.67644,  8.90370,50.00000,50.00000,1.657326e-08,0.78719,5
768.369,1280.66,     15.57952,  8.96644,50.00000,50.00000,1.655913e-08,0.78719,5
771.485,1280.82,     15.48691,  8.99792,50.00000,50.00000,1.656888e-08,0.78719,5
774.603,1280.97,     15.38324,  9.02940,50.00000,50.00000,1.658350e-08,0.78719,5
777.713,1281.12,     15.28074,  9.06088,50.00000,50.00000,1.658350e-08,0.78719,5
780.833,1281.28,     15.17617,  9.08426,50.00000,50.00000,1.660532e-08,0.78720,5
783.942,1281.43,     15.07002,  9.12361,50.00000,50.00000,1.661722e-08,0.78719,5
787.054,1281.59,     14.96286,  9.15509,50.00000,50.00000,            ,0.45008,5
790.177,1281.74,     14.84615,  9.18657,50.00000,50.00000,            ,0.44883,5
793.29,1281.9,     14.73572,  9.21782,50.00000,50.00000,            ,0.44758,5
794.097,1281.94,     14.70611,  9.21782,50.00000,50.00000,            ,0.44725,5