File: data/TGA/commercial_samples/ExpDat_2025_08_01_SL_PS_Petri_Dish_Isothermal.csv
#EXPORTTYPE:                 ,DATA ALL
#FILE:                       ,2025_08_01_SL_PS_Petri_Dish_Isothermal.ngb-ss5
#FORMAT:                     ,NETZSCH5
#FTYPE:                      ,ASCII
#IDENTITY:                   ,PS-Petri-Dish
#DECIMAL:                    ,POINT
#SEPARATOR:                  ,COMMA
#MTYPE:                      ,DSC
#INSTRUMENT:                 ,NETZSCH STA 449F5
#PROJECT:                    ,
#DATE/TIME:                  ,8/5/2025 1:50:47 PM (UTC-4)
#CORR. FILE:                 ,
#TEMPCAL:                    ,05-05-2025 14:38
#SENSITIVITY:                ,28-06-2023 13:53
#LABORATORY:                 ,Tran/AAG
#OPERATOR:                   ,Stanley
#REMARK:                     ,2025_03_29_SL_005d_M1_isothermal
#SAMPLE:                     ,PS-Petri-Dish
#SAMPLE MASS /mg:            ,4.90
#MATERIAL:                   ,Polystyrene
#REFERENCE:                  ,
#REFERENCE MASS /mg:         ,0
#TYPE OF CRUCIBLE:           ,Al2O3 85 ‘l, open
#SAMPLE CRUCIBLE MASS /mg:   ,0
#REFERENCE CRUCIBLE MASS /mg:,0
#DSC RANGE /‘V:              ,5000
#TG RANGE /mg:               ,35000
#TAU-R:                      ,---
#CORR. CODE:                 ,000
#EXO:                        ,-1
#RANGE:                      ,30›C....800›C/0.0....20.0K/min
#SEGMENT:                    ,S1-5/5
#SEG. 1:                     ,30›C/10.0(K/min)/100›C
#SEG. 2:                     ,100›C/00:10/100›C
#SEG. 3:                     ,100›C/5.0(K/min)/300›C
#SEG. 4:                     ,300›C/20:00/300›C
#SEG. 5:                     ,300›C/20.0(K/min)/800›C

##Temp./›C,Time/min,DSC/(mW/mg),Mass/%,Gas Flow(purge2)/(ml/min),Gas Flow(protective)/(ml/min),TIC(scan:1)/A,Sensit./(uV/mW),Segment
 29.63400,   0.00000,      1.34090,    100,50.00000,50.00000,            ,0.92349,1
 35.29100,   1.28000,      1.08383,     98.92408,50.00000,50.00000,1.360684e-08,0.92377,1
 41.65100,   2.56000,      1.31458,     91.01633,50.00000,50.00000,1.362853e-08,0.92398,1
 49.81100,   3.84000,      1.82246,     92.51245,50.00000,50.00000,1.361399e-08,0.92420,1
 60.86400,   5.12000,      2.59126,     93.68531,50.00000,50.00000,1.364118e-08,0.92442,1
 74.28900,   6.40000,      3.32954,     94.61816,50.00000,50.00000,1.362957e-08,0.92461,1
 85.16700,   7.34000,      3.76897,     95.10531,50.00000,50.00000,1.365075e-08,0.92477,2
 91.75500,   7.98000,      3.50253,     94.67571,50.00000,50.00000,1.364015e-08,0.92487,2
 96.64900,   8.62000,      2.82800,     93.90224,50.00000,50.00000,1.361987e-08,0.92495,2
100.194,   9.26000,      2.22349,     93.33673,50.00000,50.00000,1.366289e-08,0.92505,2
103.092,   9.90000,      1.80314,     92.96041,50.00000,50.00000,1.364834e-08,0.92515,2
105.485,  10.54000,      1.47272,     92.61857,50.00000,50.00000,1.364398e-08,0.92525,2
107.285,  11.18000,      1.13471,     92.18000,50.00000,50.00000,1.364330e-08,0.92534,2
108.486,  11.82000,      0.78365,     91.76673,50.00000,50.00000,1.362908e-08,0.92541,2
109.122,  12.46000,      0.47208,     91.36020,50.00000,50.00000,1.366178e-08,0.92550,2
109.418,  13.10000,      0.22038,     90.99776,50.00000,50.00000,1.366064e-08,0.92559,2
109.387,  13.74000, 2.203816e-02,     90.67224,50.00000,50.00000,1.364320e-08,0.92568,2
109.116,  14.38000,     -0.13747,     90.39510,50.00000,50.00000,1.365477e-08,0.92576,2
108.679,  15.02000,     -0.26474,     90.08122,50.00000,50.00000,1.368113e-08,0.92582,2
108.104,  15.66000,     -0.35755,     89.81796,50.00000,50.00000,1.365457e-08,0.92589,2
107.434,  16.30000,     -0.42270,     89.59408,50.00000,50.00000,1.364056e-08,0.92596,2
106.698,  16.94000,     -0.46139,     89.39551,50.00000,50.00000,1.368218e-08,0.92603,2
106.101,  18.16000,     -0.13175,     89.72571,50.00000,50.00000,1.362438e-08,0.92612,3
108.106,  19.44000,      0.62885,     90.43449,50.00000,50.00000,1.365277e-08,0.92618,3
111.748,  20.72000,      1.15859,     91.04857,50.00000,50.00000,1.365644e-08,0.92620,3
117.015,  22.00000,      1.70554,     91.66959,50.00000,50.00000,1.365097e-08,0.92617,3
123.447,  23.28000,      2.12050,     92.13367,50.00000,50.00000,1.366640e-08,0.92609,3
130.583,  24.56000,      2.40479,     92.46633,50.00000,50.00000,1.367631e-08,0.92593,3
138.1,  25.84000,      2.57958,     92.74796,50.00000,50.00000,1.365709e-08,0.92569,3
145.691,  27.12000,      2.65772,     92.91408,50.00000,50.00000,1.365222e-08,0.92541,3
153.195,  28.40000,      2.67717,     93.00429,50.00000,50.00000,1.362187e-08,0.92501,3
160.495,  29.68000,      2.65379,     93.11510,50.00000,50.00000,1.363205e-08,0.92461,3
167.559,  30.96000,      2.62003,     93.19816,50.00000,50.00000,1.363181e-08,0.92434,3
174.415,  32.24000,      2.58305,     93.28122,50.00000,50.00000,1.364379e-08,0.92406,3
181.127,  33.52000,      2.55360,     93.36429,50.00000,50.00000,1.363353e-08,0.92380,3
187.704,  34.80000,      2.53119,     93.44755,50.00000,50.00000,1.364528e-08,0.92350,3
194.209,  36.08000,      2.51725,     93.53061,50.00000,50.00000,1.366370e-08,0.92320,3
200.645,  37.36000,      2.50865,     93.61367,50.00000,50.00000,1.364317e-08,0.92294,3
207.053,  38.64000,      2.50409,     93.69694,50.00000,50.00000,1.362992e-08,0.92266,3
213.425,  39.92000,      2.50485,     93.78000,50.00000,50.00000,1.362739e-08,0.92241,3
219.783,  41.20000,      2.50070,     93.83531,50.00000,50.00000,1.361872e-08,0.92216,3
226.143,  42.48000,      2.49648,     93.89082,50.00000,50.00000,1.359713e-08,0.92191,3
232.508,  43.76000,      2.48687,     93.96939,50.00000,50.00000,1.365056e-08,0.92171,3
238.88,  45.04000,      2.46841,     93.96939,50.00000,50.00000,1.363635e-08,0.92149,3
245.238,  46.32000,      2.44830,     93.99694,50.00000,50.00000,1.366917e-08,0.92131,3
251.623,  47.60000,      2.42340,     94.05245,50.00000,50.00000,1.366992e-08,0.92110,3
257.992,  48.88000,      2.39406,     94.02469,50.00000,50.00000,1.363279e-08,0.92090,3
264.371,  50.16000,      2.36477,     94.07327,50.00000,50.00000,1.362611e-08,0.92074,3
270.749,  51.44000,      2.32995,     94.01776,50.00000,50.00000,1.363776e-08,0.92055,3
277.129,  52.72000,      2.29368,     93.99000,50.00000,50.00000,1.361687e-08,0.92037,3
283.501,  54.00000,      2.25064,     93.90694,50.00000,50.00000,1.360471e-08,0.92022,3
289.874,  55.28000,      2.20871,     93.79143,50.00000,50.00000,1.362690e-08,0.92004,3
296.239,  56.56000,      2.16253,     93.68061,50.00000,50.00000,1.358514e-08,0.91988,3
302.708,  59.10000,     -0.42146,     93.69224,50.00000,38.00000,1.362858e-08,0.91959,4
302.968,  62.30000,     -1.25148,     92.84714,50.00000,38.00000,1.360939e-08,0.91926,4
301.735,  65.50000,     -1.32258,     92.23531,50.00000,38.00000,1.361181e-08,0.91900,4
300.846,  68.70000,     -1.23981,     91.70204,50.00000,37.00000,1.361290e-08,0.91880,4
300.402,  71.90000,     -1.17583,     91.18245,50.00000,37.00000,1.362053e-08,0.91865,4
300.191,  75.10000,     -1.14527,     90.73918,50.00000,37.00000,1.359534e-08,0.91855,4
300.082,  78.30000,     -1.13484,     90.29592,50.00000,37.00000,1.361247e-08,0.91848,4
300.049,  81.50000,     -1.12292,     89.96347,50.00000,37.00000,1.361706e-08,0.91845,4
300.031,  84.70000,     -1.12507,     89.62408,50.00000,37.00000,1.360307e-08,0.91846,4
300.023,  87.90000,     -1.12150,     89.28469,50.00000,37.00000,1.364955e-08,0.91848,4
300.018,  91.10000,     -1.12189,     89.02143,50.00000,37.00000,1.362797e-08,0.91854,4
300.015,  94.30000,     -1.12624,     88.75816,50.00000,37.00000,1.361935e-08,0.91861,4
300.018,  97.50000,     -1.12150,     88.52959,50.00000,37.00000,1.362574e-08,0.91869,4
300.006, 100.7,     -1.12484,     88.35878,50.00000,37.00000,1.360799e-08,0.91880,4
300.011, 103.9,     -1.12228,     88.09551,50.00000,37.00000,1.357635e-08,0.91890,4
300.011, 107.1,     -1.12347,     87.88306,50.00000,37.00000,1.360470e-08,0.91902,4
300.03, 110.3,     -1.12626,     87.70306,50.00000,37.00000,1.358698e-08,0.91914,4
300.018, 113.5,     -1.12486,     87.50449,50.00000,37.00000,1.359066e-08,0.91927,4
300.001, 116.7,     -1.12464,     87.32898,50.00000,37.00000,1.362487e-08,0.91944,4
300.014, 119.9,     -1.12268,     87.17898,50.00000,37.00000,1.359314e-08,0.91932,4
300.01, 123.1,     -1.12208,     86.98959,50.00000,37.00000,1.361955e-08,0.91894,4
300.007, 126.3,     -1.12287,     86.90429,50.00000,37.00000,1.360772e-08,0.91840,4
300.021, 129.5,     -1.12387,     86.69633,50.00000,37.00000,1.360559e-08,0.91766,4
300.02, 132.7,     -1.12328,     86.56939,50.00000,37.00000,1.357703e-08,0.91669,4
300.026, 135.9,     -1.12487,     86.44245,50.00000,37.00000,1.359054e-08,0.91551,4
300.022, 139.1,     -1.12546,     86.27612,50.00000,37.00000,1.359225e-08,0.91413,4
300.018, 142.3,     -1.12367,     86.13531,50.00000,37.00000,1.359474e-08,0.91255,4
300.017, 145.5,     -1.11794,     86.02694,50.00000,37.00000,1.361004e-08,0.91082,4
300.012, 148.7,     -1.12406,     85.87898,50.00000,37.00000,1.357116e-08,0.90894,4
300.006, 151.9,     -1.11990,     85.76816,50.00000,37.00000,1.357940e-08,0.90693,4
300.01, 155.1,     -1.11535,     85.62286,50.00000,37.00000,1.359602e-08,0.90482,4
300.009, 158.3,     -1.11595,     85.50510,50.00000,37.00000,1.357814e-08,0.90263,4
300.019, 161.5,     -1.11319,     85.38041,50.00000,37.00000,1.357350e-08,0.90036,4
300.02, 164.7,     -1.11319,     85.25571,50.00000,37.00000,1.358663e-08,0.89805,4
300.015, 167.9,     -1.11576,     85.14020,50.00000,37.00000,1.357834e-08,0.89570,4
300.03, 171.1,     -1.11439,     85.00163,50.00000,37.00000,1.359443e-08,0.89331,4
300.015, 174.3,     -1.11773,     84.90020,50.00000,37.00000,1.358254e-08,0.89090,4
300.017, 177.5,     -1.11596,     84.77306,50.00000,37.00000,1.356674e-08,0.88832,4
299.997, 180.7,     -1.11376,     84.67612,50.00000,37.00000,1.353949e-08,0.88583,4
300.008, 183.9,     -1.11239,     84.55388,50.00000,37.00000,1.355057e-08,0.88332,4
300.014, 187.1,     -1.11595,     84.44980,50.00000,37.00000,1.356823e-08,0.88077,4
300.004, 190.3,     -1.11100,     84.32061,50.00000,37.00000,1.354926e-08,0.87819,4
300.013, 193.5,     -1.11516,     84.18898,50.00000,37.00000,1.355907e-08,0.87556,4
300.024, 196.7,     -1.11063,     84.10122,50.00000,37.00000,1.356906e-08,0.87289,4
300.013, 199.9,     -1.11279,     83.99510,50.00000,38.00000,1.357218e-08,0.87019,4
300.025, 203.1,     -1.11162,     83.86571,50.00000,38.00000,1.355640e-08,0.86745,4
300.015, 206.3,     -1.11180,     83.75490,50.00000,38.00000,1.356833e-08,0.86467,4
299.997, 209.5,     -1.10940,     83.64184,50.00000,38.00000,1.357354e-08,0.86184,4
300.02, 212.7,     -1.10864,     83.53796,50.00000,38.00000,1.354345e-08,0.85898,4
300.017, 215.9,     -1.11121,     83.44102,50.00000,38.00000,1.357067e-08,0.85607,4
299.999, 219.1,     -1.11020,     83.33000,50.00000,38.00000,1.356242e-08,0.85312,4
300.015, 222.3,     -1.11180,     83.18469,50.00000,38.00000,1.356862e-08,0.85012,4
300.008, 225.5,     -1.10981,     83.08082,50.00000,38.00000,1.356763e-08,0.84708,4
300.027, 228.7,     -1.10845,     82.97000,50.00000,38.00000,1.359918e-08,0.84402,4
300.012, 231.9,     -1.10824,     82.88673,50.00000,38.00000,1.355746e-08,0.84091,4
300.018, 235.1,     -1.10923,     82.77837,50.00000,38.00000,1.358013e-08,0.83776,4
300.015, 238.3,     -1.10844,     82.64673,50.00000,38.00000,1.356570e-08,0.83458,4
300.013, 241.5,     -1.10666,     82.54041,50.00000,38.00000,1.356679e-08,0.83137,4
300.012, 244.7,     -1.10626,     82.44347,50.00000,38.00000,1.357601e-08,0.82813,4
300.018, 247.9,     -1.10627,     82.31184,50.00000,38.00000,1.357577e-08,0.82485,4
300.032, 251.1,     -1.09976,     82.22184,50.00000,38.00000,1.352924e-08,0.82154,4
300.02, 254.3,     -1.10469,     82.11102,50.00000,38.00000,1.354440e-08,0.81819,4
300.012, 257.5,     -1.10052,     82.03490,50.00000,38.00000,1.357259e-08,0.81483,4
300.023, 260.7,     -1.09856,     81.92163,50.00000,38.00000,1.358477e-08,0.81145,4
300.024, 263.9,     -1.10133,     81.83388,50.00000,38.00000,1.353834e-08,0.80785,4
300.019, 267.1,     -1.10014,     81.72082,50.00000,38.00000,1.355109e-08,0.80442,4
300.027, 270.3,     -1.09856,     81.61000,50.00000,38.00000,1.352212e-08,0.80098,4
300.031, 273.5,     -1.09897,     81.52694,50.00000,38.00000,1.353516e-08,0.79770,4
300.027, 276.7,     -1.10054,     81.41367,50.00000,38.00000,1.356308e-08,0.79420,4
300.018, 279.9,     -1.09578,     81.30286,50.00000,38.00000,1.354963e-08,0.79070,4
300.003, 283.1,     -1.09715,     81.22204,50.00000,38.00000,1.355346e-08,0.78562,4
300.01, 286.3,     -1.10230,     81.11122,50.00000,38.00000,1.352290e-08,0.78420,4
300.011, 289.5,     -1.09835,     81.04204,50.00000,38.00000,1.351669e-08,0.78425,4
300.027, 292.7,     -1.09837,     80.90816,50.00000,38.00000,1.349150e-08,0.78490,4
300.014, 295.9,     -1.09598,     80.79490,50.00000,38.00000,1.348719e-08,0.78559,4
300.016, 299.1,     -1.09281,     80.69347,50.00000,38.00000,1.351276e-08,0.78612,4
300.004, 302.3,     -1.09319,     80.61020,50.00000,38.00000,1.350760e-08,0.78652,4
300.017, 305.5,     -1.09005,     80.50408,50.00000,38.00000,1.350231e-08,0.78676,4
300.014, 308.7,     -1.09044,     80.40020,50.00000,38.00000,1.350901e-08,0.78692,4
300.012, 311.9,     -1.09439,     80.29388,50.00000,38.00000,1.350172e-08,0.78703,4
300.018, 315.1,     -1.08847,     80.20388,50.00000,38.00000,1.352748e-08,0.78709,4
300.025, 318.3,     -1.09381,     80.09082,50.00000,38.00000,1.352628e-08,0.78714,4
300.014, 321.5,     -1.08648,     80.02612,50.00000,38.00000,1.351808e-08,0.78717,4
300.013, 324.7,     -1.08767,     79.93612,50.00000,38.00000,1.353022e-08,0.78717,4
300.006, 327.9,     -1.08944,     79.83449,50.00000,38.00000,1.351679e-08,0.78718,4
300.021, 331.1,     -1.08847,     79.72367,50.00000,38.00000,1.352331e-08,0.78719,4
300.021, 334.3,     -1.09064,     79.61510,50.00000,38.00000,1.351564e-08,0.78719,4
300.018, 337.5,     -1.08827,     79.53898,50.00000,38.00000,1.350691e-08,0.78720,4
300.007, 340.7,     -1.09162,     79.42592,50.00000,38.00000,1.351200e-08,0.78720,4
300.01, 343.9,     -1.08984,     79.34265,50.00000,38.00000,1.350320e-08,0.78719,4
300.008, 347.1,     -1.08588,     79.25735,50.00000,38.00000,1.351325e-08,0.78720,4
300.016, 350.3,     -1.08490,     79.16265,50.00000,38.00000,1.353217e-08,0.78720,4
300.017, 353.5,     -1.08490,     79.06796,50.00000,38.00000,1.350705e-08,0.78719,4
300.013, 356.7,     -1.09439,     78.95490,50.00000,38.00000,1.353946e-08,0.78719,4
300.01, 359.9,     -1.08747,     78.89939,50.00000,38.00000,1.351063e-08,0.78720,4
300.009, 363.1,     -1.08984,     78.77694,50.00000,38.00000,1.351518e-08,0.78718,4
300.011, 366.3,     -1.08509,     78.67776,50.00000,38.00000,1.350314e-08,0.78718,4
300.014, 369.5,     -1.08391,     78.56694,50.00000,38.00000,1.350360e-08,0.78719,4
300.014, 372.7,     -1.08510,     78.50000,50.00000,38.00000,1.350155e-08,0.78718,4
300.021, 375.9,     -1.08491,     78.37306,50.00000,38.00000,1.348377e-08,0.78718,4
300.021, 379.1,     -1.08194,     78.28286,50.00000,38.00000,1.345722e-08,0.78719,4
300.009, 382.3,     -1.08766,     78.17898,50.00000,38.00000,1.348934e-08,0.78721,4
300.007, 385.5,     -1.08271,     78.04510,50.00000,38.00000,1.346748e-08,0.78720,4
300.015, 388.7,     -1.07778,     77.97592,50.00000,38.00000,1.349759e-08,0.78720,4
300.013, 391.9,     -1.07817,     77.87204,50.00000,38.00000,1.350308e-08,0.78719,4
300.015, 395.1,     -1.07758,     77.78184,50.00000,38.00000,1.348908e-08,0.78720,4
300.014, 398.3,     -1.06393,     77.65041,50.00000,38.00000,1.350995e-08,0.78719,4
300.019, 401.5,     -1.05286,     77.55571,50.00000,38.00000,1.350184e-08,0.78720,4
300.016, 404.7,     -1.03941,     77.46102,50.00000,38.00000,1.352007e-08,0.78719,4
300.008, 407.9,     -1.02595,     77.36408,50.00000,38.00000,1.348980e-08,0.78718,4
300.018, 411.1,     -1.01647,     77.27388,50.00000,38.00000,1.347449e-08,0.78720,4
300.024, 414.3,     -1.00837,     77.16551,50.00000,38.00000,1.349526e-08,0.78718,4
300.017, 417.5,     -1.00203,     77.05694,50.00000,38.00000,1.350093e-08,0.78718,4
300.014, 420.7,     -0.99668,     76.97143,50.00000,38.00000,1.351282e-08,0.78720,4
300.023, 423.9,     -0.99610,     76.86531,50.00000,38.00000,1.349527e-08,0.78718,4
300.024, 427.1,     -0.99056,     76.76837,50.00000,38.00000,1.350458e-08,0.78719,4
300.02, 430.3,     -0.99095,     76.67143,50.00000,38.00000,1.350056e-08,0.78719,4
300.014, 433.5,     -0.98759,     76.57429,50.00000,38.00000,1.349753e-08,0.78719,4
300.008, 436.7,     -0.98698,     76.48429,50.00000,38.00000,1.352877e-08,0.78720,4
300.02, 439.9,     -0.98660,     76.37347,50.00000,38.00000,1.351302e-08,0.78719,4
300.014, 443.1,     -0.98304,     76.28347,50.00000,38.00000,1.347680e-08,0.78719,4
300.014, 446.3,     -0.98719,     76.15653,50.00000,38.00000,1.348477e-08,0.78719,4
300.015, 449.5,     -0.98403,     76.09653,50.00000,38.00000,1.347227e-08,0.78719,4
300.012, 452.7,     -0.98620,     75.95571,50.00000,38.00000,1.346312e-08,0.78719,4
300.017, 455.9,     -0.98561,     75.88633,50.00000,38.00000,1.348471e-08,0.78721,4
300.02, 459.1,     -0.98601,     75.76857,50.00000,38.00000,1.345511e-08,0.78720,4
300.008, 462.3,     -0.98600,     75.67163,50.00000,38.00000,1.350317e-08,0.78720,4
300.02, 465.5,     -0.98087,     75.57469,50.00000,38.00000,1.344902e-08,0.78720,4
300.019, 468.7,     -0.98324,     75.49163,50.00000,38.00000,1.346726e-08,0.78719,4
300.021, 471.9,     -0.98285,     75.36694,50.00000,38.00000,1.346957e-08,0.78720,4
300.013, 475.1,     -0.98185,     75.29061,50.00000,38.00000,1.346666e-08,0.78719,4
300.018, 478.3,     -0.98225,     75.14980,50.00000,38.00000,1.343725e-08,0.78718,4
300.024, 481.5,     -0.97929,     75.05980,50.00000,38.00000,1.350334e-08,0.78719,4
300.024, 484.7,     -0.98166,     74.95592,50.00000,38.00000,1.346725e-08,0.78718,4
300.023, 487.9,     -0.97731,     74.87735,50.00000,38.00000,1.346325e-08,0.78720,4
300.013, 491.1,     -0.97572,     74.77347,50.00000,38.00000,1.347000e-08,0.78720,4
300.019, 494.3,     -0.98087,     74.66265,50.00000,38.00000,1.347092e-08,0.78720,4
300.017, 497.5,     -0.97790,     74.60490,50.00000,38.00000,1.348441e-08,0.78719,4
300.014, 500.7,     -0.97611,     74.50102,50.00000,38.00000,1.346183e-08,0.78719,4
300.024, 503.9,     -0.97612,     74.39714,50.00000,38.00000,1.346723e-08,0.78720,4
300.023, 507.1,     -0.97217,     74.29327,50.00000,38.00000,1.345975e-08,0.78719,4
300.019, 510.3,     -0.98166,     74.18020,50.00000,38.00000,1.346740e-08,0.78719,4
300.008, 513.5,     -0.97591,     74.10388,50.00000,38.00000,1.347442e-08,0.78720,4
300.014, 516.7,     -0.97354,     73.99082,50.00000,38.00000,1.347195e-08,0.78718,4
300.014, 519.9,     -0.97176,     73.88224,50.00000,38.00000,1.343494e-08,0.78718,4
300.007, 523.1,     -0.97076,     73.75061,50.00000,38.00000,1.345896e-08,0.78720,4
300.011, 526.3,     -0.97057,     73.68143,50.00000,38.00000,1.344940e-08,0.78718,4
300.016, 529.5,     -0.96781,     73.58449,50.00000,38.00000,1.345972e-08,0.78718,4
300.017, 532.7,     -0.96939,     73.46673,50.00000,38.00000,1.343526e-08,0.78719,4
300.03, 535.9,     -0.97277,     73.34898,50.00000,38.00000,1.345848e-08,0.78720,4
300.02, 539.1,     -0.97296,     73.25204,50.00000,38.00000,1.346977e-08,0.78721,4
300.025, 542.3,     -0.96980,     73.14571,50.00000,38.00000,1.345360e-08,0.78720,4
300.017, 545.5,     -0.97137,     73.02796,50.00000,38.00000,1.347215e-08,0.78719,4
300.015, 548.7,     -0.97216,     72.97265,50.00000,38.00000,1.344244e-08,0.78719,4
300.014, 551.9,     -0.96978,     72.86878,50.00000,38.00000,1.348759e-08,0.78720,4
300.022, 555.1,     -0.96920,     72.76469,50.00000,38.00000,1.347312e-08,0.78720,4
300.013, 558.3,     -0.97136,     72.66551,50.00000,38.00000,1.346679e-08,0.78718,4
300.003, 561.5,     -0.96997,     72.58245,50.00000,38.00000,1.345131e-08,0.78719,4
300.012, 564.7,     -0.97176,     72.47857,50.00000,38.00000,1.344506e-08,0.78719,4
300.014, 567.9,     -0.96899,     72.34000,50.00000,38.00000,1.346112e-08,0.78719,4
300.025, 571.1,     -0.97039,     72.27755,50.00000,38.00000,1.345820e-08,0.78719,4
300.019, 574.3,     -0.96999,     72.15980,50.00000,38.00000,1.345910e-08,0.78719,4
300.029, 577.5,     -0.97020,     72.07673,50.00000,38.00000,1.346603e-08,0.78719,4
300.01, 580.7,     -0.97176,     71.92429,50.00000,38.00000,1.344964e-08,0.78718,4
300.008, 583.9,     -0.97156,     71.87816,50.00000,38.00000,1.345026e-08,0.78719,4
300.017, 587.1,     -0.96722,     71.75816,50.00000,38.00000,1.347068e-08,0.78720,4
300.022, 590.3,     -0.96920,     71.67490,50.00000,38.00000,1.345710e-08,0.78720,4
300.031, 593.5,     -0.96802,     71.54347,50.00000,38.00000,1.342512e-08,0.78720,4
300.012, 596.7,     -0.97334,     71.44878,50.00000,38.00000,1.341975e-08,0.78719,4
300.022, 599.9,     -0.96940,     71.37939,50.00000,38.00000,1.345316e-08,0.78718,4
300.022, 603.1,     -0.96999,     71.28245,50.00000,38.00000,1.344526e-08,0.78718,4
300.018, 606.3,     -0.96999,     71.15082,50.00000,38.00000,1.344525e-08,0.78719,4
300.015, 609.5,     -0.96702,     71.08163,50.00000,38.00000,1.348322e-08,0.78718,4
300.017, 612.7,     -0.96900,     70.95224,50.00000,38.00000,1.342666e-08,0.78720,4
300.026, 615.9,     -0.97138,     70.88306,50.00000,38.00000,1.345255e-08,0.78718,4
300.008, 619.1,     -0.97096,     70.75837,50.00000,38.00000,1.343108e-08,0.78720,4
300.022, 622.3,     -0.97039,     70.67980,50.00000,38.00000,1.345223e-08,0.78719,4
300.011, 625.5,     -0.97116,     70.56673,50.00000,38.00000,1.344421e-08,0.78719,4
300.015, 628.7,     -0.97077,     70.45816,50.00000,38.00000,1.344032e-08,0.78719,4
300.013, 631.9,     -0.97156,     70.36122,50.00000,38.00000,1.345825e-08,0.78719,4
300.01, 635.1,     -0.96958,     70.25735,50.00000,38.00000,1.345261e-08,0.78719,4
300.014, 638.3,     -0.96860,     70.16735,50.00000,38.00000,1.339698e-08,0.78719,4
300.009, 641.5,     -0.96839,     70.10490,50.00000,38.00000,1.342619e-08,0.78718,4
300.014, 644.7,     -0.97018,     69.98020,50.00000,38.00000,1.342420e-08,0.78719,4
300.015, 647.9,     -0.96978,     69.86245,50.00000,38.00000,1.341769e-08,0.78719,4
300.024, 651.1,     -0.96584,     69.76551,50.00000,38.00000,1.344415e-08,0.78719,4
300.014, 654.3,     -0.97315,     69.67551,50.00000,38.00000,1.340744e-08,0.78720,4
300.028, 657.5,     -0.96802,     69.57163,50.00000,38.00000,1.340019e-08,0.78719,4
300.022, 660.7,     -0.97157,     69.50000,50.00000,38.00000,1.341108e-08,0.78719,4
300.011, 663.9,     -0.97097,     69.37306,50.00000,38.00000,1.340311e-08,0.78719,4
300.021, 667.1,     -0.97039,     69.26224,50.00000,38.00000,1.341987e-08,0.78719,4
300.009, 670.3,     -0.97314,     69.16531,50.00000,38.00000,1.340381e-08,0.78718,4
300.031, 673.5,     -0.97059,     69.07531,50.00000,38.00000,1.339965e-08,0.78719,4
300.02, 676.7,     -0.97197,     68.96898,50.00000,38.00000,1.341275e-08,0.78719,4
300.015, 679.9,     -0.97315,     68.83041,50.00000,38.00000,1.339108e-08,0.78718,4
300.008, 683.1,     -0.97274,     68.75204,50.00000,38.00000,1.341641e-08,0.78718,4
300.017, 686.3,     -0.97355,     68.64122,50.00000,38.00000,1.343197e-08,0.78719,4
300.023, 689.5,     -0.97059,     68.54653,50.00000,38.00000,1.340050e-08,0.78719,4
300.014, 692.7,     -0.97374,     68.46347,50.00000,38.00000,1.341311e-08,0.78720,4
300.013, 695.9,     -0.97117,     68.35265,50.00000,38.00000,1.341762e-08,0.78720,4
300.029, 699.1,     -0.96921,     68.28102,50.00000,38.00000,1.340904e-08,0.78719,4
300.013, 702.3,     -0.97314,     68.19102,50.00000,38.00000,1.341354e-08,0.78719,4
300.017, 705.5,     -0.97275,     68.09388,50.00000,38.00000,1.338261e-08,0.78718,4
300.017, 708.7,     -0.97078,     67.94857,50.00000,38.00000,1.340409e-08,0.78718,4
300.022, 711.9,     -0.96999,     67.84469,50.00000,38.00000,1.339754e-08,0.78719,4
300.009, 715.1,     -0.97215,     67.72449,50.00000,38.00000,1.341115e-08,0.78719,4
300.016, 718.3,     -0.97176,     67.62061,50.00000,38.00000,1.340915e-08,0.78719,4
300.012, 721.5,     -0.96919,     67.52367,50.00000,38.00000,1.341398e-08,0.78719,4
300.021, 724.7,     -0.97058,     67.41286,50.00000,38.00000,1.340848e-08,0.78719,4
300.025, 727.9,     -0.97573,     67.30898,50.00000,38.00000,1.338685e-08,0.78719,4
300.02, 731.1,     -0.97296,     67.19816,50.00000,38.00000,1.338961e-08,0.78721,4
300.007, 734.3,     -0.97492,     67.12878,50.00000,38.00000,1.342058e-08,0.78719,4
300.019, 737.5,     -0.97414,     66.98796,50.00000,38.00000,1.337996e-08,0.78719,4
300.013, 740.7,     -0.97176,     66.88408,50.00000,38.00000,1.339282e-08,0.78719,4
300.016, 743.9,     -0.97532,     66.79408,50.00000,38.00000,1.340371e-08,0.78719,4
300.012, 747.1,     -0.97393,     66.68327,50.00000,38.00000,1.338682e-08,0.78718,4
300.019, 750.3,     -0.97098,     66.60714,50.00000,38.00000,1.339167e-08,0.78719,4
300.02, 753.5,     -0.97315,     66.47551,50.00000,38.00000,1.336393e-08,0.78719,4
300.027, 756.7,     -0.97356,     66.39918,50.00000,38.00000,1.338606e-08,0.78719,4
300.018, 759.9,     -0.96979,     66.28143,50.00000,38.00000,1.339171e-08,0.78719,4
300.019, 763.1,     -0.97098,     66.16367,50.00000,38.00000,1.336961e-08,0.78719,4
300.015, 766.3,     -0.97216,     66.07367,50.00000,38.00000,1.335769e-08,0.78720,4
300.018, 769.5,     -0.97058,     65.94898,50.00000,38.00000,1.340077e-08,0.78719,4
300.019, 772.7,     -0.97078,     65.85204,50.00000,38.00000,1.338272e-08,0.78720,4
300.017, 775.9,     -0.97196,     65.76898,50.00000,38.00000,1.338187e-08,0.78720,4
300.009, 779.1,     -0.97116,     65.64429,50.00000,38.00000,1.335960e-08,0.78719,4
300.008, 782.3,     -0.97156,     65.54041,50.00000,39.00000,1.337183e-08,0.78718,4
300.007, 785.5,     -0.97076,     65.47102,50.00000,39.00000,1.338652e-08,0.78718,4
300.018, 788.7,     -0.97592,     65.37408,50.00000,39.00000,1.337347e-08,0.78720,4
300.025, 791.9,     -0.97375,     65.27020,50.00000,39.00000,1.335912e-08,0.78720,4
300.024, 795.1,     -0.97553,     65.17327,50.00000,39.00000,1.337826e-08,0.78720,4
300.014, 798.3,     -0.97315,     65.09714,50.00000,39.00000,1.337739e-08,0.78718,4
299.998, 801.5,     -0.96897,     64.98633,50.00000,39.00000,1.335704e-08,0.78719,4
300.021, 804.7,     -0.97474,     64.86857,50.00000,39.00000,1.335652e-08,0.78720,4
300.016, 807.9,     -0.97236,     64.77837,50.00000,39.00000,1.336500e-08,0.78719,4
300.022, 811.1,     -0.97039,     64.67449,50.00000,39.00000,1.336283e-08,0.78720,4
300.028, 814.3,     -0.97198,     64.54980,50.00000,39.00000,1.334014e-08,0.78720,4
300.016, 817.5,     -0.97354,     64.45980,50.00000,39.00000,1.333862e-08,0.78719,4
300.021, 820.7,     -0.97553,     64.34898,50.00000,39.00000,1.334130e-08,0.78719,4
300.002, 823.9,     -0.97313,     64.24510,50.00000,39.00000,1.334254e-08,0.78719,4
300.016, 827.1,     -0.97176,     64.15510,50.00000,39.00000,1.334487e-08,0.78720,4
300.016, 830.3,     -0.97532,     64.04429,50.00000,39.00000,1.336122e-08,0.78720,4
300.013, 833.5,     -0.97235,     63.92653,50.00000,39.00000,1.334059e-08,0.78719,4
300.024, 836.7,     -0.97593,     63.83653,50.00000,38.00000,1.334402e-08,0.78720,4
300.018, 839.9,     -0.97315,     63.71878,50.00000,38.00000,1.336772e-08,0.78720,4
300.003, 843.1,     -0.97353,     63.63551,50.00000,38.00000,1.333203e-08,0.78719,4
300.022, 846.3,     -0.97335,     63.50388,50.00000,39.00000,1.333005e-08,0.78719,4
300.016, 849.5,     -0.97552,     63.41388,50.00000,39.00000,1.331017e-08,0.78719,4
300.017, 852.7,     -0.97434,     63.30776,50.00000,39.00000,1.333699e-08,0.78721,4
300.026, 855.9,     -0.97336,     63.22449,50.00000,39.00000,1.334829e-08,0.78720,4
300.017, 859.1,     -0.97434,     63.12061,50.00000,39.00000,1.334809e-08,0.78719,4
300.013, 862.3,     -0.97057,     63.00286,50.00000,39.00000,1.335146e-08,0.78718,4
300.018, 865.5,     -0.97295,     62.91286,50.00000,39.00000,1.335918e-08,0.78720,4
300.019, 868.7,     -0.97375,     62.83673,50.00000,38.00000,1.333798e-08,0.78721,4
300.021, 871.9,     -0.97493,     62.70980,50.00000,38.00000,1.333144e-08,0.78721,4
300.013, 875.1,     -0.97493,     62.59898,50.00000,38.00000,1.333662e-08,0.78719,4
300.031, 878.3,     -0.97079,     62.52265,50.00000,38.00000,1.335510e-08,0.78719,4
300.018, 881.5,     -0.97691,     62.40490,50.00000,38.00000,1.334853e-08,0.78719,4
300.013, 884.7,     -0.97473,     62.32878,50.00000,38.00000,1.332357e-08,0.78719,4
300.012, 887.9,     -0.97334,     62.22490,50.00000,38.00000,1.335628e-08,0.78719,4
300.005, 891.1,     -0.97531,     62.12102,50.00000,38.00000,1.331938e-08,0.78719,4
300.014, 894.3,     -0.97235,     62.04469,50.00000,38.00000,1.334306e-08,0.78720,4
300.021, 897.5,     -0.97632,     61.92694,50.00000,38.00000,1.330945e-08,0.78718,4
300.013, 900.7,     -0.97730,     61.82306,50.00000,38.00000,1.331613e-08,0.78720,4
300.014, 903.9,     -0.97611,     61.74000,50.00000,38.00000,1.330541e-08,0.78720,4
300.02, 907.1,     -0.97612,     61.63612,50.00000,38.00000,1.331219e-08,0.78719,4
300.008, 910.3,     -0.97551,     61.52306,50.00000,38.00000,1.331127e-08,0.78719,4
300.024, 913.5,     -0.97336,     61.42367,50.00000,38.00000,1.327910e-08,0.78718,4
300.005, 916.7,     -0.97590,     61.31286,50.00000,38.00000,1.327916e-08,0.78719,4
300.004, 919.9,     -0.97393,     61.20429,50.00000,38.00000,1.327090e-08,0.78719,4
300.019, 923.1,     -0.97651,     61.12122,50.00000,38.00000,1.329781e-08,0.78719,4
300.011, 926.3,     -0.97512,     61.03122,50.00000,38.00000,1.326668e-08,0.78719,4
300.014, 929.5,     -0.97868,     60.92041,50.00000,38.00000,1.328186e-08,0.78719,4
300.02, 932.7,     -0.97572,     60.80959,50.00000,38.00000,1.327997e-08,0.78719,4
300.008, 935.9,     -0.97531,     60.72633,50.00000,38.00000,1.328169e-08,0.78718,4
300.014, 939.1,     -0.97671,     60.59939,50.00000,38.00000,1.330501e-08,0.78718,4
300.01, 942.3,     -0.97591,     60.49327,50.00000,38.00000,1.324921e-08,0.78719,4
300.008, 945.5,     -0.97413,     60.39633,50.00000,38.00000,1.330652e-08,0.78719,4
300.021, 948.7,     -0.97276,     60.30857,50.00000,38.00000,1.330710e-08,0.78719,4
300.022, 951.9,     -0.97850,     60.19776,50.00000,38.00000,1.329906e-08,0.78719,4
300.014, 955.1,     -0.97690,     60.08000,50.00000,38.00000,1.327449e-08,0.78719,4
300.024, 958.3,     -0.97474,     59.98755,50.00000,38.00000,1.327228e-08,0.78719,4
300.012, 961.5,     -0.97413,     59.90449,50.00000,38.00000,1.328579e-08,0.78719,4
300.022, 964.7,     -0.97652,     59.77755,50.00000,38.00000,1.324865e-08,0.78719,4
300.021, 967.9,     -0.97414,     59.68980,50.00000,39.00000,1.328992e-08,0.78720,4
300.026, 971.1,     -0.97731,     59.59286,50.00000,39.00000,1.326190e-08,0.78720,4
300.006, 974.3,     -0.97788,     59.48184,50.00000,39.00000,1.326484e-08,0.78719,4
300.025, 977.5,     -0.97553,     59.35735,50.00000,39.00000,1.326794e-08,0.78719,4
300.036, 980.7,     -0.97653,     59.29020,50.00000,39.00000,1.325267e-08,0.78718,4
300.024, 983.9,     -0.97553,     59.18878,50.00000,39.00000,1.327835e-08,0.78718,4
300.019, 987.1,     -0.97770,     59.07796,50.00000,39.00000,1.326182e-08,0.78719,4
300.018, 990.3,     -0.97869,     58.95327,50.00000,39.00000,1.325580e-08,0.78719,4
300.004, 993.5,     -0.97867,     58.86551,50.00000,39.00000,1.326425e-08,0.78718,4
300.025, 996.7,     -0.98008,     58.78694,50.00000,39.00000,1.328750e-08,0.78718,4
300.019, 999.9,     -0.97632,     58.65531,50.00000,39.00000,1.324957e-08,0.78718,4
300.02,1003.1,     -0.97849,     58.57224,50.00000,39.00000,1.325752e-08,0.78719,4
300.024,1006.3,     -0.97810,     58.48918,50.00000,39.00000,1.321731e-08,0.78721,4
300.023,1009.5,     -0.97691,     58.35531,50.00000,39.00000,1.324036e-08,0.78719,4
300.013,1012.7,     -0.98007,     58.26510,50.00000,39.00000,1.327019e-08,0.78720,4
300.018,1015.9,     -0.98225,     58.18204,50.00000,39.00000,1.326801e-08,0.78719,4
300,1019.1,     -0.97689,     58.06429,50.00000,39.00000,1.323421e-08,0.78719,4
300.006,1022.3,     -0.97887,     57.94653,50.00000,39.00000,1.322789e-08,0.78719,4
300.008,1025.5,     -0.98204,     57.87490,50.00000,39.00000,1.322064e-08,0.78718,4
300.012,1028.7,     -0.97848,     57.76408,50.00000,39.00000,1.323695e-08,0.78720,4
300.02,1031.9,     -0.97691,     57.66490,50.00000,39.00000,1.324935e-08,0.78719,4
300.032,1035.1,     -0.98088,     57.56327,50.00000,39.00000,1.321754e-08,0.78718,4
300.019,1038.3,     -0.97928,     57.46633,50.00000,39.00000,1.323562e-08,0.78718,4
300.02,1041.5,     -0.98067,     57.36245,50.00000,39.00000,1.321654e-08,0.78719,4
300.031,1044.7,     -0.97989,     57.26551,50.00000,39.00000,1.324760e-08,0.78718,4
300.012,1047.9,     -0.97829,     57.16388,50.00000,39.00000,1.322542e-08,0.78719,4
300.012,1051.1,     -0.97928,     57.05306,50.00000,39.00000,1.322547e-08,0.78720,4
300.028,1054.3,     -0.97672,     56.94918,50.00000,39.00000,1.322132e-08,0.78720,4
300.026,1057.5,     -0.98147,     56.87755,50.00000,39.00000,1.319587e-08,0.78720,4
300.008,1060.7,     -0.98164,     56.76898,50.00000,39.00000,1.322512e-08,0.78720,4
300.015,1063.9,     -0.97987,     56.63735,50.00000,39.00000,1.321086e-08,0.78719,4
300.016,1067.1,     -0.97750,     56.54041,50.00000,39.00000,1.319719e-08,0.78719,4
300.014,1070.3,     -0.97868,     56.45041,50.00000,39.00000,1.320163e-08,0.78720,4
300.012,1073.5,     -0.97769,     56.34653,50.00000,39.00000,1.321923e-08,0.78719,4
300.015,1076.7,     -0.97987,     56.25653,50.00000,39.00000,1.318531e-08,0.78719,4
300.022,1079.9,     -0.97731,     56.15959,50.00000,39.00000,1.320720e-08,0.78719,4
300.023,1083.1,     -0.97909,     56.03490,50.00000,39.00000,1.320565e-08,0.78719,4
300.02,1086.3,     -0.98205,     55.93776,50.00000,39.00000,1.319593e-08,0.78719,4
299.997,1089.5,     -0.98203,     55.85245,50.00000,39.00000,1.319920e-08,0.78718,4
300.014,1092.7,     -0.98205,     55.77612,50.00000,39.00000,1.318511e-08,0.78718,4
300.01,1095.9,     -0.98224,     55.64224,50.00000,39.00000,1.320141e-08,0.78719,4
300.02,1099.1,     -0.98146,     55.55224,50.00000,39.00000,1.319201e-08,0.78720,4
300.011,1102.3,     -0.98165,     55.44612,50.00000,39.00000,1.322064e-08,0.78719,4
300.014,1105.5,     -0.98205,     55.36980,50.00000,39.00000,1.318238e-08,0.78719,4
300.013,1108.7,     -0.97928,     55.21755,50.00000,38.00000,1.319987e-08,0.78719,4
300.017,1111.9,     -0.98126,     55.14122,50.00000,38.00000,1.319707e-08,0.78718,4
300.023,1115.1,     -0.97968,     55.05347,50.00000,38.00000,1.318764e-08,0.78719,4
300.013,1118.3,     -0.98224,     54.94265,50.00000,38.00000,1.319004e-08,0.78719,4
300.016,1121.5,     -0.98146,     54.82490,50.00000,38.00000,1.320604e-08,0.78719,4
300.015,1124.7,     -0.98205,     54.72796,50.00000,38.00000,1.319908e-08,0.78719,4
300.017,1127.9,     -0.98126,     54.65878,50.00000,38.00000,1.322924e-08,0.78718,4
300.004,1131.1,     -0.98204,     54.55939,50.00000,38.00000,1.320464e-08,0.78720,4
300.015,1134.3,     -0.97829,     54.46714,50.00000,38.00000,1.321246e-08,0.78720,4
300.01,1137.5,     -0.98165,     54.37020,50.00000,38.00000,1.319725e-08,0.78720,4
300.017,1140.7,     -0.97928,     54.22469,50.00000,38.00000,1.318683e-08,0.78719,4
300.015,1143.9,     -0.98047,     54.18306,50.00000,38.00000,1.318630e-08,0.78719,4
300.019,1147.1,     -0.98007,     54.06776,50.00000,38.00000,1.321061e-08,0.78719,4
300.022,1150.3,     -0.98206,     53.97531,50.00000,38.00000,1.320014e-08,0.78719,4
300.035,1153.5,     -0.97970,     53.87837,50.00000,38.00000,1.320645e-08,0.78719,4
300.011,1156.7,     -0.98264,     53.75143,50.00000,38.00000,1.320473e-08,0.78719,4
300.017,1159.9,     -0.98185,     53.65898,50.00000,38.00000,1.320460e-08,0.78718,4
300.013,1163.1,     -0.98244,     53.59898,50.00000,38.00000,1.320544e-08,0.78719,4
300.013,1166.3,     -0.97908,     53.50898,50.00000,38.00000,1.319418e-08,0.78719,4
300.007,1169.5,     -0.98738,     53.37041,50.00000,38.00000,1.320332e-08,0.78719,4
300.008,1172.7,     -0.97828,     53.28265,50.00000,38.00000,1.318972e-08,0.78719,4
300.003,1175.9,     -0.98164,     53.15571,50.00000,38.00000,1.320687e-08,0.78719,4
300.022,1179.1,     -0.98146,     53.05878,50.00000,38.00000,1.320394e-08,0.78718,4
300.014,1182.3,     -0.98046,     52.92714,50.00000,38.00000,1.318109e-08,0.78719,4
300.025,1185.5,     -0.98127,     52.86939,50.00000,38.00000,1.319209e-08,0.78718,4
300.018,1188.7,     -0.98245,     52.75163,50.00000,38.00000,1.320041e-08,0.78718,4
300.002,1191.9,     -0.98322,     52.65469,50.00000,38.00000,1.319170e-08,0.78718,4
300.02,1195.1,     -0.98087,     52.54388,50.00000,38.00000,1.320884e-08,0.78720,4
300.007,1198.3,     -0.98224,     52.44449,50.00000,38.00000,1.323043e-08,0.78720,4
300.015,1201.5,     -0.98403,     52.34286,50.00000,38.00000,1.318833e-08,0.78718,4
300.024,1204.7,     -0.98067,     52.23204,50.00000,38.00000,1.320484e-08,0.78718,4
300.022,1207.9,     -0.98028,     52.12122,50.00000,38.00000,1.318163e-08,0.78720,4
300.025,1211.1,     -0.98364,     52.03122,50.00000,38.00000,1.320416e-08,0.78720,4
300.023,1214.3,     -0.98265,     51.93429,50.00000,38.00000,1.321397e-08,0.78720,4
300.014,1217.5,     -0.98442,     51.84653,50.00000,38.00000,1.321962e-08,0.78720,4
300.017,1220.7,     -0.98185,     51.72878,50.00000,38.00000,1.317365e-08,0.78719,4
300.023,1223.9,     -0.97850,     51.62959,50.00000,38.00000,1.320848e-08,0.78719,4
300.017,1227.1,     -0.98363,     51.53245,50.00000,38.00000,1.319218e-08,0.78719,4
300.007,1230.3,     -0.98105,     51.44939,50.00000,38.00000,1.316788e-08,0.78718,4
300.012,1233.5,     -0.98343,     51.38020,50.00000,38.00000,1.321917e-08,0.78719,4
300.01,1236.7,     -0.98204,     51.26939,50.00000,38.00000,1.317937e-08,0.78720,4
300.01,1239.9,     -0.98343,     51.13551,50.00000,38.00000,1.317559e-08,0.78719,4
300.015,1243.1,     -0.98126,     51.05918,50.00000,38.00000,1.318702e-08,0.78718,4
300.015,1246.3,     -0.98284,     50.94143,50.00000,38.00000,1.319818e-08,0.78719,4
300.004,1249.5,     -0.98362,     50.83061,50.00000,38.00000,1.320204e-08,0.78719,4
300.009,1252.7,     -0.98244,     50.77531,50.00000,38.00000,1.320759e-08,0.78719,4
300.011,1255.9,     -0.98639,     50.64367,50.00000,38.00000,1.317467e-08,0.78719,4
300.028,1257.11,     -0.97118,     50.57204,50.00000,50.00000,1.316417e-08,0.78719,5
300.209,1257.27,     -0.76762,     50.53980,50.00000,50.00000,1.319173e-08,0.78720,5
300.765,1257.42,     -0.20985,     50.57429,50.00000,50.00000,1.316296e-08,0.78719,5
301.829,1257.59,      0.72707,     50.70367,50.00000,50.00000,1.321119e-08,0.78720,5
303.431,1257.74,      1.96732,     50.91367,50.00000,50.00000,1.321119e-08,0.78720,5
305.534,1257.9,      3.37274,     51.14000,50.00000,50.00000,1.316612e-08,0.78719,5
308.031,1258.07,      4.78615,     51.40551,50.00000,50.00000,1.317378e-08,0.78719,5
310.792,1258.22,      6.06304,     51.56490,50.00000,50.00000,1.316945e-08,0.78719,5
313.691,1258.38,      7.10669,     51.69653,50.00000,50.00000,1.314810e-08,0.78720,5
316.609,1258.55,      7.87103,     51.81429,50.00000,50.00000,1.316288e-08,0.78720,5
319.48,1258.7,      8.36258,     51.86959,50.00000,50.00000,1.317455e-08,0.78720,5
322.286,1258.87,      8.62958,     51.86959,50.00000,50.00000,1.317584e-08,0.78719,5
325.003,1259.03,      8.74130,     51.92510,50.00000,50.00000,1.317581e-08,0.78720,5
327.694,1259.18,      8.77621,     51.89735,50.00000,50.00000,1.316102e-08,0.78719,5
330.347,1259.35,      8.80173,     51.95286,50.00000,50.00000,1.314768e-08,0.78719,5
333.075,1259.51,      8.87792,     51.98041,50.00000,50.00000,1.314706e-08,0.78719,5
335.863,1259.66,      9.03449,     52.03592,50.00000,50.00000,1.317814e-08,0.78719,5
338.771,1259.83,      9.27804,     52.09122,50.00000,50.00000,1.316859e-08,0.78719,5
341.815,1259.98,      9.59858,     52.16980,50.00000,50.00000,1.319578e-08,0.78720,5
344.982,1260.14,      9.97024,     52.23204,50.00000,50.00000,1.316805e-08,0.78719,5
348.245,1260.31,     10.36175,     52.27367,50.00000,50.00000,1.313436e-08,0.78719,5
351.6,1260.46,     10.74224,     52.31531,50.00000,50.00000,1.317230e-08,0.78719,5
355.014,1260.62,     11.08387,     52.31531,50.00000,50.00000,1.317230e-08,0.78719,5
358.464,1260.79,     11.37181,     52.31531,50.00000,50.00000,1.316519e-08,0.78719,5
361.939,1260.94,     11.59920,     52.23204,50.00000,50.00000,1.319119e-08,0.78719,5
365.409,1261.11,     11.77034,     52.15592,50.00000,50.00000,1.317860e-08,0.78720,5
368.869,1261.27,     11.89557,     52.04980,50.00000,50.00000,1.318645e-08,0.78720,5
372.344,1261.42,     11.98765,     51.85816,50.00000,50.00000,1.316414e-08,0.78720,5
375.803,1261.59,     12.06564,     51.58571,50.00000,50.00000,1.319691e-08,0.78720,5
379.254,1261.74,     12.13886,     51.29939,50.00000,50.00000,1.316051e-08,0.78719,5
382.725,1261.9,     12.22042,     50.92306,50.00000,50.00000,1.318898e-08,0.78719,5
386.197,1262.07,     12.31651,     50.44041,50.00000,50.00000,1.314589e-08,0.78720,5
389.681,1262.22,     12.43373,     49.80082,50.00000,50.00000,1.315696e-08,0.78719,5
393.185,1262.38,     12.56735,     49.10367,50.00000,50.00000,1.316532e-08,0.78719,5
396.684,1262.55,     12.71942,     48.14306,50.00000,50.00000,1.316810e-08,0.78720,5
400.203,1262.7,     12.89735,     46.98408,50.00000,50.00000,1.318749e-08,0.78719,5
403.706,1262.87,     13.08912,     45.54347,50.00000,50.00000,1.317076e-08,0.78719,5
407.216,1263.03,     13.30665,     43.82102,50.00000,50.00000,1.315899e-08,0.78719,5
410.715,1263.18,     13.55203,     41.80082,50.00000,50.00000,1.318903e-08,0.78719,5
414.211,1263.35,     13.82690,     39.31408,50.00000,50.00000,1.317748e-08,0.78719,5
417.686,1263.51,     14.13913,     36.33327,50.00000,50.00000,1.318391e-08,0.78719,5
421.138,1263.66,     14.47760,     32.87000,50.00000,50.00000,1.319779e-08,0.78719,5
424.606,1263.83,     14.83109,     28.92653,50.00000,50.00000,1.319779e-08,0.78719,5
428.067,1263.98,     15.17269,     24.51204,50.00000,50.00000,1.317106e-08,0.78719,5
431.503,1264.14,     15.45797,     19.79510,50.00000,50.00000,1.315735e-08,0.78718,5
434.931,1264.31,     15.63956,     14.91633,50.00000,50.00000,1.318101e-08,0.78719,5
438.352,1264.46,     15.66086,     10.19714,50.00000,50.00000,1.319399e-08,0.78719,5
441.761,1264.62,     15.48862,      6.00653,50.00000,50.00000,1.316757e-08,0.78720,5
445.171,1264.79,     15.10206,      2.55714,50.00000,50.00000,1.316538e-08,0.78719,5
448.557,1264.94,     14.53038,      0.13041,50.00000,50.00000,1.317852e-08,0.78719,5
451.941,1265.11,     13.88076,     -1.41878,50.00000,50.00000,1.317708e-08,0.78719,5
455.347,1265.27,     13.27925,     -2.27755,50.00000,50.00000,1.316795e-08,0.78719,5
458.738,1265.42,     12.78303,     -2.66776,50.00000,50.00000,1.317330e-08,0.78718,5
462.139,1265.59,     12.38838,     -2.86878,50.00000,50.00000,1.318340e-08,0.78719,5
465.528,1265.74,     12.06765,     -3.00265,50.00000,50.00000,1.317217e-08,0.78719,5
468.898,1265.9,     11.80229,     -3.05796,50.00000,50.00000,1.318593e-08,0.78719,5
472.27,1266.07,     11.57310,     -3.14122,50.00000,50.00000,1.316636e-08,0.78720,5
475.625,1266.22,     11.37583,     -3.16184,50.00000,50.00000,1.315844e-08,0.78720,5
478.967,1266.38,     11.19949,     -3.16184,50.00000,50.00000,1.316314e-08,0.78719,5
482.303,1266.55,     11.03797,     -3.14122,50.00000,50.00000,1.316314e-08,0.78719,5
485.626,1266.7,     10.88786,     -3.14122,50.00000,50.00000,1.317860e-08,0.78719,5
488.928,1266.87,     10.74693,     -3.10653,50.00000,50.00000,1.318588e-08,0.78719,5
492.242,1267.03,     10.61147,     -3.08571,50.00000,50.00000,1.316606e-08,0.78719,5
495.543,1267.18,     10.48376,     -3.07878,50.00000,50.00000,1.319670e-08,0.78720,5
498.841,1267.35,     10.35995,     -3.01653,50.00000,50.00000,1.316971e-08,0.78719,5
502.119,1267.51,     10.24143,     -2.98878,50.00000,50.00000,1.318640e-08,0.78719,5
505.415,1267.66,     10.12956,     -2.96796,50.00000,50.00000,1.318321e-08,0.78719,5
508.702,1267.83,     10.01551,     -2.91265,50.00000,50.00000,1.317341e-08,0.78720,5
511.976,1267.98,      9.90208,     -2.88490,50.00000,50.00000,1.319124e-08,0.78719,5
515.257,1268.14,      9.78483,     -2.83633,50.00000,50.00000,1.318092e-08,0.78720,5
518.518,1268.31,      9.66866,     -2.80184,50.00000,50.00000,1.316874e-08,0.78719,5
521.779,1268.46,      9.55172,     -2.77408,50.00000,50.00000,1.318209e-08,0.78719,5
525.031,1268.62,      9.43604,     -2.74633,50.00000,50.00000,1.318664e-08,0.78719,5
528.294,1268.79,      9.31816,     -2.68857,50.00000,50.00000,1.315924e-08,0.78719,5
531.544,1268.94,      9.20232,     -2.65857,50.00000,50.00000,1.317238e-08,0.78718,5
534.788,1269.11,      9.08730,     -2.63776,50.00000,50.00000,1.318158e-08,0.78719,5
538.035,1269.27,      8.97376,     -2.60327,50.00000,50.00000,1.318151e-08,0.78719,5
541.285,1269.42,      8.85958,     -2.57551,50.00000,50.00000,1.317128e-08,0.78720,5
544.515,1269.59,      8.74587,     -2.52000,50.00000,50.00000,1.314404e-08,0.78720,5
547.76,1269.74,      8.63166,     -2.49245,50.00000,50.00000,1.314404e-08,0.78720,5
550.991,1269.9,      8.51884,     -2.43694,50.00000,50.00000,1.320355e-08,0.78720,5
554.232,1270.07,      8.40192,     -2.43694,50.00000,50.00000,1.317272e-08,0.78719,5
557.455,1270.22,      8.28776,     -2.38163,50.00000,50.00000,1.319152e-08,0.78719,5
560.707,1270.38,      8.17216,     -2.35388,50.00000,50.00000,1.317455e-08,0.78720,5
563.941,1270.55,      8.06076,     -2.32612,50.00000,50.00000,1.317595e-08,0.78719,5
567.17,1270.7,      7.94846,     -2.29837,50.00000,50.00000,1.318848e-08,0.78718,5
570.395,1270.87,      7.83303,     -2.24306,50.00000,50.00000,1.317335e-08,0.78720,5
573.629,1271.03,      7.71177,     -2.21531,50.00000,50.00000,1.318412e-08,0.78719,5
576.855,1271.18,      7.58983,     -2.21531,50.00000,50.00000,1.318926e-08,0.78718,5
580.101,1271.35,      7.46716,     -2.13224,50.00000,50.00000,1.318229e-08,0.78718,5
583.325,1271.51,      7.34797,     -2.10449,50.00000,50.00000,1.319199e-08,0.78719,5
586.554,1271.66,      7.22798,     -2.09755,50.00000,50.00000,1.316211e-08,0.78719,5
589.778,1271.83,      7.11111,     -2.07449,50.00000,50.00000,1.318320e-08,0.78719,5
592.998,1271.98,      6.98939,     -2.04673,50.00000,50.00000,1.314875e-08,0.78719,5
596.24,1272.14,      6.86874,     -1.96367,50.00000,50.00000,1.318544e-08,0.78718,5
599.462,1272.31,      6.74568,     -1.96367,50.00000,50.00000,1.315351e-08,0.78719,5
602.685,1272.46,      6.61862,     -1.90816,50.00000,50.00000,1.315351e-08,0.78719,5
605.911,1272.62,      6.49396,     -1.88041,50.00000,50.00000,1.317323e-08,0.78718,5
609.137,1272.79,      6.36586,     -1.90122,50.00000,50.00000,1.318040e-08,0.78719,5
612.357,1272.94,      6.23662,     -1.87367,50.00000,50.00000,1.317920e-08,0.78718,5
615.578,1273.11,      6.10422,     -1.81816,50.00000,50.00000,1.318511e-08,0.78719,5
618.798,1273.27,      5.96716,     -1.79735,50.00000,50.00000,1.319404e-08,0.78718,5
622.015,1273.42,      5.83281,     -1.76286,50.00000,50.00000,1.317091e-08,0.78717,5
625.232,1273.59,      5.69973,     -1.73510,50.00000,50.00000,1.315878e-08,0.78718,5
628.452,1273.74,      5.57037,     -1.70735,50.00000,50.00000,1.314241e-08,0.78720,5
631.663,1273.9,      5.43362,     -1.67959,50.00000,50.00000,1.317294e-08,0.78719,5
634.885,1274.07,      5.30007,     -1.65184,50.00000,50.00000,1.319453e-08,0.78720,5
638.09,1274.22,      5.16265,     -1.59653,50.00000,50.00000,1.315947e-08,0.78720,5
641.321,1274.38,      5.02311,     -1.56653,50.00000,50.00000,1.316061e-08,0.78719,5
644.526,1274.55,      4.88510,     -1.56653,50.00000,50.00000,1.316128e-08,0.78719,5
647.752,1274.7,      4.74888,     -1.53878,50.00000,50.00000,1.314920e-08,0.78719,5
650.961,1274.87,      4.60729,     -1.51102,50.00000,50.00000,1.318271e-08,0.78719,5
654.185,1275.03,      4.46473,     -1.48347,50.00000,50.00000,1.314995e-08,0.78720,5
657.398,1275.18,      4.32292,     -1.45571,50.00000,50.00000,1.315680e-08,0.78719,5
660.616,1275.35,      4.17086,     -1.42796,50.00000,50.00000,1.315680e-08,0.78719,5
663.827,1275.51,      4.01801,     -1.40020,50.00000,50.00000,1.316665e-08,0.78719,5
667.049,1275.66,      3.86754,     -1.37265,50.00000,50.00000,1.317789e-08,0.78719,5
670.263,1275.83,      3.71507,     -1.34490,50.00000,50.00000,1.315355e-08,0.78719,5
673.478,1275.98,      3.56061,     -1.31714,50.00000,50.00000,1.315035e-08,0.78719,5
676.693,1276.14,      3.40636,     -1.28939,50.00000,50.00000,1.315540e-08,0.78718,5
679.896,1276.31,      3.25135,     -1.26857,50.00000,50.00000,1.316164e-08,0.78719,5
683.115,1276.46,      3.09788,     -1.23408,50.00000,50.00000,1.319799e-08,0.78719,5
686.338,1276.62,      2.93867,     -1.20633,50.00000,50.00000,1.316462e-08,0.78719,5
689.567,1276.79,      2.78414,     -1.17857,50.00000,50.00000,1.315513e-08,0.78718,5
692.784,1276.94,      2.62540,     -1.17163,50.00000,50.00000,1.315895e-08,0.78719,5
695.998,1277.11,      2.46404,     -1.12327,50.00000,50.00000,1.313446e-08,0.78718,5
699.215,1277.27,      2.29944,     -1.08857,50.00000,50.00000,1.314431e-08,0.78719,5
702.45,1277.42,      2.13030,     -1.08857,50.00000,50.00000,1.315512e-08,0.78718,5
705.664,1277.59,      1.96265,     -1.06082,50.00000,50.00000,1.319503e-08,0.78718,5
708.876,1277.74,      1.79234,     -1.06082,50.00000,50.00000,1.318188e-08,0.78718,5
712.089,1277.9,      1.62261,     -1.00551,50.00000,50.00000,1.318226e-08,0.78719,5
715.317,1278.07,      1.45544,     -0.99857,50.00000,50.00000,1.318226e-08,0.78719,5
718.536,1278.22,      1.28367,     -0.97776,50.00000,50.00000,1.318170e-08,0.78718,5
721.76,1278.38,      1.11545,     -0.95000,50.00000,50.00000,1.314229e-08,0.78718,5
724.982,1278.55,      0.94229,     -0.92224,50.00000,50.00000,1.317102e-08,0.78720,5
728.207,1278.7,      0.76778,     -0.92224,50.00000,50.00000,1.316670e-08,0.78719,5
731.426,1278.87,      0.59355,     -0.86694,50.00000,50.00000,1.316396e-08,0.78718,5
734.666,1279.03,      0.42327,     -0.83918,50.00000,50.00000,1.313799e-08,0.78719,5
737.886,1279.18,      0.24768,     -0.83918,50.00000,50.00000,1.316682e-08,0.78720,5
741.1,1279.35, 6.807437e-02,     -0.81143,50.00000,50.00000,1.318177e-08,0.78719,5
744.327,1279.51,     -0.11023,     -0.79082,50.00000,50.00000,1.315624e-08,0.78719,5
747.546,1279.66,     -0.28656,     -0.75612,50.00000,50.00000,1.315164e-08,0.78719,5
750.761,1279.83,     -0.46289,     -0.72837,50.00000,50.00000,1.317030e-08,0.78719,5
753.975,1279.98,     -0.63284,     -0.70061,50.00000,50.00000,1.319422e-08,0.78719,5
757.205,1280.14,     -0.80310,     -0.70061,50.00000,50.00000,1.316385e-08,0.78720,5
760.424,1280.31,     -0.96283,     -0.64531,50.00000,50.00000,1.315269e-08,0.78718,5
763.627,1280.46,     -1.12380,     -0.64531,50.00000,50.00000,1.316954e-08,0.78719,5
766.865,1280.62,     -1.27654,     -0.58980,50.00000,50.00000,1.318113e-08,0.78719,5
770.088,1280.79,     -1.43047,     -0.58980,50.00000,50.00000,1.318113e-08,0.78719,5
773.289,1280.94,     -1.57944,     -0.55980,50.00000,50.00000,1.314590e-08,0.78719,5
776.504,1281.11,     -1.72824,     -0.50449,50.00000,50.00000,1.317625e-08,0.78718,5
779.727,1281.27,     -1.86346,     -0.47673,50.00000,50.00000,1.316894e-08,0.78719,5
782.944,1281.42,     -1.99772,     -0.47673,50.00000,50.00000,1.317940e-08,0.78720,5
786.173,1281.59,     -2.12448,     -0.44673,50.00000,50.00000,1.317148e-08,0.78720,5
789.383,1281.74,     -2.25400,     -0.41898,50.00000,50.00000,            ,0.44915,5
792.593,1281.9,     -2.37382,     -0.39122,50.00000,50.00000,            ,0.44786,5
794.509,1282,     -2.44338,     -0.39122,50.00000,50.00000,            ,0.44709,5