File: data/TGA/commercial_samples/ExpDat_2025_08_17_SL_PS_Container_Dynamic.csv
#EXPORTTYPE:                 ,DATA ALL
#FILE:                       ,2025_08_17_SL_PS_Container_Dynamic.ngb-ss5
#FORMAT:                     ,NETZSCH5
#FTYPE:                      ,ASCII
#IDENTITY:                   ,PS-Container
#DECIMAL:                    ,POINT
#SEPARATOR:                  ,COMMA
#MTYPE:                      ,TG
#INSTRUMENT:                 ,NETZSCH STA 449F5
#PROJECT:                    ,
#DATE/TIME:                  ,8/17/2025 12:32:47 PM (UTC-4)
#CORR. FILE:                 ,
#TEMPCAL:                    ,05-05-2025 14:38
#SENSITIVITY:                ,28-06-2023 13:53
#LABORATORY:                 ,Tran/AAG
#OPERATOR:                   ,Stanley
#REMARK:                     ,2025_03_20_Styrofoam_dynamic
#SAMPLE:                     ,PS-Container
#SAMPLE MASS /mg:            ,5.15
#MATERIAL:                   ,Polystyrene
#REFERENCE:                  ,
#REFERENCE MASS /mg:         ,0
#TYPE OF CRUCIBLE:           ,Al2O3 85 ‘l, open
#SAMPLE CRUCIBLE MASS /mg:   ,0
#REFERENCE CRUCIBLE MASS /mg:,0
#DSC RANGE /‘V:              ,5000
#TG RANGE /mg:               ,35000
#TAU-R:                      ,---
#CORR. CODE:                 ,000
#EXO:                        ,-1
#RANGE:                      ,20›C....800›C/0.0....20.0K/min
#SEGMENT:                    ,S1-4/4
#SEG. 1:                     ,20›C/5.0(K/min)/100›C
#SEG. 2:                     ,100›C/00:05/100›C
#SEG. 3:                     ,100›C/1.0(K/min)/400›C
#SEG. 4:                     ,400›C/20.0(K/min)/800›C

##Temp./›C,Time/min,Mass/%,Sensit./(uV/mW),Segment
 30.07900,  0.00000,    100,0.92357,1
 31.07300,  0.53333,     99.82854,0.92375,1
 31.97000,  1.06667,     91.24796,0.92391,1
 32.69600,  1.60000,     91.39301,0.92403,1
 33.30300,  2.13333,     91.57981,0.92413,1
 33.85400,  2.66667,     91.55340,0.92422,1
 34.41900,  3.20000,     91.40175,0.92431,1
 35.12800,  3.73333,     91.33359,0.92442,1
 36.02900,  4.26667,     91.42602,0.92455,1
 37.20000,  4.80000,     91.54466,0.92472,1
 38.63900,  5.33333,     91.70272,0.92491,1
 40.31200,  5.86667,     91.91806,0.92512,1
 42.25600,  6.40000,     92.15961,0.92533,1
 44.44900,  6.93333,     92.37049,0.92555,1
 46.82100,  7.46667,     92.61010,0.92575,1
 49.43600,  8.00000,     92.89126,0.92592,1
 52.20500,  8.53333,     93.10427,0.92606,1
 55.13600,  9.06667,     93.27126,0.92616,1
 58.17100,  9.60000,     93.43165,0.92620,1
 61.32000, 10.13333,     93.61612,0.92618,1
 64.52900, 10.66667,     93.72155,0.92610,1
 67.76900, 11.20000,     93.83146,0.92595,1
 71.04900, 11.73333,     93.93689,0.92573,1
 74.33200, 12.26667,     94.02913,0.92545,1
 77.59700, 12.80000,     94.09495,0.92510,1
 80.87500, 13.33333,     94.14777,0.92469,1
 84.13000, 13.86667,     94.22680,0.92422,1
 87.36800, 14.40000,     94.25320,0.92369,1
 90.56200, 14.93333,     94.29942,0.92310,1
 93.73700, 15.46667,     94.27961,0.92246,1
 96.75500, 15.98333,     94.30583,0.92180,2
 99.00700, 16.38333,     94.27301,0.92127,2
100.945, 16.78333,     94.00718,0.92079,2
102.496, 17.18333,     93.69301,0.92039,2
103.719, 17.58333,     93.38117,0.92007,2
104.73, 17.98333,     93.11961,0.91980,2
105.576, 18.38333,     92.95495,0.91956,2
106.301, 18.78333,     92.77029,0.91936,2
106.888, 19.18333,     92.58369,0.91919,2
107.356, 19.58333,     92.39476,0.91906,2
107.667, 19.98333,     92.18155,0.91897,2
107.842, 20.38333,     91.99262,0.91892,2
107.932, 20.78333,     91.79495,0.91889,2
107.871, 21.26667,     91.58641,0.91891,3
107.77, 21.80000,     91.42816,0.91894,3
107.658, 22.33333,     91.32272,0.91897,3
107.573, 22.86667,     91.21728,0.91900,3
107.433, 23.40000,     91.10971,0.91904,3
107.329, 23.93333,     91.00408,0.91907,3
107.229, 24.46667,     90.94272,0.91910,3
107.149, 25.00000,     90.91631,0.91912,3
107.126, 25.53333,     90.84388,0.91913,3
107.14, 26.06667,     90.82408,0.91912,3
107.211, 26.60000,     90.80427,0.91910,3
107.332, 27.13333,     90.75146,0.91907,3
107.493, 27.66667,     90.75806,0.91902,3
107.687, 28.20000,     90.73184,0.91896,3
107.926, 28.73333,     90.73184,0.91890,3
108.226, 29.26667,     90.71204,0.91881,3
108.557, 29.80000,     90.71204,0.91871,3
108.938, 30.33333,     90.73184,0.91860,3
109.344, 30.86667,     90.69883,0.91848,3
109.76, 31.40000,     90.69883,0.91835,3
110.208, 31.93333,     90.69883,0.91822,3
110.683, 32.46667,     90.71204,0.91807,3
111.175, 33.00000,     90.69223,0.91792,3
111.697, 33.53333,     90.68777,0.91776,3
112.223, 34.06667,     90.68777,0.91759,3
112.766, 34.60000,     90.65495,0.91742,3
113.313, 35.13333,     90.65495,0.91725,3
113.869, 35.66667,     90.65495,0.91707,3
114.41, 36.20000,     90.65495,0.91689,3
114.98, 36.73333,     90.65495,0.91671,3
115.543, 37.26667,     90.63515,0.91652,3
116.11, 37.80000,     90.63515,0.91633,3
116.674, 38.33333,     90.60874,0.91614,3
117.247, 38.86667,     90.59553,0.91594,3
117.797, 39.40000,     90.60874,0.91576,3
118.36, 39.93333,     90.58233,0.91556,3
118.919, 40.46667,     90.58893,0.91537,3
119.49, 41.00000,     90.56913,0.91516,3
120.052, 41.53333,     90.58893,0.91496,3
120.6, 42.06667,     90.55612,0.91477,3
121.154, 42.60000,     90.54291,0.91457,3
121.707, 43.13333,     90.54951,0.91437,3
122.255, 43.66667,     90.54951,0.91417,3
122.809, 44.20000,     90.54951,0.91396,3
123.351, 44.73333,     90.54951,0.91376,3
123.894, 45.26667,     90.51650,0.91356,3
124.448, 45.80000,     90.51650,0.91335,3
124.977, 46.33333,     90.54291,0.91314,3
125.512, 46.86667,     90.51650,0.91294,3
126.057, 47.40000,     90.50990,0.91273,3
126.596, 47.93333,     90.50990,0.91252,3
127.136, 48.46667,     90.50990,0.91231,3
127.668, 49.00000,     90.51650,0.91210,3
128.203, 49.53333,     90.51650,0.91188,3
128.741, 50.06667,     90.52311,0.91167,3
129.261, 50.60000,     90.52971,0.91146,3
129.812, 51.13333,     90.52971,0.91124,3
130.332, 51.66667,     90.50990,0.91102,3
130.883, 52.20000,     90.53631,0.91080,3
131.397, 52.73333,     90.52971,0.91058,3
131.941, 53.26667,     90.54951,0.91036,3
132.481, 53.80000,     90.55612,0.91013,3
133.013, 54.33333,     90.58233,0.90991,3
133.53, 54.86667,     90.57573,0.90969,3
134.064, 55.40000,     90.58233,0.90946,3
134.608, 55.93333,     90.58233,0.90922,3
135.143, 56.46667,     90.58233,0.90899,3
135.668, 57.00000,     90.60874,0.90876,3
136.211, 57.53333,     90.60874,0.90853,3
136.744, 58.06667,     90.62194,0.90829,3
137.268, 58.60000,     90.63515,0.90806,3
137.803, 59.13333,     90.60874,0.90782,3
138.336, 59.66667,     90.63515,0.90758,3
138.867, 60.20000,     90.64835,0.90734,3
139.401, 60.73333,     90.67456,0.90710,3
139.934, 61.26667,     90.68117,0.90685,3
140.464, 61.80000,     90.70097,0.90661,3
141.014, 62.33333,     90.72738,0.90636,3
141.537, 62.86667,     90.72078,0.90611,3
142.076, 63.40000,     90.74718,0.90586,3
142.63, 63.93333,     90.77359,0.90560,3
143.138, 64.46667,     90.77359,0.90536,3
143.66, 65.00000,     90.78019,0.90512,3
144.224, 65.53333,     90.79320,0.90485,3
144.752, 66.06667,     90.80641,0.90459,3
145.287, 66.60000,     90.81961,0.90434,3
145.823, 67.13333,     90.83282,0.90408,3
146.35, 67.66667,     90.85262,0.90382,3
146.896, 68.20000,     90.83942,0.90355,3
147.429, 68.73333,     90.85262,0.90329,3
147.953, 69.26667,     90.87903,0.90303,3
148.484, 69.80000,     90.87903,0.90276,3
149.027, 70.33333,     90.90524,0.90249,3
149.565, 70.86667,     90.93165,0.90222,3
150.082, 71.40000,     90.95146,0.90196,3
150.626, 71.93333,     90.92505,0.90169,3
151.158, 72.46667,     90.95146,0.90141,3
151.687, 73.00000,     90.97786,0.90114,3
152.229, 73.53333,     91.00408,0.90086,3
152.76, 74.06667,     91.02388,0.90059,3
153.303, 74.60000,     91.02388,0.90031,3
153.831, 75.13333,     91.05689,0.90003,3
154.371, 75.66667,     91.05689,0.89975,3
154.897, 76.20000,     91.05689,0.89947,3
155.425, 76.73333,     91.10971,0.89919,3
155.964, 77.26667,     91.08990,0.89890,3
156.503, 77.80000,     91.10311,0.89862,3
157.032, 78.33333,     91.10311,0.89833,3
157.568, 78.86667,     91.11612,0.89804,3
158.121, 79.40000,     91.13592,0.89774,3
158.642, 79.93333,     91.13592,0.89746,3
159.179, 80.46667,     91.14913,0.89717,3
159.705, 81.00000,     91.16893,0.89688,3
160.241, 81.53333,     91.16893,0.89658,3
160.767, 82.06667,     91.20854,0.89629,3
161.308, 82.60000,     91.22155,0.89599,3
161.83, 83.13333,     91.23476,0.89570,3
162.374, 83.66667,     91.24136,0.89539,3
162.907, 84.20000,     91.26777,0.89509,3
163.44, 84.73333,     91.26777,0.89479,3
163.976, 85.26667,     91.28757,0.89449,3
164.497, 85.80000,     91.27437,0.89419,3
165.04, 86.33333,     91.27437,0.89388,3
165.572, 86.86667,     91.32718,0.89358,3
166.098, 87.40000,     91.35340,0.89327,3
166.645, 87.93333,     91.35340,0.89296,3
167.172, 88.46667,     91.37981,0.89265,3
167.713, 89.00000,     91.38641,0.89233,3
168.243, 89.53333,     91.40621,0.89202,3
168.773, 90.06667,     91.41942,0.89171,3
169.295, 90.60000,     91.43262,0.89140,3
169.845, 91.13333,     91.44563,0.89108,3
170.374, 91.66667,     91.44563,0.89076,3
170.901, 92.20000,     91.47204,0.89045,3
171.431, 92.73333,     91.49845,0.89013,3
171.97, 93.26667,     91.49845,0.88981,3
172.51, 93.80000,     91.49845,0.88948,3
173.032, 94.33333,     91.50505,0.88916,3
173.573, 94.86667,     91.52485,0.88884,3
174.106, 95.40000,     91.51825,0.88851,3
174.628, 95.93333,     91.53806,0.88819,3
175.154, 96.46667,     91.55126,0.88787,3
175.694, 97.00000,     91.59068,0.88753,3
176.232, 97.53333,     91.56427,0.88720,3
176.767, 98.06667,     91.60388,0.88687,3
177.304, 98.60000,     91.61709,0.88653,3
177.825, 99.13333,     91.61709,0.88621,3
178.374, 99.66667,     91.61709,0.88586,3
178.908,100.2,     91.64350,0.88553,3
179.443,100.733,     91.66311,0.88519,3
179.981,101.267,     91.66311,0.88485,3
180.514,101.8,     91.66311,0.88451,3
181.043,102.333,     91.69612,0.88417,3
181.569,102.867,     91.70932,0.88383,3
182.097,103.4,     91.70932,0.88349,3
182.636,103.933,     91.70932,0.88315,3
183.17,104.467,     91.71592,0.88280,3
183.697,105,     91.74447,0.88246,3
184.237,105.533,     91.74447,0.88211,3
184.773,106.067,     91.77087,0.88176,3
185.313,106.6,     91.75107,0.88140,3
185.839,107.133,     91.77748,0.88106,3
186.373,107.667,     91.78408,0.88071,3
186.893,108.2,     91.80602,0.88036,3
187.44,108.733,     91.82583,0.88000,3
187.975,109.267,     91.82583,0.87964,3
188.496,109.8,     91.83243,0.87930,3
189.044,110.333,     91.85864,0.87893,3
189.567,110.867,     91.85864,0.87858,3
190.096,111.4,     91.88505,0.87822,3
190.633,111.933,     91.88505,0.87786,3
191.161,112.467,     91.90485,0.87750,3
191.701,113,     91.89165,0.87714,3
192.239,113.533,     91.91806,0.87677,3
192.756,114.067,     91.91806,0.87642,3
193.294,114.6,     91.92466,0.87605,3
193.833,115.133,     91.95107,0.87568,3
194.368,115.667,     91.97728,0.87531,3
194.886,116.2,     91.97068,0.87495,3
195.432,116.733,     91.99049,0.87457,3
195.968,117.267,     91.99709,0.87420,3
196.49,117.8,     92.01029,0.87384,3
197.026,118.333,     92.01029,0.87346,3
197.555,118.867,     92.02350,0.87309,3
198.099,119.4,     92.02350,0.87271,3
198.629,119.933,     92.06311,0.87234,3
199.161,120.467,     92.03670,0.87196,3
199.704,121,     92.08932,0.87158,3
200.238,121.533,     92.08932,0.87120,3
200.759,122.067,     92.10252,0.87083,3
201.299,122.6,     92.10913,0.87044,3
201.833,123.133,     92.10913,0.87006,3
202.365,123.667,     92.12893,0.86968,3
202.896,124.2,     92.12893,0.86930,3
203.445,124.733,     92.16854,0.86890,3
203.965,125.267,     92.16194,0.86853,3
204.51,125.8,     92.18155,0.86813,3
205.034,126.333,     92.18155,0.86775,3
205.58,126.867,     92.19922,0.86736,3
206.104,127.4,     92.21903,0.86697,3
206.624,127.933,     92.23223,0.86659,3
207.155,128.467,     92.21903,0.86620,3
207.689,129,     92.24544,0.86581,3
208.223,129.533,     92.24544,0.86542,3
208.769,130.067,     92.27165,0.86502,3
209.303,130.6,     92.29806,0.86462,3
209.854,131.133,     92.29592,0.86421,3
210.373,131.667,     92.29592,0.86383,3
210.904,132.2,     92.29592,0.86343,3
211.415,132.733,     92.34194,0.86305,3
211.959,133.267,     92.34194,0.86264,3
212.503,133.8,     92.34194,0.86223,3
213.032,134.333,     92.32874,0.86184,3
213.563,134.867,     92.35515,0.86144,3
214.095,135.4,     92.35515,0.86103,3
214.634,135.933,     92.35515,0.86063,3
215.165,136.467,     92.37495,0.86022,3
215.69,137,     92.40136,0.85982,3
216.243,137.533,     92.41456,0.85940,3
216.766,138.067,     92.42777,0.85900,3
217.296,138.6,     92.42777,0.85860,3
217.828,139.133,     92.42777,0.85819,3
218.365,139.667,     92.45398,0.85778,3
218.904,140.2,     92.46718,0.85736,3
219.432,140.733,     92.46718,0.85695,3
219.969,141.267,     92.49359,0.85654,3
220.492,141.8,     92.49359,0.85613,3
221.026,142.333,     92.52000,0.85572,3
221.565,142.867,     92.50680,0.85530,3
222.093,143.4,     92.50680,0.85489,3
222.612,143.933,     92.52660,0.85448,3
223.154,144.467,     92.52660,0.85406,3
223.697,145,     92.52000,0.85363,3
224.223,145.533,     92.54621,0.85322,3
224.761,146.067,     92.54621,0.85280,3
225.303,146.6,     92.56602,0.85237,3
225.834,147.133,     92.56602,0.85195,3
226.373,147.667,     92.56602,0.85152,3
226.896,148.2,     92.56602,0.85111,3
227.419,148.733,     92.59456,0.85069,3
227.979,149.267,     92.57495,0.85025,3
228.489,149.8,     92.60777,0.84984,3
229.029,150.333,     92.62097,0.84941,3
229.552,150.867,     92.62097,0.84899,3
230.097,151.4,     92.60117,0.84855,3
230.619,151.933,     92.62757,0.84813,3
231.156,152.467,     92.62757,0.84770,3
231.702,153,     92.61437,0.84726,3
232.234,153.533,     92.64078,0.84683,3
232.762,154.067,     92.64078,0.84640,3
233.304,154.6,     92.66718,0.84596,3
233.829,155.133,     92.69340,0.84554,3
234.357,155.667,     92.66718,0.84511,3
234.901,156.2,     92.66718,0.84466,3
235.419,156.733,     92.69340,0.84424,3
235.969,157.267,     92.71320,0.84379,3
236.496,157.8,     92.71320,0.84336,3
237.035,158.333,     92.71320,0.84292,3
237.56,158.867,     92.68466,0.84248,3
238.097,159.4,     92.71107,0.84204,3
238.625,159.933,     92.75068,0.84161,3
239.154,160.467,     92.74408,0.84117,3
239.687,161,     92.72427,0.84073,3
240.21,161.533,     92.75068,0.84030,3
240.747,162.067,     92.77029,0.83985,3
241.298,162.6,     92.76369,0.83939,3
241.826,163.133,     92.79010,0.83895,3
242.357,163.667,     92.80330,0.83851,3
242.892,164.2,     92.80330,0.83806,3
243.421,164.733,     92.79010,0.83762,3
243.948,165.267,     92.81650,0.83718,3
244.486,165.8,     92.80990,0.83673,3
245.02,166.333,     92.83631,0.83628,3
245.569,166.867,     92.83631,0.83582,3
246.093,167.4,     92.82311,0.83538,3
246.609,167.933,     92.81650,0.83494,3
247.151,168.467,     92.86932,0.83448,3
247.684,169,     92.84291,0.83403,3
248.212,169.533,     92.86272,0.83358,3
248.752,170.067,     92.84951,0.83313,3
249.282,170.6,     92.84951,0.83268,3
249.831,171.133,     92.86932,0.83221,3
250.344,171.667,     92.88893,0.83177,3
250.887,172.2,     92.88893,0.83131,3
251.417,172.733,     92.86272,0.83086,3
251.953,173.267,     92.86272,0.83040,3
252.487,173.8,     92.87573,0.82994,3
253.015,174.333,     92.88233,0.82949,3
253.564,174.867,     92.87573,0.82901,3
254.084,175.4,     92.87573,0.82857,3
254.617,175.933,     92.90000,0.82811,3
255.144,176.467,     92.90000,0.82765,3
255.676,177,     92.91981,0.82719,3
256.215,177.533,     92.89340,0.82673,3
256.751,178.067,     92.89340,0.82626,3
257.281,178.6,     92.91981,0.82580,3
257.825,179.133,     92.91981,0.82533,3
258.367,179.667,     92.90660,0.82486,3
258.889,180.2,     92.90660,0.82441,3
259.426,180.733,     92.93301,0.82394,3
259.956,181.267,     92.93301,0.82348,3
260.483,181.8,     92.93301,0.82302,3
261.016,182.333,     92.95922,0.82255,3
261.556,182.867,     92.93301,0.82208,3
262.098,183.4,     92.93068,0.82160,3
262.627,183.933,     92.93068,0.82114,3
263.152,184.467,     92.95709,0.82068,3
263.684,185,     92.93068,0.82021,3
264.211,185.533,     92.93728,0.81974,3
264.753,186.067,     92.94388,0.81927,3
265.289,186.6,     92.94388,0.81879,3
265.823,187.133,     92.95709,0.81832,3
266.351,187.667,     92.95709,0.81786,3
266.876,188.2,     92.93728,0.81739,3
267.414,188.733,     92.96369,0.81691,3
267.949,189.267,     92.96369,0.81644,3
268.491,189.8,     92.96369,0.81596,3
269.019,190.333,     92.93728,0.81549,3
269.55,190.867,     92.94835,0.81501,3
270.092,191.4,     92.96155,0.81453,3
270.616,191.933,     92.94835,0.81406,3
271.153,192.467,     92.94175,0.81358,3
271.672,193,     92.94175,0.81312,3
272.212,193.533,     92.96155,0.81264,3
272.757,194.067,     92.93515,0.81215,3
273.284,194.6,     92.94835,0.81168,3
273.817,195.133,     92.92854,0.81120,3
274.351,195.667,     92.95495,0.81072,3
274.877,196.2,     92.92854,0.81025,3
275.403,196.733,     92.93515,0.80977,3
275.945,197.267,     92.93515,0.80928,3
276.473,197.8,     92.90874,0.80881,3
277.013,198.333,     92.94175,0.80832,3
277.55,198.867,     92.91534,0.80784,3
278.074,199.4,     92.91534,0.80736,3
278.595,199.933,     92.93515,0.80689,3
279.137,200.467,     92.91534,0.80640,3
279.666,201,     92.91534,0.80592,3
280.211,201.533,     92.92194,0.80543,3
280.74,202.067,     92.89553,0.80495,3
281.268,202.6,     92.92194,0.80447,3
281.789,203.133,     92.92194,0.80399,3
282.341,203.667,     92.90214,0.80349,3
282.873,204.2,     92.90214,0.80300,3
283.415,204.733,     92.91534,0.80251,3
283.94,205.267,     92.90214,0.80203,3
284.465,205.8,     92.90214,0.80155,3
284.999,206.333,     92.90214,0.80106,3
285.55,206.867,     92.87573,0.80056,3
286.057,207.4,     92.90214,0.80010,3
286.603,207.933,     92.87573,0.79960,3
287.137,208.467,     92.87573,0.79911,3
287.664,209,     92.86932,0.79862,3
288.2,209.533,     92.86932,0.79813,3
288.731,210.067,     92.84291,0.79764,3
289.272,210.6,     92.86272,0.79714,3
289.789,211.133,     92.86272,0.79667,3
290.318,211.667,     92.86272,0.79618,3
290.856,212.2,     92.81650,0.79568,3
291.391,212.733,     92.84291,0.79519,3
291.922,213.267,     92.84951,0.79470,3
292.461,213.8,     92.83631,0.79420,3
292.993,214.333,     92.83631,0.79371,3
293.517,214.867,     92.82971,0.79323,3
294.073,215.4,     92.81650,0.79271,3
294.597,215.933,     92.80990,0.79223,3
295.132,216.467,     92.79903,0.79173,3
295.667,217,     92.78583,0.79124,3
296.207,217.533,     92.81204,0.79073,3
296.732,218.067,     92.77029,0.79025,3
297.284,218.6,     92.77689,0.78973,3
297.805,219.133,     92.77029,0.78925,3
298.346,219.667,     92.75728,0.78875,3
298.881,220.2,     92.74408,0.78825,3
299.406,220.733,     92.73748,0.78776,3
299.933,221.267,     92.74835,0.78727,3
300.463,221.8,     92.72214,0.78677,3
301,222.333,     92.73515,0.78627,3
301.535,222.867,     92.71553,0.78577,3
302.073,223.4,     92.70233,0.78527,3
302.606,223.933,     92.70233,0.78477,3
303.135,224.467,     92.70233,0.78428,3
303.67,225,     92.67592,0.78378,3
304.191,225.533,     92.66272,0.78329,3
304.731,226.067,     92.64951,0.78279,3
305.275,226.6,     92.65612,0.78228,3
305.805,227.133,     92.61650,0.78178,3
306.328,227.667,     92.61650,0.78129,3
306.859,228.2,     92.59029,0.78079,3
307.413,228.733,     92.59689,0.78027,3
307.93,229.267,     92.57049,0.77978,3
308.47,229.8,     92.57049,0.77928,3
309.006,230.333,     92.57049,0.77877,3
309.531,230.867,     92.55728,0.77828,3
310.08,231.4,     92.52427,0.77776,3
310.614,231.933,     92.52427,0.77726,3
311.143,232.467,     92.52427,0.77676,3
311.667,233,     92.50466,0.77627,3
312.2,233.533,     92.49146,0.77577,3
312.731,234.067,     92.46505,0.77527,3
313.264,234.6,     92.45845,0.77476,3
313.807,235.133,     92.45184,0.77425,3
314.338,235.667,     92.41883,0.77375,3
314.866,236.2,     92.39903,0.77325,3
315.41,236.733,     92.37942,0.77274,3
315.937,237.267,     92.37942,0.77224,3
316.483,237.8,     92.35961,0.77172,3
317.011,238.333,     92.33320,0.77122,3
317.548,238.867,     92.30019,0.77071,3
318.089,239.4,     92.30019,0.77020,3
318.617,239.933,     92.27398,0.76970,3
319.145,240.467,     92.27398,0.76920,3
319.68,241,     92.24097,0.76870,3
320.215,241.533,     92.22117,0.76819,3
320.743,242.067,     92.19476,0.76769,3
321.28,242.6,     92.19476,0.76718,3
321.805,243.133,     92.16854,0.76668,3
322.331,243.667,     92.14214,0.76618,3
322.864,244.2,     92.11573,0.76568,3
323.4,244.733,     92.08932,0.76517,3
323.942,245.267,     92.03670,0.76465,3
324.484,245.8,     92.04990,0.76414,3
325.015,246.333,     91.99709,0.76363,3
325.536,246.867,     91.94447,0.76314,3
326.07,247.4,     91.94447,0.76263,3
326.605,247.933,     91.91592,0.76212,3
327.13,248.467,     91.88291,0.76162,3
327.67,249,     91.85437,0.76111,3
328.202,249.533,     91.80155,0.76060,3
328.74,250.067,     91.80155,0.76009,3
329.284,250.6,     91.74893,0.75957,3
329.812,251.133,     91.69612,0.75907,3
330.346,251.667,     91.69612,0.75856,3
330.885,252.2,     91.64350,0.75805,3
331.392,252.733,     91.61709,0.75757,3
331.935,253.267,     91.56427,0.75705,3
332.473,253.8,     91.51165,0.75654,3
333.008,254.333,     91.48524,0.75603,3
333.551,254.867,     91.41942,0.75551,3
334.084,255.4,     91.37981,0.75500,3
334.595,255.933,     91.35340,0.75451,3
335.128,256.467,     91.29845,0.75401,3
335.66,257,     91.21942,0.75350,3
336.211,257.533,     91.19301,0.75297,3
336.738,258.067,     91.08757,0.75247,3
337.277,258.6,     91.04155,0.75196,3
337.806,259.133,     90.99534,0.75145,3
338.343,259.667,     90.90757,0.75094,3
338.875,260.2,     90.81961,0.75043,3
339.413,260.733,     90.74058,0.74992,3
339.932,261.267,     90.70757,0.74942,3
340.476,261.8,     90.61748,0.74890,3
341.009,262.333,     90.51204,0.74840,3
341.54,262.867,     90.44621,0.74789,3
342.069,263.4,     90.36718,0.74738,3
342.609,263.933,     90.26175,0.74687,3
343.14,264.467,     90.15631,0.74636,3
343.657,265,     90.04854,0.74587,3
344.209,265.533,     89.94311,0.74534,3
344.733,266.067,     89.81126,0.74484,3
345.273,266.6,     89.70155,0.74433,3
345.793,267.133,     89.56971,0.74383,3
346.323,267.667,     89.43786,0.74332,3
346.866,268.2,     89.30602,0.74280,3
347.412,268.733,     89.14136,0.74228,3
347.932,269.267,     89.01398,0.74179,3
348.465,269.8,     88.82058,0.74128,3
348.999,270.333,     88.63379,0.74077,3
349.531,270.867,     88.44485,0.74026,3
350.066,271.4,     88.32621,0.73975,3
350.609,271.933,     88.15049,0.73923,3
351.144,272.467,     87.91767,0.73872,3
351.68,273,     87.71786,0.73821,3
352.201,273.533,     87.44757,0.73771,3
352.73,274.067,     87.19495,0.73721,3
353.26,274.6,     86.89612,0.73670,3
353.791,275.133,     86.65903,0.73619,3
354.326,275.667,     86.32718,0.73568,3
354.862,276.2,     85.96039,0.73517,3
355.391,276.733,     85.67476,0.73467,3
355.93,277.267,     85.33204,0.73415,3
356.467,277.8,     84.94330,0.73364,3
356.995,278.333,     84.54777,0.73314,3
357.529,278.867,     84.15456,0.73263,3
358.068,279.4,     83.65165,0.73212,3
358.61,279.933,     83.19689,0.73160,3
359.13,280.467,     82.67184,0.73110,3
359.658,281,     82.15767,0.73060,3
360.192,281.533,     81.60408,0.73009,3
360.733,282.067,     80.99786,0.72958,3
361.257,282.6,     80.38505,0.72908,3
361.785,283.133,     79.73689,0.72857,3
362.318,283.667,     79.03398,0.72807,3
362.86,284.2,     78.33320,0.72755,3
363.401,284.733,     77.58854,0.72703,3
363.935,285.267,     76.81087,0.72653,3
364.464,285.8,     76.00233,0.72602,3
364.996,286.333,     75.13689,0.72552,3
365.518,286.867,     74.26913,0.72502,3
366.063,287.4,     73.34427,0.72450,3
366.597,287.933,     72.36893,0.72399,3
367.125,288.467,     71.29689,0.72349,3
367.658,289,     70.19845,0.72299,3
368.201,289.533,     69.10680,0.72247,3
368.726,290.067,     67.94893,0.72197,3
369.265,290.6,     66.75612,0.72146,3
369.796,291.133,     65.51942,0.72096,3
370.313,291.667,     64.20350,0.72046,3
370.85,292.2,     62.81068,0.71996,3
371.392,292.733,     61.39825,0.71944,3
371.929,293.267,     59.93515,0.71893,3
372.468,293.8,     58.39961,0.71842,3
372.994,294.333,     56.78718,0.71792,3
373.526,294.867,     55.14408,0.71742,3
374.054,295.4,     53.53825,0.71692,3
374.576,295.933,     51.88835,0.71642,3
375.123,296.467,     50.15515,0.71591,3
375.654,297,     48.38019,0.71540,3
376.183,297.533,     46.61398,0.71490,3
376.714,298.067,     44.79282,0.71440,3
377.251,298.6,     42.97612,0.71389,3
377.79,299.133,     41.06485,0.71338,3
378.325,299.667,     39.23709,0.71288,3
378.853,300.2,     37.38311,0.71238,3
379.386,300.733,     35.50699,0.71187,3
379.925,301.267,     33.63534,0.71137,3
380.456,301.8,     31.70874,0.71086,3
380.987,302.333,     29.84155,0.71036,3
381.525,302.867,     27.98311,0.70986,3
382.057,303.4,     26.16194,0.70936,3
382.584,303.933,     24.36718,0.70886,3
383.133,304.467,     22.58350,0.70834,3
383.67,305,     20.85456,0.70784,3
384.196,305.533,     19.22019,0.70734,3
384.729,306.067,     17.59456,0.70684,3
385.26,306.6,     15.99301,0.70634,3
385.793,307.133,     14.50583,0.70584,3
386.325,307.667,     13.07573,0.70534,3
386.862,308.2,     11.70058,0.70483,3
387.402,308.733,     10.39573,0.70433,3
387.942,309.267,      9.18311,0.70382,3
388.472,309.8,      8.01437,0.70332,3
389.008,310.333,      6.96427,0.70282,3
389.547,310.867,      5.97359,0.70232,3
390.079,311.4,      5.03126,0.70182,3
390.615,311.933,      4.16136,0.70131,3
391.134,312.467,      3.37922,0.70083,3
391.658,313,      2.69165,0.70034,3
392.198,313.533,      2.03922,0.69983,3
392.738,314.067,      1.44816,0.69933,3
393.276,314.6,      0.91670,0.69883,3
393.801,315.133,      0.43340,0.69834,3
394.333,315.667,-3.009709e-02,0.69784,3
394.86,316.2,     -0.41456,0.69735,3
395.4,316.733,     -0.78583,0.69684,3
395.938,317.267,     -1.09553,0.69634,3
396.468,317.8,     -1.36583,0.69585,3
397.006,318.333,     -1.59437,0.69535,3
397.531,318.867,     -1.79631,0.69486,3
398.069,319.4,     -2.01379,0.69436,3
398.589,319.933,     -2.19184,0.69388,3
399.117,320.467,     -2.34330,0.69338,3
399.603,320.938,     -2.46854,0.69293,4
399.639,320.978,     -2.46854,0.69290,4
399.691,321.018,     -2.49495,0.69285,4
399.757,321.058,     -2.49495,0.69279,4
399.839,321.098,     -2.49495,0.69271,4
399.94,321.138,     -2.49495,0.69262,4
400.071,321.178,     -2.49495,0.69250,4
400.25,321.218,     -2.49495,0.69233,4
400.451,321.258,     -2.46854,0.69215,4
400.7,321.298,     -2.43786,0.69192,4
400.984,321.338,     -2.39165,0.69165,4
401.319,321.378,     -2.34330,0.69134,4
401.683,321.418,     -2.31476,0.69100,4
402.103,321.458,     -2.25767,0.69062,4
402.563,321.498,     -2.21592,0.69019,4
403.063,321.538,     -2.16544,0.68973,4
403.607,321.578,     -2.11709,0.68922,4
404.188,321.618,     -2.07534,0.68869,4
404.809,321.658,     -2.00951,0.68811,4
405.458,321.698,     -1.96990,0.68751,4
406.151,321.738,     -1.91495,0.68687,4
406.856,321.778,     -1.88427,0.68622,4
407.595,321.818,     -1.84699,0.68554,4
408.342,321.858,     -1.79204,0.68486,4
409.113,321.898,     -1.76117,0.68415,4
409.907,321.938,     -1.75456,0.68342,4
410.699,321.978,     -1.71068,0.68269,4
411.51,322.018,     -1.70194,0.68195,4
412.331,322.058,     -1.67553,0.68120,4
413.144,322.098,     -1.64913,0.68045,4
413.961,322.138,     -1.62058,0.67971,4
414.773,322.178,     -1.61398,0.67896,4
415.589,322.218,     -1.59437,0.67822,4
416.396,322.258,     -1.59437,0.67748,4
417.204,322.298,     -1.59437,0.67675,4
417.979,322.338,     -1.59437,0.67604,4
418.753,322.378,     -1.56796,0.67534,4
419.527,322.418,     -1.56796,0.67464,4
420.285,322.458,     -1.56796,0.67395,4
421.029,322.498,     -1.59437,0.67328,4
421.769,322.538,     -1.59437,0.67261,4
422.492,322.578,     -1.62058,0.67195,4
423.204,322.618,     -1.63379,0.67131,4
423.914,322.658,     -1.64699,0.67067,4
424.612,322.698,     -1.67340,0.67004,4
425.3,322.738,     -1.67340,0.66942,4
425.978,322.778,     -1.67340,0.66881,4
426.665,322.818,     -1.68000,0.66819,4
427.329,322.858,     -1.70194,0.66760,4
427.994,322.898,     -1.72835,0.66700,4
428.649,322.938,     -1.75456,0.66642,4
429.304,322.978,     -1.75456,0.66583,4
429.958,323.018,     -1.78097,0.66524,4
430.626,323.058,     -1.78097,0.66465,4
431.296,323.098,     -1.78097,0.66405,4
431.948,323.138,     -1.78757,0.66347,4
432.615,323.178,     -1.80738,0.66287,4
433.282,323.218,     -1.80738,0.66228,4
433.954,323.258,     -1.80738,0.66168,4
434.646,323.298,     -1.82718,0.66107,4
435.336,323.338,     -1.82718,0.66046,4
436.029,323.378,     -1.82718,0.65984,4
436.737,323.418,     -1.82718,0.65922,4
437.448,323.458,     -1.82718,0.65859,4
438.172,323.498,     -1.83379,0.65795,4
438.884,323.538,     -1.83379,0.65732,4
439.615,323.578,     -1.83379,0.65668,4
440.362,323.618,     -1.83379,0.65602,4
441.113,323.658,     -1.83379,0.65536,4
441.873,323.698,     -1.83379,0.65469,4
442.634,323.738,     -1.83379,0.65403,4
443.406,323.778,     -1.84039,0.65335,4
444.188,323.818,     -1.84039,0.65267,4
444.97,323.858,     -1.84039,0.65198,4
445.773,323.898,     -1.85359,0.65128,4
446.561,323.938,     -1.85359,0.65060,4
447.362,323.978,     -1.85359,0.64990,4
448.17,324.018,     -1.85359,0.64920,4
448.984,324.058,     -1.85359,0.64849,4
449.813,324.098,     -1.82718,0.64777,4
450.639,324.138,     -1.82718,0.64706,4
451.447,324.178,     -1.82718,0.64636,4
452.274,324.218,     -1.82718,0.64565,4
453.099,324.258,     -1.85359,0.64494,4
453.943,324.298,     -1.85359,0.64421,4
454.757,324.338,     -1.85359,0.64352,4
455.579,324.378,     -1.85359,0.64281,4
456.424,324.418,     -1.85359,0.64209,4
457.25,324.458,     -1.82718,0.64138,4
458.084,324.498,     -1.82718,0.64067,4
458.913,324.538,     -1.82718,0.63997,4
459.738,324.578,     -1.85359,0.63926,4
460.578,324.618,     -1.85359,0.63855,4
461.402,324.658,     -1.87981,0.63785,4
462.232,324.698,     -1.87981,0.63715,4
463.061,324.738,     -1.87981,0.63645,4
463.882,324.778,     -1.87981,0.63576,4
464.703,324.818,     -1.87981,0.63507,4
465.538,324.858,     -1.87981,0.63437,4
466.362,324.898,     -1.87981,0.63367,4
467.179,324.938,     -1.87981,0.63299,4
468.002,324.978,     -1.87981,0.63230,4
468.823,325.018,     -1.87981,0.63162,4
469.654,325.058,     -1.87981,0.63092,4
470.474,325.098,     -1.87981,0.63024,4
471.302,325.138,     -1.87981,0.62955,4
472.126,325.178,     -1.87981,0.62887,4
472.956,325.218,     -1.90621,0.62818,4
473.78,325.258,     -1.90621,0.62750,4
474.601,325.298,     -1.87981,0.62682,4
475.43,325.338,     -1.87981,0.62614,4
476.253,325.378,     -1.87981,0.62546,4
477.09,325.418,     -1.87981,0.62478,4
477.91,325.458,     -1.87981,0.62410,4
478.754,325.498,     -1.87981,0.62341,4
479.568,325.538,     -1.87981,0.62275,4
480.404,325.578,     -1.87981,0.62207,4
481.226,325.618,     -1.87981,0.62140,4
482.064,325.658,     -1.87981,0.62072,4
482.9,325.698,     -1.87981,0.62004,4
483.742,325.738,     -1.86000,0.61936,4
484.573,325.778,     -1.85359,0.61869,4
485.407,325.818,     -1.85359,0.61802,4
486.25,325.858,     -1.82718,0.61734,4
487.09,325.898,     -1.82718,0.61666,4
487.924,325.938,     -1.82718,0.61599,4
488.762,325.978,     -1.82718,0.61532,4
489.601,326.018,     -1.80078,0.61465,4
490.435,326.058,     -1.80078,0.61399,4
491.282,326.098,     -1.80078,0.61332,4
492.123,326.138,     -1.80078,0.61265,4
492.964,326.178,     -1.79417,0.61198,4
493.81,326.218,     -1.77437,0.61131,4
494.654,326.258,     -1.77437,0.61065,4
495.495,326.298,     -1.74796,0.60998,4
496.324,326.338,     -1.74796,0.60933,4
497.17,326.378,     -1.74796,0.60867,4
498.015,326.418,     -1.74796,0.60801,4
498.859,326.458,     -1.72175,0.60735,4
499.696,326.498,     -1.72175,0.60669,4
500.54,326.538,     -1.72175,0.60604,4
501.383,326.578,     -1.69534,0.60538,4
502.226,326.618,     -1.69534,0.60473,4
503.07,326.658,     -1.69534,0.60408,4
503.908,326.698,     -1.69534,0.60343,4
504.737,326.738,     -1.69534,0.60279,4
505.58,326.778,     -1.69534,0.60214,4
506.425,326.818,     -1.68874,0.60149,4
507.277,326.858,     -1.66893,0.60084,4
508.111,326.898,     -1.66893,0.60020,4
508.953,326.938,     -1.64252,0.59956,4
509.78,326.978,     -1.61631,0.59893,4
510.631,327.018,     -1.61631,0.59829,4
511.461,327.058,     -1.61631,0.59766,4
512.305,327.098,     -1.61631,0.59702,4
513.14,327.138,     -1.61631,0.59639,4
513.972,327.178,     -1.61631,0.59576,4
514.816,327.218,     -1.61631,0.59513,4
515.652,327.258,     -1.61631,0.59450,4
516.49,327.298,     -1.58777,0.59387,4
517.336,327.338,     -1.56136,0.59324,4
518.17,327.378,     -1.58777,0.59262,4
519,327.418,     -1.58777,0.59200,4
519.841,327.458,     -1.56796,0.59138,4
520.68,327.498,     -1.56796,0.59076,4
521.515,327.538,     -1.56796,0.59014,4
522.347,327.578,     -1.56136,0.58953,4
523.193,327.618,     -1.53495,0.58891,4
524.027,327.658,     -1.50854,0.58829,4
524.864,327.698,     -1.50854,0.58768,4
525.696,327.738,     -1.50854,0.58707,4
526.526,327.778,     -1.50854,0.58647,4
527.372,327.818,     -1.48233,0.58585,4
528.199,327.858,     -1.48233,0.58525,4
529.045,327.898,     -1.48233,0.58464,4
529.86,327.938,     -1.48233,0.58405,4
530.696,327.978,     -1.48233,0.58345,4
531.534,328.018,     -1.46913,0.58285,4
532.365,328.058,     -1.45592,0.58225,4
533.205,328.098,     -1.42951,0.58165,4
534.037,328.138,     -1.42951,0.58105,4
534.865,328.178,     -1.45592,0.58046,4
535.696,328.218,     -1.45592,0.57987,4
536.535,328.258,     -1.42951,0.57928,4
537.365,328.298,     -1.42951,0.57869,4
538.192,328.338,     -1.40311,0.57810,4
539.032,328.378,     -1.40311,0.57751,4
539.863,328.418,     -1.37689,0.57693,4
540.691,328.458,     -1.37689,0.57635,4
541.532,328.498,     -1.37689,0.57576,4
542.354,328.538,     -1.37689,0.57518,4
543.195,328.578,     -1.35049,0.57460,4
544.014,328.618,     -1.35049,0.57403,4
544.844,328.658,     -1.35049,0.57345,4
545.676,328.698,     -1.35049,0.57288,4
546.504,328.738,     -1.35049,0.57231,4
547.344,328.778,     -1.32408,0.57173,4
548.174,328.818,     -1.32408,0.57116,4
548.989,328.858,     -1.32408,0.57060,4
549.82,328.898,     -1.32408,0.57003,4
550.656,328.938,     -1.29767,0.56946,4
551.484,328.978,     -1.29767,0.56889,4
552.3,329.018,     -1.29767,0.56834,4
553.133,329.058,     -1.27126,0.56778,4
553.958,329.098,     -1.27126,0.56722,4
554.796,329.138,     -1.27126,0.56665,4
555.627,329.178,     -1.27126,0.56609,4
556.45,329.218,     -1.27126,0.56554,4
557.273,329.258,     -1.27126,0.56499,4
558.109,329.298,     -1.24505,0.56443,4
558.932,329.338,     -1.24505,0.56388,4
559.767,329.378,     -1.24505,0.56333,4
560.582,329.418,     -1.21864,0.56279,4
561.411,329.458,     -1.21864,0.56224,4
562.247,329.498,     -1.21204,0.56169,4
563.073,329.538,     -1.19223,0.56114,4
563.89,329.578,     -1.19223,0.56060,4
564.714,329.618,     -1.19223,0.56006,4
565.548,329.658,     -1.19223,0.55952,4
566.378,329.698,     -1.19223,0.55898,4
567.211,329.738,     -1.19223,0.55843,4
568.018,329.778,     -1.16583,0.55791,4
568.852,329.818,     -1.16583,0.55737,4
569.675,329.858,     -1.16583,0.55684,4
570.506,329.898,     -1.15282,0.55630,4
571.317,329.938,     -1.13961,0.55578,4
572.152,329.978,     -1.13961,0.55525,4
572.981,330.018,     -1.13961,0.55471,4
573.805,330.058,     -1.11981,0.55419,4
574.633,330.098,     -1.11320,0.55366,4
575.451,330.138,     -1.11320,0.55314,4
576.278,330.178,     -1.09340,0.55262,4
577.1,330.218,     -1.09340,0.55210,4
577.925,330.258,     -1.09340,0.55158,4
578.754,330.298,     -1.09340,0.55105,4
579.575,330.338,     -1.09340,0.55054,4
580.391,330.378,     -1.08680,0.55003,4
581.224,330.418,     -1.07359,0.54951,4
582.04,330.458,     -1.06039,0.54900,4
582.865,330.498,     -1.06039,0.54849,4
583.682,330.538,     -1.06039,0.54798,4
584.505,330.578,     -1.06039,0.54747,4
585.326,330.618,     -1.03417,0.54696,4
586.151,330.658,     -1.03417,0.54646,4
586.978,330.698,     -1.03417,0.54595,4
587.791,330.738,     -1.03417,0.54545,4
588.607,330.778,     -1.05379,0.54495,4
589.435,330.818,     -1.05379,0.54445,4
590.25,330.858,     -1.02311,0.54395,4
591.073,330.898,     -0.99670,0.54345,4
591.896,330.938,     -0.99670,0.54295,4
592.718,330.978,     -0.99670,0.54246,4
593.533,331.018,     -0.99670,0.54196,4
594.347,331.058,     -0.99670,0.54148,4
595.177,331.098,     -0.99670,0.54098,4
595.994,331.138,     -0.99670,0.54049,4
596.82,331.178,     -0.97049,0.54000,4
597.629,331.218,     -0.97049,0.53951,4
598.451,331.258,     -0.97049,0.53903,4
599.278,331.298,     -0.97049,0.53854,4
600.095,331.338,     -0.97049,0.53805,4
600.912,331.378,     -0.97049,0.53757,4
601.73,331.418,     -0.94408,0.53709,4
602.545,331.458,     -0.94408,0.53661,4
603.371,331.498,     -0.94408,0.53613,4
604.181,331.538,     -0.94408,0.53566,4
605.003,331.578,     -0.94408,0.53518,4
605.821,331.618,     -0.94408,0.53470,4
606.652,331.658,     -0.94408,0.53422,4
607.467,331.698,     -0.94408,0.53375,4
608.275,331.738,     -0.94408,0.53328,4
609.091,331.778,     -0.94408,0.53281,4
609.911,331.818,     -0.93087,0.53234,4
610.724,331.858,     -0.93087,0.53188,4
611.556,331.898,     -0.93087,0.53140,4
612.365,331.938,     -0.93087,0.53094,4
613.18,331.978,     -0.93087,0.53048,4
613.992,332.018,     -0.93087,0.53002,4
614.812,332.058,     -0.93087,0.52955,4
615.646,332.098,     -0.93087,0.52908,4
616.457,332.138,     -0.93087,0.52863,4
617.263,332.178,     -0.93087,0.52818,4
618.08,332.218,     -0.93087,0.52772,4
618.898,332.258,     -0.91767,0.52726,4
619.723,332.298,     -0.91767,0.52680,4
620.531,332.338,     -0.91767,0.52635,4
621.342,332.378,     -0.91767,0.52590,4
622.155,332.418,     -0.91767,0.52545,4
622.977,332.458,     -0.91767,0.52500,4
623.785,332.498,     -0.91767,0.52455,4
624.606,332.538,     -0.91767,0.52410,4
625.424,332.578,     -0.94408,0.52365,4
626.237,332.618,     -0.91767,0.52321,4
627.045,332.658,     -0.91767,0.52277,4
627.865,332.698,     -0.91767,0.52232,4
628.684,332.738,     -0.91107,0.52187,4
629.489,332.778,     -0.91107,0.52144,4
630.295,332.818,     -0.91107,0.52100,4
631.12,332.858,     -0.91107,0.52056,4
631.942,332.898,     -0.91107,0.52012,4
632.745,332.938,     -0.91107,0.51968,4
633.576,332.978,     -0.93748,0.51924,4
634.381,333.018,     -0.93748,0.51881,4
635.187,333.058,     -0.93748,0.51838,4
636.009,333.098,     -0.93748,0.51794,4
636.82,333.138,     -0.92427,0.51751,4
637.629,333.178,     -0.92427,0.51708,4
638.441,333.218,     -0.91107,0.51665,4
639.246,333.258,     -0.91107,0.51623,4
640.074,333.298,     -0.91107,0.51579,4
640.896,333.338,     -0.91107,0.51536,4
641.701,333.378,     -0.91107,0.51494,4
642.507,333.418,     -0.91107,0.51452,4
643.32,333.458,     -0.91107,0.51410,4
644.138,333.498,     -0.91107,0.51367,4
644.956,333.538,     -0.89126,0.51325,4
645.767,333.578,     -0.89126,0.51283,4
646.582,333.618,     -0.89126,0.51241,4
647.391,333.658,     -0.89126,0.51199,4
648.193,333.698,     -0.88466,0.51158,4
649.013,333.738,     -0.88466,0.51116,4
649.827,333.778,     -0.85845,0.51074,4
650.629,333.818,     -0.85845,0.51033,4
651.44,333.858,     -0.85845,0.50992,4
652.245,333.898,     -0.85845,0.50951,4
653.055,333.938,     -0.85845,0.50910,4
653.867,333.978,     -0.85845,0.50869,4
654.673,334.018,     -0.85184,0.50828,4
655.485,334.058,     -0.83204,0.50787,4
656.29,334.098,     -0.83204,0.50747,4
657.096,334.138,     -0.81223,0.50707,4
657.907,334.178,     -0.80563,0.50666,4
658.72,334.218,     -0.80563,0.50625,4
659.517,334.258,     -0.78583,0.50586,4
660.337,334.298,     -0.78583,0.50545,4
661.149,334.338,     -0.78583,0.50505,4
661.949,334.378,     -0.78583,0.50465,4
662.751,334.418,     -0.78583,0.50425,4
663.563,334.458,     -0.78583,0.50385,4
664.377,334.498,     -0.77922,0.50345,4
665.193,334.538,     -0.75301,0.50305,4
665.995,334.578,     -0.75301,0.50266,4
666.805,334.618,     -0.72660,0.50227,4
667.622,334.658,     -0.72660,0.50187,4
668.428,334.698,     -0.72660,0.50147,4
669.242,334.738,     -0.72660,0.50108,4
670.055,334.778,     -0.70019,0.50069,4
670.864,334.818,     -0.70019,0.50029,4
671.676,334.858,     -0.70019,0.49990,4
672.497,334.898,     -0.70019,0.49951,4
673.308,334.938,     -0.70019,0.49912,4
674.11,334.978,     -0.67379,0.49873,4
674.918,335.018,     -0.67379,0.49835,4
675.729,335.058,     -0.67379,0.49796,4
676.537,335.098,     -0.66058,0.49757,4
677.361,335.138,     -0.66058,0.49718,4
678.161,335.178,     -0.66058,0.49680,4
678.971,335.218,     -0.66058,0.49642,4
679.784,335.258,     -0.64738,0.49603,4
680.598,335.298,     -0.64738,0.49565,4
681.412,335.338,     -0.63437,0.49527,4
682.214,335.378,     -0.62117,0.49489,4
683.028,335.418,     -0.62117,0.49451,4
683.839,335.458,     -0.62117,0.49413,4
684.647,335.498,     -0.62117,0.49375,4
685.466,335.538,     -0.62117,0.49337,4
686.264,335.578,     -0.62117,0.49300,4
687.08,335.618,     -0.59476,0.49262,4
687.893,335.658,     -0.58816,0.49224,4
688.701,335.698,     -0.56835,0.49187,4
689.513,335.738,     -0.56835,0.49149,4
690.326,335.778,     -0.56835,0.49112,4
691.14,335.818,     -0.56835,0.49074,4
691.948,335.858,     -0.56835,0.49037,4
692.759,335.898,     -0.56835,0.49000,4
693.567,335.938,     -0.56835,0.48963,4
694.377,335.978,     -0.54194,0.48926,4
695.183,336.018,     -0.54194,0.48889,4
695.996,336.058,     -0.54194,0.48852,4
696.813,336.098,     -0.54194,0.48815,4
697.616,336.138,     -0.51573,0.48778,4
698.424,336.178,     -0.51573,0.48742,4
699.242,336.218,     -0.51573,0.48705,4
700.056,336.258,     -0.51573,0.48668,4
700.863,336.298,     -0.51573,0.48632,4
701.667,336.338,     -0.49592,0.48596,4
702.473,336.378,     -0.48932,0.48559,4
703.29,336.418,     -0.48932,0.48523,4
704.095,336.458,     -0.46291,0.48487,4
704.901,336.498,     -0.46291,0.48451,4
705.719,336.538,     -0.46291,0.48414,4
706.529,336.578,     -0.46291,0.48378,4
707.336,336.618,     -0.46291,0.48342,4
708.147,336.658,     -0.46291,0.48306,4
708.955,336.698,     -0.46291,0.48271,4
709.764,336.738,     -0.43650,0.48235,4
710.574,336.778,     -0.43650,0.48199,4
711.378,336.818,     -0.43650,0.48164,4
712.2,336.858,     -0.43650,0.48127,4
713.01,336.898,     -0.43650,0.48092,4
713.822,336.938,     -0.42990,0.48056,4
714.631,336.978,     -0.41029,0.48021,4
715.441,337.018,     -0.41029,0.47985,4
716.238,337.058,     -0.41029,0.47951,4
717.052,337.098,     -0.38388,0.47915,4
717.863,337.138,     -0.38388,0.47880,4
718.676,337.178,     -0.38388,0.47844,4
719.474,337.218,     -0.38388,0.47810,4
720.28,337.258,     -0.38388,0.47775,4
721.102,337.298,     -0.38388,0.47739,4
721.907,337.338,     -0.35748,0.47704,4
722.714,337.378,     -0.35748,0.47670,4
723.525,337.418,     -0.35748,0.47635,4
724.333,337.458,     -0.33767,0.47600,4
725.139,337.498,     -0.33107,0.47565,4
725.953,337.538,     -0.33107,0.47530,4
726.756,337.578,     -0.33107,0.47496,4
727.571,337.618,     -0.33107,0.47461,4
728.378,337.658,     -0.33107,0.47426,4
729.189,337.698,     -0.33107,0.47392,4
729.995,337.738,     -0.33107,0.47357,4
730.799,337.778,     -0.30485,0.47323,4
731.622,337.818,     -0.30485,0.47288,4
732.416,337.858,     -0.30485,0.47255,4
733.236,337.898,     -0.30485,0.47220,4
734.039,337.938,     -0.27845,0.47186,4
734.85,337.978,     -0.27845,0.47151,4
735.665,338.018,     -0.27845,0.47117,4
736.468,338.058,     -0.25204,0.47083,4
737.272,338.098,     -0.25204,0.47049,4
738.091,338.138,     -0.25204,0.47015,4
738.904,338.178,     -0.25204,0.46980,4
739.705,338.218,     -0.25204,0.46947,4
740.511,338.258,     -0.25204,0.46913,4
741.322,338.298,     -0.25204,0.46879,4
742.136,338.338,     -0.22563,0.46845,4
742.937,338.378,     -0.22563,0.46811,4
743.735,338.418,     -0.22563,0.46778,4
744.543,338.458,     -0.20583,0.46744,4
745.355,338.498,     -0.19942,0.46710,4
746.168,338.538,     -0.19942,0.46677,4
746.97,338.578,     -0.19942,0.46643,4
747.778,338.618,     -0.19942,0.46610,4
748.585,338.658,     -0.17301,0.46576,4
749.392,338.698,     -0.17301,0.46543,4
750.198,338.738,     -0.17301,0.46509,4
751.009,338.778,     -0.17301,0.46476,4
751.816,338.818,     -0.17301,0.46442,4
752.628,338.858,     -0.14660,0.46409,4
753.428,338.898,     -0.14660,0.46376,4
754.239,338.938,     -0.14660,0.46342,4
755.05,338.978,     -0.14660,0.46309,4
755.857,339.018,     -0.14660,0.46276,4
756.663,339.058,     -0.12019,0.46242,4
757.475,339.098,     -0.12019,0.46209,4
758.284,339.138,     -0.12019,0.46176,4
759.089,339.178,     -0.12019,0.46143,4
759.897,339.218,     -0.12019,0.46110,4
760.705,339.258,     -0.12019,0.46077,4
761.519,339.298,     -0.12019,0.46043,4
762.326,339.338,-9.398058e-02,0.46010,4
763.119,339.378,-9.398058e-02,0.45978,4
763.937,339.418,-8.737864e-02,0.45944,4
764.74,339.458,-6.757282e-02,0.45912,4
765.544,339.498,-6.757282e-02,0.45879,4
766.36,339.538,-6.757282e-02,0.45846,4
767.16,339.578,-6.757282e-02,0.45813,4
767.969,339.618,-4.116505e-02,0.45780,4
768.785,339.658,-4.116505e-02,0.45747,4
769.584,339.698,-4.116505e-02,0.45714,4
770.387,339.738,-1.475728e-02,0.45682,4
771.196,339.778,-1.475728e-02,0.45649,4
771.996,339.818,-1.475728e-02,0.45616,4
772.806,339.858,-1.475728e-02,0.45584,4
773.614,339.898,-1.475728e-02,0.45551,4
774.416,339.938,-1.475728e-02,0.45518,4
775.217,339.978,-1.475728e-02,0.45486,4
776.025,340.018,-1.475728e-02,0.45453,4
776.827,340.058,-1.553398e-03,0.45421,4
777.635,340.098, 1.165049e-02,0.45388,4
778.446,340.138, 1.165049e-02,0.45355,4
779.241,340.178, 1.805825e-02,0.45323,4
780.055,340.218, 3.786408e-02,0.45290,4
780.859,340.258, 3.786408e-02,0.45258,4
781.664,340.298, 3.786408e-02,0.45225,4
782.472,340.338, 1.165049e-02,0.45193,4
783.266,340.378, 1.165049e-02,0.45161,4
784.077,340.418, 3.786408e-02,0.45128,4
784.882,340.458, 3.786408e-02,0.45096,4
785.689,340.498, 3.786408e-02,0.45063,4
786.492,340.538, 6.427184e-02,0.45031,4
787.297,340.578, 6.427184e-02,0.44999,4
788.112,340.618, 7.747573e-02,0.44966,4
788.918,340.658, 7.747573e-02,0.44933,4
789.716,340.698, 7.747573e-02,0.44901,4
790.51,340.738, 7.747573e-02,0.44869,4
791.316,340.778, 7.747573e-02,0.44837,4
792.128,340.818, 7.747573e-02,0.44804,4
792.934,340.858, 9.067961e-02,0.44772,4
793.74,340.898, 9.067961e-02,0.44740,4
794.447,340.933,      0.11049,0.44711,4