File: data/TGA/commercial_samples/ExpDat_2025_08_03_SL_PS_Blue_Cup_Isothermal.csv
#EXPORTTYPE:                 ,DATA ALL
#FILE:                       ,2025_08_03_SL_PS_Blue_Cup_Isothermal.ngb-ss5
#FORMAT:                     ,NETZSCH5
#FTYPE:                      ,ASCII
#IDENTITY:                   ,PS-Blue-Cup
#DECIMAL:                    ,POINT
#SEPARATOR:                  ,COMMA
#MTYPE:                      ,DSC
#INSTRUMENT:                 ,NETZSCH STA 449F5
#PROJECT:                    ,
#DATE/TIME:                  ,8/3/2025 5:12:55 PM (UTC-4)
#CORR. FILE:                 ,
#TEMPCAL:                    ,05-05-2025 14:38
#SENSITIVITY:                ,28-06-2023 13:53
#LABORATORY:                 ,Tran/AAG
#OPERATOR:                   ,Stanley
#REMARK:                     ,2025_03_29_SL_005d_M1_isothermal
#SAMPLE:                     ,PS-Blue-Cup
#SAMPLE MASS /mg:            ,5.04
#MATERIAL:                   ,Polystyrene
#REFERENCE:                  ,
#REFERENCE MASS /mg:         ,0
#TYPE OF CRUCIBLE:           ,Al2O3 85 ‘l, open
#SAMPLE CRUCIBLE MASS /mg:   ,0
#REFERENCE CRUCIBLE MASS /mg:,0
#DSC RANGE /‘V:              ,5000
#TG RANGE /mg:               ,35000
#TAU-R:                      ,---
#CORR. CODE:                 ,000
#EXO:                        ,-1
#RANGE:                      ,30›C....800›C/0.0....20.0K/min
#SEGMENT:                    ,S1-5/5
#SEG. 1:                     ,30›C/10.0(K/min)/100›C
#SEG. 2:                     ,100›C/00:10/100›C
#SEG. 3:                     ,100›C/5.0(K/min)/300›C
#SEG. 4:                     ,300›C/20:00/300›C
#SEG. 5:                     ,300›C/20.0(K/min)/800›C

##Temp./›C,Time/min,DSC/(mW/mg),Mass/%,Gas Flow(purge2)/(ml/min),Gas Flow(protective)/(ml/min),TIC(scan:1)/A,Sensit./(uV/mW),Segment
 40.40600,   0.00000,     -0.19864,100,50.00000,50.00000,            ,0.92513,1
 40.92500,   1.24000, 7.788191e-02,101.071,50.00000,50.00000,1.434051e-08,0.92512,1
 44.41400,   2.48000,      0.56459,103.212,50.00000,50.00000,1.438719e-08,0.92512,1
 50.50100,   3.72000,      1.06816,105.349,50.00000,50.00000,1.439756e-08,0.92513,1
 59.87900,   4.96000,      1.72804,107.576,50.00000,50.00000,1.440758e-08,0.92517,1
 72.13100,   6.20000,      2.37667,109.224,50.00000,50.00000,1.440168e-08,0.92523,1
 83.47200,   7.20000,      2.84372,110.22,50.00000,50.00000,1.441192e-08,0.92529,2
 90.14900,   7.82000,      2.77410,110.027,50.00000,50.00000,1.440707e-08,0.92534,2
 95.39800,   8.44000,      2.37070,109.286,50.00000,50.00000,1.441699e-08,0.92538,2
 99.32900,   9.06000,      1.90209,108.636,50.00000,50.00000,1.441393e-08,0.92543,2
102.521,   9.68000,      1.56099,108.195,50.00000,50.00000,1.440987e-08,0.92548,2
105.237,  10.30000,      1.31846,107.942,50.00000,50.00000,1.437920e-08,0.92553,2
107.37,  10.92000,      1.07160,107.547,50.00000,50.00000,1.439472e-08,0.92557,2
108.895,  11.54000,      0.79824,107.107,50.00000,50.00000,1.444727e-08,0.92563,2
109.86,  12.16000,      0.53672,106.761,50.00000,50.00000,1.441380e-08,0.92569,2
110.373,  12.78000,      0.31407,106.413,50.00000,50.00000,1.443968e-08,0.92573,2
110.526,  13.40000,      0.13388,106.112,50.00000,50.00000,1.443155e-08,0.92579,2
110.406,  14.02000,-1.335451e-02,105.841,50.00000,50.00000,1.441151e-08,0.92585,2
110.064,  14.64000,     -0.13320,105.623,50.00000,50.00000,1.443116e-08,0.92589,2
109.535,  15.26000,     -0.22647,105.419,50.00000,50.00000,1.442175e-08,0.92594,2
108.882,  15.88000,     -0.29695,105.244,50.00000,50.00000,1.440774e-08,0.92600,2
108.142,  16.50000,     -0.34449,105.078,50.00000,50.00000,1.440584e-08,0.92603,2
107.159,  17.28000,     -0.36810,104.967,50.00000,50.00000,1.442500e-08,0.92609,3
107.109,  18.52000, 7.625409e-02,105.886,50.00000,50.00000,1.443482e-08,0.92616,3
109.317,  19.76000,      0.56497,106.723,50.00000,50.00000,1.442365e-08,0.92620,3
113.014,  21.00000,      0.96205,107.549,50.00000,50.00000,1.440300e-08,0.92620,3
118.302,  22.24000,      1.35789,108.267,50.00000,50.00000,1.444901e-08,0.92615,3
124.616,  23.48000,      1.65270,108.876,50.00000,50.00000,1.444986e-08,0.92606,3
131.618,  24.72000,      1.86492,109.32,50.00000,50.00000,1.443219e-08,0.92589,3
138.96,  25.96000,      1.99211,109.648,50.00000,50.00000,1.442444e-08,0.92568,3
146.351,  27.20000,      2.05405,109.89,50.00000,50.00000,1.442640e-08,0.92541,3
153.661,  28.44000,      2.07527,110.081,50.00000,50.00000,1.442753e-08,0.92501,3
160.754,  29.68000,      2.06554,110.216,50.00000,50.00000,1.439823e-08,0.92466,3
167.631,  30.92000,      2.04170,110.344,50.00000,50.00000,1.440708e-08,0.92439,3
174.287,  32.16000,      2.01830,110.472,50.00000,50.00000,1.443882e-08,0.92414,3
180.806,  33.40000,      2.00347,110.606,50.00000,50.00000,1.439970e-08,0.92389,3
187.189,  34.64000,      1.99160,110.694,50.00000,50.00000,1.442247e-08,0.92359,3
193.492,  35.88000,      1.98520,110.802,50.00000,50.00000,1.439650e-08,0.92333,3
199.735,  37.12000,      1.98627,110.916,50.00000,50.00000,1.439543e-08,0.92303,3
205.937,  38.36000,      1.99142,111.026,50.00000,50.00000,1.438370e-08,0.92278,3
212.104,  39.60000,      1.99617,111.134,50.00000,50.00000,1.439971e-08,0.92250,3
218.274,  40.84000,      2.00531,111.215,50.00000,50.00000,1.442251e-08,0.92227,3
224.412,  42.08000,      2.00944,111.302,50.00000,50.00000,1.439803e-08,0.92201,3
230.578,  43.32000,      2.01446,111.336,50.00000,50.00000,1.439380e-08,0.92179,3
236.738,  44.56000,      2.02013,111.369,50.00000,50.00000,1.443127e-08,0.92158,3
242.893,  45.80000,      2.01634,111.423,50.00000,50.00000,1.440617e-08,0.92135,3
249.068,  47.04000,      2.01458,111.459,50.00000,50.00000,1.439944e-08,0.92117,3
255.216,  48.28000,      2.00911,111.482,50.00000,50.00000,1.438686e-08,0.92097,3
261.407,  49.52000,      2.00091,111.468,50.00000,50.00000,1.442033e-08,0.92077,3
267.589,  50.76000,      1.98998,111.462,50.00000,50.00000,1.438063e-08,0.92059,3
273.76,  52.00000,      1.97494,111.421,50.00000,50.00000,1.437629e-08,0.92039,3
279.932,  53.24000,      1.95685,111.381,50.00000,50.00000,1.437047e-08,0.92021,3
286.117,  54.48000,      1.93999,111.347,50.00000,50.00000,1.438633e-08,0.92002,3
292.287,  55.72000,      1.91497,111.266,50.00000,50.00000,1.440526e-08,0.91986,3
298.452,  56.96000,      1.88778,111.21,50.00000,50.00000,1.438222e-08,0.91970,3
303.351,  60.06000,     -0.28052,111.336,50.00000,36.00000,1.439427e-08,0.91931,4
302.616,  63.16000,     -0.76753,110.685,50.00000,36.00000,1.437144e-08,0.91899,4
301.461,  66.26000,     -0.76840,110.254,50.00000,36.00000,1.438510e-08,0.91871,4
300.731,  69.36000,     -0.71327,109.89,50.00000,36.00000,1.435097e-08,0.91850,4
300.354,  72.46000,     -0.68005,109.583,50.00000,36.00000,1.436252e-08,0.91833,4
300.166,  75.56000,     -0.66048,109.253,50.00000,36.00000,1.436209e-08,0.91823,4
300.082,  78.66000,     -0.65329,109.019,50.00000,36.00000,1.436030e-08,0.91816,4
300.029,  81.76000,     -0.64979,108.777,50.00000,36.00000,1.438246e-08,0.91812,4
300.018,  84.86000,     -0.64555,108.575,50.00000,36.00000,1.438502e-08,0.91812,4
300.019,  87.96000,     -0.64632,108.35,50.00000,36.00000,1.432962e-08,0.91815,4
300.015,  91.06000,     -0.64670,108.202,50.00000,36.00000,1.436451e-08,0.91820,4
300.016,  94.16000,     -0.64824,108.038,50.00000,36.00000,1.433172e-08,0.91828,4
300.01,  97.26000,     -0.64843,107.908,50.00000,36.00000,1.434721e-08,0.91837,4
300.01, 100.36,     -0.64959,107.751,50.00000,36.00000,1.432314e-08,0.91848,4
300.007, 103.46,     -0.64881,107.621,50.00000,36.00000,1.434698e-08,0.91860,4
300.014, 106.56,     -0.65055,107.513,50.00000,36.00000,1.433863e-08,0.91873,4
300.003, 109.66,     -0.64689,107.405,50.00000,36.00000,1.428642e-08,0.91886,4
300.011, 112.76,     -0.64766,107.277,50.00000,36.00000,1.432576e-08,0.91899,4
300.027, 115.86,     -0.64979,107.197,50.00000,36.00000,1.431788e-08,0.91921,4
300.01, 118.96,     -0.65074,107.116,50.00000,36.00000,1.435500e-08,0.91917,4
300.009, 122.06,     -0.64766,107.021,50.00000,36.00000,1.428269e-08,0.91885,4
300.009, 125.16,     -0.64766,106.947,50.00000,36.00000,1.434022e-08,0.91840,4
300.006, 128.26,     -0.64689,106.846,50.00000,36.00000,1.430442e-08,0.91773,4
300.022, 131.36,     -0.64709,106.761,50.00000,36.00000,1.431798e-08,0.91684,4
300.027, 134.46,     -0.64191,106.707,50.00000,36.00000,1.429502e-08,0.91578,4
300.026, 137.56,     -0.64056,106.606,50.00000,36.00000,1.429877e-08,0.91446,4
300.018, 140.66,     -0.64171,106.514,50.00000,36.00000,1.429709e-08,0.91295,4
300.007, 143.76,     -0.64093,106.44,50.00000,36.00000,1.427213e-08,0.91134,4
300.014, 146.86,     -0.64363,106.364,50.00000,36.00000,1.429080e-08,0.90950,4
300.018, 149.96,     -0.64017,106.31,50.00000,36.00000,1.428299e-08,0.90762,4
300.014, 153.06,     -0.63940,106.242,50.00000,36.00000,1.427301e-08,0.90553,4
300.036, 156.16,     -0.63787,106.175,50.00000,36.00000,1.428631e-08,0.90346,4
300.028, 159.26,     -0.64133,106.101,50.00000,36.00000,1.431533e-08,0.90121,4
300.01, 162.36,     -0.64074,106.045,50.00000,36.00000,1.427778e-08,0.89902,4
300.014, 165.46,     -0.63959,105.978,50.00000,36.00000,1.427835e-08,0.89666,4
300.013, 168.56,     -0.63997,105.904,50.00000,36.00000,1.427816e-08,0.89441,4
300.014, 171.66,     -0.63997,105.857,50.00000,36.00000,1.430329e-08,0.89200,4
300.021, 174.76,     -0.63902,105.776,50.00000,36.00000,1.430814e-08,0.88969,4
300.024, 177.86,     -0.63710,105.715,50.00000,36.00000,1.428217e-08,0.88722,4
300.01, 180.96,     -0.63766,105.645,50.00000,36.00000,1.429646e-08,0.88485,4
300.007, 184.06,     -0.63728,105.571,50.00000,36.00000,1.427858e-08,0.88232,4
300.008, 187.16,     -0.63824,105.531,50.00000,36.00000,1.427174e-08,0.87990,4
300.035, 190.26,     -0.63326,105.45,50.00000,36.00000,1.425582e-08,0.87729,4
300.029, 193.36,     -0.63441,105.356,50.00000,36.00000,1.427694e-08,0.87466,4
300.009, 196.46,     -0.63497,105.309,50.00000,36.00000,1.424628e-08,0.87213,4
300.01, 199.56,     -0.63343,105.237,50.00000,36.00000,1.425223e-08,0.86941,4
300.012, 202.66,     -0.62728,105.199,50.00000,36.00000,1.424500e-08,0.86681,4
300.018, 205.76,     -0.62863,105.091,50.00000,36.00000,1.424998e-08,0.86401,4
300.027, 208.86,     -0.62671,105.03,50.00000,36.00000,1.426524e-08,0.86133,4
300.022, 211.96,     -0.62902,104.963,50.00000,36.00000,1.426002e-08,0.85846,4
300.022, 215.06,     -0.62921,104.909,50.00000,36.00000,1.430068e-08,0.85570,4
300.011, 218.16,     -0.62689,104.804,50.00000,36.00000,1.424546e-08,0.85275,4
300.023, 221.26,     -0.62671,104.757,50.00000,36.00000,1.425965e-08,0.84991,4
300.012, 224.36,     -0.62555,104.676,50.00000,36.00000,1.422996e-08,0.84689,4
300.015, 227.46,     -0.62747,104.629,50.00000,36.00000,1.427768e-08,0.84381,4
300.006, 230.56,     -0.62689,104.546,50.00000,36.00000,1.426015e-08,0.84087,4
300.026, 233.66,     -0.62633,104.485,50.00000,36.00000,1.424060e-08,0.83774,4
300.006, 236.76,     -0.62939,104.418,50.00000,36.00000,1.427063e-08,0.83472,4
300.008, 239.86,     -0.62497,104.357,50.00000,36.00000,1.425197e-08,0.83151,4
300.016, 242.96,     -0.62459,104.317,50.00000,36.00000,1.426458e-08,0.82827,4
300.016, 246.06,     -0.62286,104.242,50.00000,36.00000,1.424151e-08,0.82516,4
300.011, 249.16,     -0.61805,104.164,50.00000,36.00000,1.423908e-08,0.82187,4
300.008, 252.26,     -0.61478,104.103,50.00000,36.00000,1.423402e-08,0.81853,4
300.015, 255.36,     -0.61421,103.996,50.00000,36.00000,1.425098e-08,0.81534,4
300.01, 258.46,     -0.61286,103.948,50.00000,36.00000,1.424923e-08,0.81214,4
300.02, 261.56,     -0.61190,103.881,50.00000,36.00000,1.424410e-08,0.80874,4
300.008, 264.66,     -0.61362,103.814,50.00000,36.00000,1.422203e-08,0.80549,4
300.017, 267.76,     -0.61228,103.753,50.00000,36.00000,1.419345e-08,0.80206,4
300.002, 270.86,     -0.61247,103.692,50.00000,36.00000,1.424696e-08,0.79876,4
300.025, 273.96,     -0.60998,103.605,50.00000,36.00000,1.419129e-08,0.79529,4
300.021, 277.06,     -0.61325,103.571,50.00000,36.00000,1.425952e-08,0.79179,4
300.018, 280.16,     -0.60979,103.47,50.00000,36.00000,1.421305e-08,0.78819,4
300.017, 283.26,     -0.61517,103.403,50.00000,36.00000,1.418955e-08,0.78474,4
300.011, 286.36,     -0.61343,103.34,50.00000,36.00000,1.424478e-08,0.78404,4
300.012, 289.46,     -0.61055,103.293,50.00000,36.00000,1.421355e-08,0.78458,4
300.012, 292.56,     -0.60901,103.179,50.00000,36.00000,1.421166e-08,0.78526,4
300.024, 295.66,     -0.60748,103.125,50.00000,36.00000,1.420722e-08,0.78587,4
300.015, 298.76,     -0.61132,103.057,50.00000,36.00000,1.422222e-08,0.78633,4
300.023, 301.86,     -0.60806,102.986,50.00000,36.00000,1.422278e-08,0.78662,4
300.019, 304.96,     -0.60998,102.918,50.00000,36.00000,1.422361e-08,0.78684,4
300.015, 308.06,     -0.61094,102.837,50.00000,36.00000,1.420615e-08,0.78697,4
300.009, 311.16,     -0.61112,102.77,50.00000,36.00000,1.421903e-08,0.78705,4
300.014, 314.26,     -0.60844,102.707,50.00000,36.00000,1.421575e-08,0.78711,4
300.013, 317.36,     -0.60690,102.599,50.00000,36.00000,1.422213e-08,0.78714,4
300.027, 320.46,     -0.60479,102.539,50.00000,36.00000,1.418024e-08,0.78718,4
300.008, 323.56,     -0.60478,102.476,50.00000,36.00000,1.421772e-08,0.78718,4
300.019, 326.66,     -0.60325,102.395,50.00000,36.00000,1.419593e-08,0.78719,4
300.014, 329.76,     -0.59767,102.314,50.00000,36.00000,1.420180e-08,0.78719,4
300.012, 332.86,     -0.59863,102.247,50.00000,36.00000,1.420649e-08,0.78719,4
300.021, 335.96,     -0.59729,102.173,50.00000,36.00000,1.418310e-08,0.78719,4
300.016, 339.06,     -0.59632,102.117,50.00000,36.00000,1.416773e-08,0.78719,4
300.016, 342.16,     -0.59517,102.036,50.00000,36.00000,1.419771e-08,0.78719,4
300.014, 345.26,     -0.59459,101.955,50.00000,36.00000,1.420863e-08,0.78720,4
300.005, 348.36,     -0.59862,101.881,50.00000,36.00000,1.417274e-08,0.78719,4
300.015, 351.46,     -0.59517,101.827,50.00000,36.00000,1.415532e-08,0.78720,4
300.017, 354.56,     -0.59171,101.726,50.00000,36.00000,1.419056e-08,0.78719,4
300.024, 357.66,     -0.59594,101.679,50.00000,36.00000,1.421994e-08,0.78720,4
300.004, 360.76,     -0.59189,101.591,50.00000,36.00000,1.420497e-08,0.78719,4
300.022, 363.86,     -0.58940,101.531,50.00000,36.00000,1.418353e-08,0.78720,4
300.006, 366.96,     -0.58901,101.43,50.00000,36.00000,1.418191e-08,0.78720,4
300.015, 370.06,     -0.58882,101.362,50.00000,36.00000,1.420525e-08,0.78719,4
300.013, 373.16,     -0.58863,101.27,50.00000,36.00000,1.420533e-08,0.78719,4
300.015, 376.26,     -0.58632,101.217,50.00000,36.00000,1.417743e-08,0.78719,4
300.012, 379.36,     -0.58844,101.136,50.00000,36.00000,1.417290e-08,0.78719,4
300.02, 382.46,     -0.58690,101.062,50.00000,36.00000,1.418422e-08,0.78719,4
300.019, 385.56,     -0.58459,100.974,50.00000,36.00000,1.418236e-08,0.78719,4
300.022, 388.66,     -0.58287,100.9,50.00000,36.00000,1.416810e-08,0.78719,4
300.008, 391.76,     -0.58497,100.846,50.00000,36.00000,1.417362e-08,0.78720,4
300.015, 394.86,     -0.58671,100.759,50.00000,36.00000,1.415387e-08,0.78720,4
300.009, 397.96,     -0.58363,100.691,50.00000,36.00000,1.417359e-08,0.78719,4
300.02, 401.06,     -0.58536,100.631,50.00000,36.00000,1.416485e-08,0.78719,4
300.021, 404.16,     -0.58287,100.55,50.00000,36.00000,1.414798e-08,0.78719,4
300.008, 407.26,     -0.58709,100.462,50.00000,36.00000,1.419287e-08,0.78719,4
300.021, 410.36,     -0.58498,100.411,50.00000,36.00000,1.417352e-08,0.78717,4
300.014, 413.46,     -0.58421,100.33,50.00000,36.00000,1.418393e-08,0.78719,4
300.021, 416.56,     -0.58575,100.249,50.00000,36.00000,1.415121e-08,0.78719,4
300.014, 419.66,     -0.58286,100.195,50.00000,36.00000,1.417038e-08,0.78719,4
300.028, 422.76,     -0.58152,100.094,50.00000,36.00000,1.416588e-08,0.78719,4
300.024, 425.86,     -0.58248,100.04,50.00000,36.00000,1.414483e-08,0.78719,4
300.013, 428.96,     -0.58401, 99.93274,50.00000,36.00000,1.417106e-08,0.78719,4
300, 432.06,     -0.58477, 99.85179,50.00000,36.00000,1.413926e-08,0.78720,4
300.005, 435.16,     -0.58343, 99.78452,50.00000,36.00000,1.418465e-08,0.78720,4
300.02, 438.26,     -0.58479, 99.70377,50.00000,36.00000,1.412903e-08,0.78720,4
300.015, 441.36,     -0.58440, 99.62956,50.00000,36.00000,1.414060e-08,0.78720,4
300.015, 444.46,     -0.58382, 99.55556,50.00000,36.00000,1.416106e-08,0.78718,4
300.01, 447.56,     -0.58420, 99.48810,50.00000,36.00000,1.416383e-08,0.78719,4
300.028, 450.66,     -0.58095, 99.41409,50.00000,36.00000,1.416984e-08,0.78719,4
300.013, 453.76,     -0.58344, 99.34444,50.00000,36.00000,1.413430e-08,0.78719,4
300.017, 456.86,     -0.58286, 99.25694,50.00000,36.00000,1.414941e-08,0.78720,4
300.013, 459.96,     -0.58305, 99.17619,50.00000,36.00000,1.415738e-08,0.78718,4
300.019, 463.06,     -0.57979, 99.10218,50.00000,36.00000,1.414433e-08,0.78720,4
300.01, 466.16,     -0.57978, 99.01448,50.00000,36.00000,1.415159e-08,0.78720,4
300.024, 469.26,     -0.57825, 98.95397,50.00000,36.00000,1.415584e-08,0.78719,4
300.018, 472.36,     -0.57729, 98.88651,50.00000,36.00000,1.412874e-08,0.78719,4
300.017, 475.46,     -0.57190, 98.77877,50.00000,36.00000,1.414181e-08,0.78718,4
300.019, 478.56,     -0.56940, 98.69583,50.00000,36.00000,1.409831e-08,0.78718,4
300.013, 481.66,     -0.57209, 98.62183,50.00000,36.00000,1.412340e-08,0.78719,4
300.007, 484.76,     -0.56959, 98.55218,50.00000,36.00000,1.414193e-08,0.78719,4
300.011, 487.86,     -0.56824, 98.48472,50.00000,36.00000,1.412521e-08,0.78720,4
300.005, 490.96,     -0.56824, 98.37024,50.00000,36.00000,1.414383e-08,0.78720,4
300.019, 494.06,     -0.56863, 98.31429,50.00000,36.00000,1.411422e-08,0.78720,4
300.014, 497.16,     -0.56613, 98.26706,50.00000,36.00000,1.412329e-08,0.78719,4
300.007, 500.26,     -0.56882, 98.14802,50.00000,36.00000,1.411751e-08,0.78719,4
299.999, 503.36,     -0.56516, 98.09206,50.00000,36.00000,1.415655e-08,0.78718,4
300.016, 506.46,     -0.56363, 97.99087,50.00000,36.00000,1.412821e-08,0.78719,4
300.017, 509.56,     -0.56209, 97.90337,50.00000,36.00000,1.411049e-08,0.78719,4
300.007, 512.66,     -0.56151, 97.83611,50.00000,36.00000,1.409116e-08,0.78720,4
299.999, 515.76,     -0.56035, 97.74861,50.00000,36.00000,1.412374e-08,0.78720,4
300.027, 518.86,     -0.55787, 97.64087,50.00000,36.00000,1.413432e-08,0.78720,4
300.016, 521.96,     -0.55844, 97.57341,50.00000,36.00000,1.412094e-08,0.78719,4
300.012, 525.06,     -0.55767, 97.51964,50.00000,36.00000,1.412928e-08,0.78718,4
300.018, 528.16,     -0.55421, 97.43869,50.00000,36.00000,1.409550e-08,0.78719,4
300.026, 531.26,     -0.55575, 97.35337,50.00000,36.00000,1.409425e-08,0.78718,4
300.023, 534.36,     -0.55518, 97.25913,50.00000,36.00000,1.412313e-08,0.78718,4
300.019, 537.46,     -0.55113, 97.16488,50.00000,36.00000,1.411586e-08,0.78719,4
300.011, 540.56,     -0.54959, 97.09306,50.00000,36.00000,1.408321e-08,0.78719,4
300.015, 543.66,     -0.55363, 97.02579,50.00000,36.00000,1.411449e-08,0.78719,4
300.009, 546.76,     -0.54651, 96.91131,50.00000,36.00000,1.410870e-08,0.78720,4
300.021, 549.86,     -0.54748, 96.83710,50.00000,36.00000,1.412964e-08,0.78719,4
300.014, 552.96,     -0.54632, 96.79008,50.00000,36.00000,1.409779e-08,0.78719,4
300.02, 556.06,     -0.55037, 96.66885,50.00000,36.00000,1.412773e-08,0.78719,4
300.019, 559.16,     -0.54806, 96.57460,50.00000,36.00000,1.411962e-08,0.78719,4
300.03, 562.26,     -0.54710, 96.51389,50.00000,36.00000,1.410205e-08,0.78719,4
300.017, 565.36,     -0.54767, 96.42639,50.00000,36.00000,1.412205e-08,0.78720,4
300.018, 568.46,     -0.54844, 96.33889,50.00000,36.00000,1.409360e-08,0.78719,4
300.003, 571.56,     -0.54805, 96.24901,50.00000,36.00000,1.408774e-08,0.78719,4
300.009, 574.66,     -0.54440, 96.15476,50.00000,36.00000,1.409258e-08,0.78718,4
300.014, 577.76,     -0.54767, 96.08750,50.00000,36.00000,1.405656e-08,0.78719,4
300.02, 580.86,     -0.54690, 96.00655,50.00000,36.00000,1.410408e-08,0.78720,4
300.015, 583.96,     -0.54536, 95.91905,50.00000,36.00000,1.408841e-08,0.78720,4
300.012, 587.06,     -0.54575, 95.84504,50.00000,36.00000,1.406820e-08,0.78719,4
300.03, 590.16,     -0.54980, 95.75754,50.00000,36.00000,1.407441e-08,0.78718,4
300.021, 593.26,     -0.54729, 95.67659,50.00000,36.00000,1.409889e-08,0.78718,4
300.018, 596.36,     -0.54479, 95.59583,50.00000,36.00000,1.408079e-08,0.78719,4
300.025, 599.46,     -0.54960, 95.50159,50.00000,36.00000,1.409085e-08,0.78719,4
300.012, 602.56,     -0.54767, 95.42758,50.00000,36.00000,1.404278e-08,0.78719,4
300.008, 605.66,     -0.54709, 95.33988,50.00000,36.00000,1.404940e-08,0.78720,4
300.012, 608.76,     -0.54844, 95.24563,50.00000,36.00000,1.407891e-08,0.78720,4
300.029, 611.86,     -0.54441, 95.15813,50.00000,36.00000,1.407038e-08,0.78719,4
300.023, 614.96,     -0.54402, 95.07738,50.00000,36.00000,1.410111e-08,0.78719,4
300.009, 618.06,     -0.54747, 94.99643,50.00000,36.00000,1.406447e-08,0.78720,4
300.022, 621.16,     -0.54729, 94.90893,50.00000,36.00000,1.408083e-08,0.78719,4
300.022, 624.26,     -0.54844, 94.83492,50.00000,36.00000,1.406671e-08,0.78719,4
300.019, 627.36,     -0.54786, 94.74742,50.00000,36.00000,1.405889e-08,0.78721,4
300.004, 630.46,     -0.54689, 94.67321,50.00000,36.00000,1.405216e-08,0.78720,4
300.021, 633.56,     -0.54671, 94.57897,50.00000,36.00000,1.406769e-08,0.78720,4
300.019, 636.66,     -0.54786, 94.49821,50.00000,36.00000,1.403899e-08,0.78720,4
300.018, 639.76,     -0.54575, 94.41071,50.00000,36.00000,1.403514e-08,0.78719,4
300.026, 642.86,     -0.54479, 94.32976,50.00000,36.00000,1.404977e-08,0.78720,4
300.021, 645.96,     -0.54383, 94.23552,50.00000,36.00000,1.404704e-08,0.78720,4
300.023, 649.06,     -0.54268, 94.12778,50.00000,36.00000,1.405970e-08,0.78719,4
300.034, 652.16,     -0.54480, 94.06944,50.00000,36.00000,1.405522e-08,0.78719,4
300.012, 655.26,     -0.54209, 93.98869,50.00000,36.00000,1.404962e-08,0.78718,4
300.017, 658.36,     -0.54229, 93.89444,50.00000,36.00000,1.405523e-08,0.78719,4
300.025, 661.46,     -0.53960, 93.80000,50.00000,36.00000,1.402000e-08,0.78719,4
300.018, 664.56,     -0.53844, 93.69464,50.00000,36.00000,1.407452e-08,0.78719,4
300.02, 667.66,     -0.54075, 93.61369,50.00000,36.00000,1.405212e-08,0.78719,4
300.014, 670.76,     -0.53921, 93.51944,50.00000,36.00000,1.403768e-08,0.78721,4
300.019, 673.86,     -0.53748, 93.43869,50.00000,36.00000,1.400275e-08,0.78720,4
300.02, 676.96,     -0.53767, 93.35119,50.00000,36.00000,1.402051e-08,0.78718,4
300.014, 680.06,     -0.53825, 93.25020,50.00000,36.00000,1.401694e-08,0.78718,4
300.007, 683.16,     -0.53997, 93.16925,50.00000,36.00000,1.403011e-08,0.78719,4
300.022, 686.26,     -0.53748, 93.09524,50.00000,36.00000,1.401131e-08,0.78719,4
300.017, 689.36,     -0.54036, 93.00099,50.00000,36.00000,1.400679e-08,0.78718,4
300.026, 692.46,     -0.53768, 92.92004,50.00000,36.00000,1.403152e-08,0.78718,4
300.02, 695.56,     -0.54017, 92.83254,50.00000,36.00000,1.401643e-08,0.78719,4
300.015, 698.66,     -0.53806, 92.75853,50.00000,36.00000,1.403777e-08,0.78719,4
300.014, 701.76,     -0.53709, 92.66429,50.00000,36.00000,1.402592e-08,0.78719,4
300.003, 704.86,     -0.53978, 92.58333,50.00000,36.00000,1.402564e-08,0.78719,4
300.017, 707.96,     -0.53844, 92.51607,50.00000,36.00000,1.403917e-08,0.78720,4
300.013, 711.06,     -0.53671, 92.41290,50.00000,36.00000,1.399547e-08,0.78719,4
300.024, 714.16,     -0.53575, 92.29841,50.00000,36.00000,1.403094e-08,0.78719,4
300.014, 717.26,     -0.53498, 92.23770,50.00000,36.00000,1.402677e-08,0.78719,4
300.017, 720.36,     -0.53575, 92.15694,50.00000,36.00000,1.399463e-08,0.78719,4
300.018, 723.46,     -0.53517, 92.06270,50.00000,36.00000,1.400312e-08,0.78719,4
300.02, 726.56,     -0.53421, 91.98175,50.00000,36.00000,1.399672e-08,0.78719,4
300.031, 729.66,     -0.53441, 91.91905,50.00000,36.00000,1.398792e-08,0.78720,4
300.01, 732.76,     -0.53440, 91.83135,50.00000,36.00000,1.395744e-08,0.78720,4
300.019, 735.86,     -0.53633, 91.71032,50.00000,36.00000,1.396657e-08,0.78720,4
300.006, 738.96,     -0.53940, 91.63849,50.00000,36.00000,1.398117e-08,0.78718,4
300.01, 742.06,     -0.53478, 91.55754,50.00000,36.00000,1.400000e-08,0.78719,4
300.014, 745.16,     -0.53498, 91.43631,50.00000,36.00000,1.393827e-08,0.78719,4
300.006, 748.26,     -0.53613, 91.38254,50.00000,36.00000,1.399258e-08,0.78719,4
300.018, 751.36,     -0.53498, 91.31508,50.00000,36.00000,1.394412e-08,0.78719,4
300.02, 754.46,     -0.53690, 91.20734,50.00000,36.00000,1.394719e-08,0.78719,4
300.012, 757.56,     -0.53748, 91.10635,50.00000,36.00000,1.398723e-08,0.78720,4
300.024, 760.66,     -0.53825, 91.05258,50.00000,36.00000,1.394631e-08,0.78720,4
300.019, 763.76,     -0.53613, 90.97163,50.00000,36.00000,1.392968e-08,0.78719,4
300.027, 766.86,     -0.53806, 90.87738,50.00000,36.00000,1.393605e-08,0.78720,4
300.023, 769.96,     -0.52960, 90.74286,50.00000,36.00000,1.395215e-08,0.78719,4
300.015, 773.06,     -0.52363, 90.67540,50.00000,36.00000,1.391564e-08,0.78719,4
300.015, 776.16,     -0.52190, 90.57440,50.00000,36.00000,1.394967e-08,0.78718,4
300.01, 779.26,     -0.52036, 90.51389,50.00000,36.00000,1.393709e-08,0.78718,4
300.016, 782.36,     -0.52133, 90.41944,50.00000,36.00000,1.393182e-08,0.78719,4
300.004, 785.46,     -0.51959, 90.31627,50.00000,36.00000,1.391570e-08,0.78718,4
300.014, 788.56,     -0.52036, 90.22202,50.00000,36.00000,1.392293e-08,0.78719,4
300.016, 791.66,     -0.51863, 90.14127,50.00000,36.00000,1.397727e-08,0.78720,4
299.998, 794.76,     -0.51862, 90.04683,50.00000,36.00000,1.398419e-08,0.78721,4
300.029, 797.86,     -0.51537, 89.94365,50.00000,36.00000,1.391709e-08,0.78720,4
300.017, 800.96,     -0.51748, 89.84266,50.00000,36.00000,1.393739e-08,0.78720,4
300.014, 804.06,     -0.51632, 89.76845,50.00000,36.00000,1.394600e-08,0.78718,4
300.026, 807.16,     -0.51364, 89.67421,50.00000,36.00000,1.391230e-08,0.78719,4
300.018, 810.26,     -0.51383, 89.59127,50.00000,36.00000,1.393573e-08,0.78719,4
300.018, 813.36,     -0.51479, 89.50377,50.00000,36.00000,1.392258e-08,0.78719,4
300.022, 816.46,     -0.50998, 89.42738,50.00000,36.00000,1.389843e-08,0.78719,4
300.017, 819.56,     -0.51094, 89.32183,50.00000,36.00000,1.390761e-08,0.78720,4
300.012, 822.66,     -0.51344, 89.24544,50.00000,36.00000,1.393370e-08,0.78720,4
300.013, 825.76,     -0.51075, 89.14444,50.00000,36.00000,1.390556e-08,0.78719,4
300.017, 828.86,     -0.50883, 89.07718,50.00000,36.00000,1.391685e-08,0.78719,4
300.022, 831.96,     -0.50998, 88.97163,50.00000,36.00000,1.391559e-08,0.78719,4
300.007, 835.06,     -0.51132, 88.89087,50.00000,36.00000,1.389689e-08,0.78719,4
300.023, 838.16,     -0.51037, 88.80337,50.00000,36.00000,1.389923e-08,0.78719,4
300.015, 841.26,     -0.51344, 88.68214,50.00000,36.00000,1.390039e-08,0.78719,4
300.018, 844.36,     -0.50940, 88.62143,50.00000,36.00000,1.390223e-08,0.78719,4
300.013, 847.46,     -0.50709, 88.53393,50.00000,36.00000,1.392479e-08,0.78720,4
300.015, 850.56,     -0.51075, 88.42619,50.00000,36.00000,1.389302e-08,0.78719,4
300.014, 853.66,     -0.50709, 88.35437,50.00000,36.00000,1.394133e-08,0.78719,4
300.025, 856.76,     -0.51018, 88.25337,50.00000,36.00000,1.388712e-08,0.78719,4
300.027, 859.86,     -0.50864, 88.16806,50.00000,36.00000,1.390096e-08,0.78718,4
300.021, 862.96,     -0.50921, 88.07163,50.00000,36.00000,1.388146e-08,0.78718,4
300.014, 866.06,     -0.51017, 87.98393,50.00000,36.00000,1.389490e-08,0.78719,4
300.022, 869.16,     -0.50556, 87.85595,50.00000,36.00000,1.387501e-08,0.78719,4
300.019, 872.26,     -0.51075, 87.80893,50.00000,36.00000,1.386799e-08,0.78720,4
300.011, 875.36,     -0.50690, 87.71468,50.00000,36.00000,1.388312e-08,0.78719,4
300.021, 878.46,     -0.50652, 87.63373,50.00000,36.00000,1.387252e-08,0.78719,4
300.008, 881.56,     -0.50748, 87.55298,50.00000,36.00000,1.387443e-08,0.78718,4
300.015, 884.66,     -0.50171, 87.41825,50.00000,36.00000,1.388156e-08,0.78719,4
300.016, 887.76,     -0.50363, 87.32857,50.00000,36.00000,1.390631e-08,0.78719,4
300.015, 890.86,     -0.50267, 87.23194,50.00000,36.00000,1.387442e-08,0.78719,4
300.024, 893.96,     -0.50075, 87.15119,50.00000,36.00000,1.383527e-08,0.78718,4
300.017, 897.06,     -0.50440, 87.07718,50.00000,36.00000,1.387319e-08,0.78718,4
300.014, 900.16,     -0.50363, 86.96944,50.00000,36.00000,1.388409e-08,0.78719,4
300.008, 903.26,     -0.49959, 86.87520,50.00000,36.00000,1.384953e-08,0.78719,4
300.016, 906.36,     -0.49979, 86.80099,50.00000,36.00000,1.381790e-08,0.78720,4
300.029, 909.46,     -0.49883, 86.71349,50.00000,36.00000,1.385159e-08,0.78721,4
300.009, 912.56,     -0.49786, 86.61925,50.00000,36.00000,1.386875e-08,0.78718,4
300.022, 915.66,     -0.49671, 86.52500,50.00000,36.00000,1.386026e-08,0.78720,4
300.007, 918.76,     -0.49498, 86.43056,50.00000,36.00000,1.384878e-08,0.78720,4
300.009, 921.86,     -0.49613, 86.34762,50.00000,36.00000,1.387493e-08,0.78719,4
300.012, 924.96,     -0.49594, 86.23988,50.00000,36.00000,1.384937e-08,0.78719,4
300.023, 928.06,     -0.49422, 86.15238,50.00000,36.00000,1.384210e-08,0.78720,4
300.015, 931.16,     -0.49594, 86.07143,50.00000,36.00000,1.390090e-08,0.78719,4
300.006, 934.26,     -0.49094, 85.97044,50.00000,36.00000,1.384631e-08,0.78719,4
300.018, 937.36,     -0.49460, 85.88968,50.00000,36.00000,1.386319e-08,0.78719,4
300.011, 940.46,     -0.49382, 85.76171,50.00000,36.00000,1.387497e-08,0.78719,4
300.017, 943.56,     -0.49460, 85.68770,50.00000,36.00000,1.386090e-08,0.78719,4
300.016, 946.66,     -0.49075, 85.57321,50.00000,36.00000,1.386564e-08,0.78719,4
300.015, 949.76,     -0.49306, 85.50575,50.00000,36.00000,1.386454e-08,0.78720,4
300.031, 952.86,     -0.48922, 85.39127,50.00000,36.00000,1.386541e-08,0.78720,4
300.008, 955.96,     -0.49017, 85.33750,50.00000,36.00000,1.386849e-08,0.78719,4
300.025, 959.06,     -0.48999, 85.18929,50.00000,36.00000,1.387810e-08,0.78719,4
300.011, 962.16,     -0.48979, 85.10179,50.00000,36.00000,1.383985e-08,0.78719,4
300.01, 965.26,     -0.49132, 85.01647,50.00000,36.00000,1.385557e-08,0.78719,4
300.014, 968.36,     -0.49306, 84.93333,50.00000,36.00000,1.386898e-08,0.78718,4
300.008, 971.46,     -0.49075, 84.86389,50.00000,35.00000,1.385215e-08,0.78719,4
300.021, 974.56,     -0.48902, 84.76290,50.00000,35.00000,1.387136e-08,0.78720,4
300.014, 977.66,     -0.48998, 84.66845,50.00000,35.00000,1.386325e-08,0.78719,4
300.014, 980.76,     -0.48959, 84.57659,50.00000,35.00000,1.386632e-08,0.78719,4
300.005, 983.86,     -0.49055, 84.45079,50.00000,35.00000,1.384001e-08,0.78719,4
300.016, 986.96,     -0.48806, 84.39702,50.00000,35.00000,1.383850e-08,0.78720,4
300.006, 990.06,     -0.49055, 84.26905,50.00000,35.00000,1.385301e-08,0.78720,4
299.999, 993.16,     -0.48901, 84.20833,50.00000,35.00000,1.385475e-08,0.78720,4
300.015, 996.26,     -0.49152, 84.07361,50.00000,35.00000,1.386391e-08,0.78720,4
300.005, 999.36,     -0.48978, 83.99504,50.00000,35.00000,1.382149e-08,0.78719,4
300.019,1002.46,     -0.48998, 83.91429,50.00000,35.00000,1.384009e-08,0.78719,4
300.01,1005.56,     -0.49228, 83.80655,50.00000,35.00000,1.386582e-08,0.78720,4
300.017,1008.66,     -0.48767, 83.71230,50.00000,35.00000,1.384939e-08,0.78719,4
300.026,1011.76,     -0.48941, 83.62024,50.00000,35.00000,1.384563e-08,0.78719,4
300.014,1014.86,     -0.48940, 83.50139,50.00000,35.00000,1.385867e-08,0.78720,4
300.009,1017.96,     -0.48825, 83.42718,50.00000,35.00000,1.385646e-08,0.78719,4
300.019,1021.06,     -0.48787, 83.32619,50.00000,35.00000,1.387793e-08,0.78721,4
300.021,1024.16,     -0.48748, 83.24544,50.00000,35.00000,1.384529e-08,0.78720,4
300.028,1027.26,     -0.48806, 83.12421,50.00000,35.00000,1.385346e-08,0.78720,4
300.017,1030.36,     -0.48864, 83.05020,50.00000,35.00000,1.381787e-08,0.78719,4
300.032,1033.46,     -0.48903, 82.93571,50.00000,35.00000,1.382700e-08,0.78720,4
300.019,1036.56,     -0.48691, 82.84583,50.00000,35.00000,1.385822e-08,0.78719,4
300.018,1039.66,     -0.48825, 82.77183,50.00000,35.00000,1.383882e-08,0.78719,4
300.025,1042.76,     -0.48826, 82.67083,50.00000,35.00000,1.383290e-08,0.78719,4
300.021,1045.86,     -0.48748, 82.58095,50.00000,35.00000,1.380486e-08,0.78720,4
300.02,1048.96,     -0.48864, 82.50694,50.00000,35.00000,1.381859e-08,0.78719,4
300.021,1052.06,     -0.48787, 82.39246,50.00000,35.00000,1.384593e-08,0.78719,4
300.019,1055.16,     -0.48979, 82.29147,50.00000,35.00000,1.382341e-08,0.78719,4
300.02,1058.26,     -0.48748, 82.20833,50.00000,35.00000,1.383303e-08,0.78719,4
300.019,1061.36,     -0.49094, 82.12520,50.00000,35.00000,1.381200e-08,0.78719,4
300.015,1064.46,     -0.48940, 82.02877,50.00000,35.00000,1.381446e-08,0.78719,4
300.021,1067.56,     -0.49095, 81.92560,50.00000,35.00000,1.379950e-08,0.78719,4
300.012,1070.66,     -0.48959, 81.81766,50.00000,35.00000,1.379986e-08,0.78717,4
300.016,1073.76,     -0.48575, 81.73016,50.00000,35.00000,1.380553e-08,0.78720,4
300.016,1076.86,     -0.48883, 81.60675,50.00000,35.00000,1.382191e-08,0.78719,4
300.018,1079.96,     -0.48921, 81.52599,50.00000,35.00000,1.379379e-08,0.78719,4
300.024,1083.06,     -0.48672, 81.41151,50.00000,35.00000,1.379664e-08,0.78721,4
300.021,1086.16,     -0.48921, 81.33056,50.00000,35.00000,1.379799e-08,0.78720,4
300.014,1089.26,     -0.48883, 81.24087,50.00000,35.00000,1.378472e-08,0.78719,4
300.016,1092.36,     -0.48594, 81.12639,50.00000,35.00000,1.378790e-08,0.78719,4
300.008,1095.46,     -0.48632, 81.05238,50.00000,35.00000,1.378135e-08,0.78721,4
300.014,1098.56,     -0.48902, 80.94008,50.00000,35.00000,1.382776e-08,0.78720,4
300.02,1101.66,     -0.48594, 80.85020,50.00000,35.00000,1.380743e-08,0.78718,4
300.023,1104.76,     -0.48787, 80.79861,50.00000,35.00000,1.382498e-08,0.78719,4
300.007,1107.86,     -0.48863, 80.66627,50.00000,35.00000,1.383316e-08,0.78718,4
300.007,1110.96,     -0.48594, 80.57202,50.00000,35.00000,1.383603e-08,0.78719,4
300.019,1114.06,     -0.48594, 80.47083,50.00000,35.00000,1.383476e-08,0.78719,4
300.022,1117.16,     -0.48614, 80.42163,50.00000,35.00000,1.381974e-08,0.78719,4
300.013,1120.26,     -0.48767, 80.28690,50.00000,35.00000,1.379906e-08,0.78719,4
300.017,1123.36,     -0.48787, 80.19484,50.00000,35.00000,1.382097e-08,0.78719,4
300.028,1126.46,     -0.48499, 80.10278,50.00000,35.00000,1.380046e-08,0.78719,4
300.012,1129.56,     -0.48690, 80.02202,50.00000,35.00000,1.384530e-08,0.78719,4
300.022,1132.66,     -0.48691, 79.92103,50.00000,35.00000,1.384052e-08,0.78719,4
300.007,1135.76,     -0.48709, 79.79306,50.00000,35.00000,1.385997e-08,0.78720,4
300.016,1138.86,     -0.48556, 79.73690,50.00000,35.00000,1.384532e-08,0.78721,4
300.012,1141.96,     -0.48594, 79.62917,50.00000,35.00000,1.381851e-08,0.78720,4
300.028,1145.06,     -0.48614, 79.50794,50.00000,35.00000,1.383914e-08,0.78719,4
300.01,1148.16,     -0.48632, 79.43829,50.00000,35.00000,1.383759e-08,0.78719,4
300.02,1151.26,     -0.48441, 79.34187,50.00000,35.00000,1.384774e-08,0.78719,4
300.015,1154.36,     -0.48613, 79.23413,50.00000,35.00000,1.383095e-08,0.78719,4
300.038,1157.46,     -0.48461, 79.17123,50.00000,35.00000,1.383735e-08,0.78720,4
300.013,1160.56,     -0.48498, 79.05000,50.00000,35.00000,1.383758e-08,0.78719,4
300.023,1163.66,     -0.48210, 78.96250,50.00000,35.00000,1.384131e-08,0.78719,4
300.03,1166.76,     -0.48249, 78.85476,50.00000,35.00000,1.384036e-08,0.78718,4
300.026,1169.86,     -0.48153, 78.77619,50.00000,35.00000,1.383572e-08,0.78720,4
300.023,1172.96,     -0.48364, 78.66607,50.00000,35.00000,1.380775e-08,0.78719,4
300.024,1176.06,     -0.48306, 78.54940,50.00000,35.00000,1.385823e-08,0.78719,4
300.027,1179.16,     -0.48153, 78.45298,50.00000,35.00000,1.381057e-08,0.78719,4
300.009,1182.26,     -0.48286, 78.37877,50.00000,35.00000,1.383332e-08,0.78719,4
300.018,1185.36,     -0.47921, 78.27103,50.00000,35.00000,1.386027e-08,0.78720,4
300.016,1188.46,     -0.47960, 78.17679,50.00000,35.00000,1.387089e-08,0.78719,4
300.021,1191.56,     -0.47998, 78.09603,50.00000,35.00000,1.386170e-08,0.78719,4
300.022,1194.66,     -0.47806, 77.98829,50.00000,35.00000,1.381658e-08,0.78720,4
300.01,1197.76,     -0.48171, 77.89841,50.00000,35.00000,1.386465e-08,0.78719,4
300.024,1200.86,     -0.47864, 77.80417,50.00000,35.00000,1.387101e-08,0.78719,4
300.011,1203.96,     -0.47825, 77.69643,50.00000,35.00000,1.386855e-08,0.78720,4
300.024,1207.06,     -0.47806, 77.61111,50.00000,35.00000,1.382727e-08,0.78719,4
300.013,1210.16,     -0.47786, 77.50794,50.00000,35.00000,1.385552e-08,0.78718,4
300.016,1213.26,     -0.47517, 77.42044,50.00000,35.00000,1.386314e-08,0.78719,4
300.022,1216.36,     -0.47575, 77.33274,50.00000,35.00000,1.387817e-08,0.78719,4
300.022,1219.46,     -0.47460, 77.21151,50.00000,35.00000,1.383681e-08,0.78719,4
300.014,1222.56,     -0.47633, 77.13075,50.00000,35.00000,1.383449e-08,0.78718,4
300.017,1225.66,     -0.47517, 77.05000,50.00000,35.00000,1.383708e-08,0.78719,4
300.012,1228.76,     -0.47594, 76.93988,50.00000,35.00000,1.381961e-08,0.78719,4
300.016,1231.86,     -0.47306, 76.83889,50.00000,35.00000,1.384196e-08,0.78718,4
300.021,1234.96,     -0.47575, 76.75139,50.00000,35.00000,1.383899e-08,0.78720,4
300.006,1238.06,     -0.47651, 76.63909,50.00000,35.00000,1.380944e-08,0.78719,4
300.013,1241.16,     -0.47325, 76.55833,50.00000,35.00000,1.382812e-08,0.78719,4
300.02,1244.26,     -0.47383, 76.47083,50.00000,35.00000,1.381831e-08,0.78719,4
300.022,1247.36,     -0.47422, 76.37659,50.00000,35.00000,1.383354e-08,0.78720,4
300.027,1250.46,     -0.47268, 76.28452,50.00000,35.00000,1.382124e-08,0.78719,4
300.014,1253.56,     -0.47479, 76.17460,50.00000,35.00000,1.380663e-08,0.78719,4
300.017,1256.66,     -0.47210, 76.09365,50.00000,35.00000,1.388354e-08,0.78718,4
300.043,1257.1,     -0.44480, 75.95913,50.00000,50.00000,1.381973e-08,0.78719,5
300.273,1257.26,     -0.22948, 75.89167,50.00000,50.00000,1.382365e-08,0.78719,5
300.886,1257.41,      0.26546, 75.76607,50.00000,50.00000,1.382768e-08,0.78718,5
301.982,1257.57,      1.03815, 75.80417,50.00000,50.00000,1.381683e-08,0.78719,5
303.591,1257.72,      2.01790, 76.01290,50.00000,50.00000,1.383144e-08,0.78719,5
305.665,1257.88,      3.09836, 76.21488,50.00000,50.00000,1.379033e-08,0.78719,5
308.097,1258.03,      4.15651, 76.45952,50.00000,50.00000,1.378493e-08,0.78719,5
310.803,1258.18,      5.10147, 76.64583,50.00000,50.00000,1.382078e-08,0.78719,5
313.619,1258.34,      5.85705, 76.76488,50.00000,50.00000,1.381797e-08,0.78720,5
316.455,1258.49,      6.40306, 76.89504,50.00000,50.00000,1.381029e-08,0.78719,5
319.278,1258.65,      6.74456, 76.92877,50.00000,50.00000,1.381760e-08,0.78719,5
322.017,1258.81,      6.91691, 76.95575,50.00000,50.00000,1.382987e-08,0.78719,5
324.685,1258.96,      6.97690, 77.00952,50.00000,50.00000,1.382987e-08,0.78719,5
327.299,1259.12,      6.97620, 77.00952,50.00000,50.00000,1.381280e-08,0.78719,5
329.895,1259.27,      6.97298, 77.03651,50.00000,50.00000,1.381857e-08,0.78719,5
332.513,1259.42,      7.00337, 77.03651,50.00000,50.00000,1.383037e-08,0.78720,5
335.199,1259.58,      7.09602, 77.09028,50.00000,50.00000,1.382340e-08,0.78720,5
337.977,1259.73,      7.26068, 77.13075,50.00000,50.00000,1.381975e-08,0.78719,5
340.877,1259.89,      7.48672, 77.20258,50.00000,50.00000,1.381229e-08,0.78721,5
343.881,1260.05,      7.76156, 77.25655,50.00000,50.00000,1.381901e-08,0.78720,5
347.011,1260.2,      8.06205, 77.31032,50.00000,50.00000,1.383088e-08,0.78719,5
350.219,1260.36,      8.36335, 77.35754,50.00000,50.00000,1.381612e-08,0.78720,5
353.508,1260.51,      8.64565, 77.38452,50.00000,50.00000,1.385335e-08,0.78719,5
356.826,1260.66,      8.88754, 77.35754,50.00000,50.00000,1.381999e-08,0.78720,5
360.187,1260.82,      9.08951, 77.32837,50.00000,50.00000,1.380400e-08,0.78720,5
363.56,1260.97,      9.24713, 77.27440,50.00000,50.00000,1.383633e-08,0.78720,5
366.917,1261.13,      9.36700, 77.15774,50.00000,50.00000,1.383633e-08,0.78720,5
370.276,1261.29,      9.45995, 77.02976,50.00000,50.00000,1.383072e-08,0.78720,5
373.617,1261.44,      9.53824, 76.79623,50.00000,50.00000,1.381298e-08,0.78719,5
376.972,1261.6,      9.61351, 76.54940,50.00000,50.00000,1.381993e-08,0.78718,5
380.332,1261.75,      9.69667, 76.21726,50.00000,50.00000,1.384014e-08,0.78720,5
383.692,1261.9,      9.79267, 75.78611,50.00000,50.00000,1.381801e-08,0.78719,5
387.051,1262.06,      9.91003, 75.26984,50.00000,50.00000,1.381239e-08,0.78719,5
390.423,1262.21,     10.05073, 74.65714,50.00000,50.00000,1.385829e-08,0.78719,5
393.814,1262.37,     10.21060, 73.80417,50.00000,50.00000,1.384023e-08,0.78719,5
397.2,1262.53,     10.38457, 72.81190,50.00000,50.00000,1.381154e-08,0.78719,5
400.603,1262.68,     10.59543, 71.54821,50.00000,50.00000,1.382810e-08,0.78719,5
404.01,1262.84,     10.81887, 70.05099,50.00000,50.00000,1.379567e-08,0.78720,5
407.389,1262.99,     11.06783, 68.19683,50.00000,50.00000,1.378364e-08,0.78721,5
410.786,1263.14,     11.35019, 65.98353,50.00000,50.00000,1.380138e-08,0.78719,5
414.172,1263.3,     11.66973, 63.33254,50.00000,50.00000,1.380138e-08,0.78719,5
417.541,1263.45,     12.02683, 60.10456,50.00000,50.00000,1.381098e-08,0.78720,5
420.906,1263.61,     12.40080, 56.32679,50.00000,50.00000,1.378354e-08,0.78721,5
424.244,1263.77,     12.78536, 52.07302,50.00000,50.00000,1.383310e-08,0.78720,5
427.578,1263.92,     13.14537, 47.34563,50.00000,50.00000,1.383243e-08,0.78720,5
430.919,1264.08,     13.43259, 42.06151,50.00000,50.00000,1.384387e-08,0.78719,5
434.227,1264.23,     13.58898, 36.82242,50.00000,50.00000,1.382964e-08,0.78720,5
437.534,1264.38,     13.54713, 31.50675,50.00000,50.00000,1.382397e-08,0.78719,5
440.832,1264.54,     13.28392, 26.73234,50.00000,50.00000,1.382088e-08,0.78719,5
444.142,1264.69,     12.77450, 22.66944,50.00000,50.00000,1.381390e-08,0.78719,5
447.425,1264.85,     12.06505, 19.61647,50.00000,50.00000,1.380103e-08,0.78719,5
450.72,1265.01,     11.27131, 17.63214,50.00000,50.00000,1.378811e-08,0.78719,5
454.019,1265.16,     10.53823, 16.41567,50.00000,50.00000,1.382276e-08,0.78719,5
457.312,1265.32,      9.92956, 15.71071,50.00000,50.00000,1.382273e-08,0.78719,5
460.618,1265.47,      9.45149, 15.37183,50.00000,50.00000,1.382416e-08,0.78718,5
463.916,1265.62,      9.08195, 15.13611,50.00000,50.00000,1.382416e-08,0.78718,5
467.188,1265.78,      8.79207, 15.03730,50.00000,50.00000,1.382445e-08,0.78719,5
470.454,1265.93,      8.56204, 14.98353,50.00000,50.00000,1.384149e-08,0.78718,5
473.706,1266.09,      8.36918, 14.92956,50.00000,50.00000,1.381131e-08,0.78718,5
476.938,1266.24,      8.20206, 14.92956,50.00000,50.00000,1.382269e-08,0.78718,5
480.183,1266.4,      8.05798, 14.90258,50.00000,50.00000,1.382808e-08,0.78718,5
483.393,1266.56,      7.92550, 14.94306,50.00000,50.00000,1.382976e-08,0.78719,5
486.613,1266.71,      7.81189, 14.95655,50.00000,50.00000,1.383095e-08,0.78718,5
489.822,1266.87,      7.70856, 14.99028,50.00000,50.00000,1.378864e-08,0.78719,5
493.018,1267.02,      7.61735, 15.03056,50.00000,50.00000,1.381782e-08,0.78718,5
496.216,1267.17,      7.52716, 15.05754,50.00000,50.00000,1.380506e-08,0.78719,5
499.403,1267.33,      7.44112, 15.06429,50.00000,50.00000,1.381849e-08,0.78719,5
502.588,1267.48,      7.35587, 15.11806,50.00000,50.00000,1.379249e-08,0.78719,5
505.773,1267.64,      7.27196, 15.14504,50.00000,50.00000,1.379066e-08,0.78719,5
508.939,1267.8,      7.18721, 15.17202,50.00000,50.00000,1.379066e-08,0.78719,5
512.124,1267.95,      7.10247, 15.22579,50.00000,50.00000,1.381894e-08,0.78719,5
515.281,1268.11,      7.01505, 15.25278,50.00000,50.00000,1.378069e-08,0.78719,5
518.443,1268.26,      6.93467, 15.27976,50.00000,50.00000,1.381135e-08,0.78719,5
521.607,1268.41,      6.84933, 15.33353,50.00000,50.00000,1.380742e-08,0.78719,5
524.754,1268.57,      6.76991, 15.33353,50.00000,50.00000,1.383306e-08,0.78718,5
527.912,1268.72,      6.68895, 15.38750,50.00000,50.00000,1.379741e-08,0.78719,5
531.061,1268.88,      6.60265, 15.41448,50.00000,50.00000,1.382400e-08,0.78719,5
534.204,1269.04,      6.52401, 15.44147,50.00000,50.00000,1.380139e-08,0.78719,5
537.351,1269.19,      6.44380, 15.48849,50.00000,50.00000,1.378436e-08,0.78719,5
540.494,1269.35,      6.36587, 15.52222,50.00000,50.00000,1.379775e-08,0.78717,5
543.641,1269.5,      6.28743, 15.55139,50.00000,50.00000,1.379009e-08,0.78719,5
546.77,1269.65,      6.21016, 15.57837,50.00000,50.00000,1.378304e-08,0.78719,5
549.912,1269.81,      6.13033, 15.60516,50.00000,50.00000,1.384392e-08,0.78719,5
553.063,1269.96,      6.04790, 15.64563,50.00000,50.00000,1.384392e-08,0.78719,5
556.187,1270.12,      5.96311, 15.69960,50.00000,50.00000,1.381159e-08,0.78718,5
559.322,1270.28,      5.87837, 15.71290,50.00000,50.00000,1.380228e-08,0.78719,5
562.446,1270.43,      5.79651, 15.73988,50.00000,50.00000,1.382392e-08,0.78718,5
565.57,1270.59,      5.71413, 15.77579,50.00000,50.00000,1.380776e-08,0.78718,5
568.714,1270.74,      5.63706, 15.79603,50.00000,50.00000,1.380699e-08,0.78719,5
571.831,1270.89,      5.55742, 15.84325,50.00000,50.00000,1.381817e-08,0.78719,5
574.978,1271.05,      5.47585, 15.85000,50.00000,50.00000,1.379878e-08,0.78718,5
578.087,1271.2,      5.39327, 15.90377,50.00000,50.00000,1.381952e-08,0.78718,5
581.219,1271.36,      5.31282, 15.93075,50.00000,50.00000,1.382668e-08,0.78718,5
584.342,1271.52,      5.23323, 15.94425,50.00000,50.00000,1.380425e-08,0.78719,5
587.472,1271.67,      5.15183, 15.99802,50.00000,50.00000,1.379803e-08,0.78719,5
590.586,1271.83,      5.07072, 15.99802,50.00000,50.00000,1.380918e-08,0.78718,5
593.715,1271.98,      4.98728, 16.05198,50.00000,50.00000,1.379414e-08,0.78718,5
596.828,1272.13,      4.90469, 16.07897,50.00000,50.00000,1.381319e-08,0.78717,5
599.949,1272.29,      4.82536, 16.10575,50.00000,50.00000,1.381319e-08,0.78717,5
603.077,1272.44,      4.74565, 16.13274,50.00000,50.00000,1.381428e-08,0.78719,5
606.218,1272.6,      4.66899, 16.15972,50.00000,50.00000,1.380994e-08,0.78719,5
609.336,1272.76,      4.59012, 16.18671,50.00000,50.00000,1.381245e-08,0.78718,5
612.444,1272.91,      4.51310, 16.21349,50.00000,50.00000,1.380850e-08,0.78719,5
615.566,1273.07,      4.43320, 16.26746,50.00000,50.00000,1.381521e-08,0.78719,5
618.694,1273.22,      4.35697, 16.26746,50.00000,50.00000,1.381188e-08,0.78719,5
621.818,1273.38,      4.26884, 16.29444,50.00000,50.00000,1.381403e-08,0.78719,5
624.939,1273.53,      4.18924, 16.34821,50.00000,50.00000,1.378725e-08,0.78718,5
628.049,1273.68,      4.10372, 16.33472,50.00000,50.00000,1.382274e-08,0.78719,5
631.167,1273.84,      4.02077, 16.36845,50.00000,50.00000,1.382716e-08,0.78719,5
634.297,1273.99,      3.93341, 16.38869,50.00000,50.00000,1.382628e-08,0.78719,5
637.411,1274.15,      3.84882, 16.41567,50.00000,50.00000,1.383330e-08,0.78719,5
640.521,1274.31,      3.76592, 16.44246,50.00000,50.00000,1.380717e-08,0.78719,5
643.627,1274.46,      3.68414, 16.48968,50.00000,50.00000,1.380717e-08,0.78719,5
646.737,1274.62,      3.60117, 16.49643,50.00000,50.00000,1.378620e-08,0.78719,5
649.859,1274.77,      3.52058, 16.55020,50.00000,50.00000,1.381919e-08,0.78718,5
652.958,1274.92,      3.44378, 16.55020,50.00000,50.00000,1.379865e-08,0.78719,5
656.085,1275.08,      3.37127, 16.60417,50.00000,50.00000,1.379832e-08,0.78719,5
659.202,1275.23,      3.30298, 16.63115,50.00000,50.00000,1.383571e-08,0.78718,5
662.324,1275.39,      3.23210, 16.63115,50.00000,50.00000,1.382572e-08,0.78719,5
665.439,1275.55,      3.16278, 16.65794,50.00000,50.00000,1.380649e-08,0.78719,5
668.558,1275.7,      3.09540, 16.68492,50.00000,50.00000,1.381644e-08,0.78719,5
671.687,1275.86,      3.02998, 16.71190,50.00000,50.00000,1.379239e-08,0.78719,5
674.811,1276.01,      2.96560, 16.73889,50.00000,50.00000,1.378830e-08,0.78719,5
677.93,1276.16,      2.90288, 16.76567,50.00000,50.00000,1.382595e-08,0.78718,5
681.056,1276.32,      2.83484, 16.79266,50.00000,50.00000,1.381850e-08,0.78718,5
684.17,1276.47,      2.76508, 16.79266,50.00000,50.00000,1.382612e-08,0.78719,5
687.283,1276.63,      2.69454, 16.81964,50.00000,50.00000,1.382612e-08,0.78719,5
690.404,1276.79,      2.62971, 16.84663,50.00000,50.00000,1.380712e-08,0.78719,5
693.523,1276.94,      2.56846, 16.88016,50.00000,50.00000,1.382000e-08,0.78719,5
696.619,1277.1,      2.51108, 16.92738,50.00000,50.00000,1.381320e-08,0.78719,5
699.738,1277.25,      2.45711, 16.92738,50.00000,50.00000,1.383829e-08,0.78719,5
702.862,1277.4,      2.40902, 16.95437,50.00000,50.00000,1.380484e-08,0.78719,5
705.966,1277.56,      2.36682, 16.98135,50.00000,50.00000,1.381594e-08,0.78719,5
709.09,1277.71,      2.32125, 16.99464,50.00000,50.00000,1.379536e-08,0.78719,5
712.208,1277.87,      2.27976, 17.02163,50.00000,50.00000,1.382753e-08,0.78719,5
715.327,1278.03,      2.24178, 17.04861,50.00000,50.00000,1.380811e-08,0.78719,5
718.446,1278.18,      2.19975, 17.10238,50.00000,50.00000,1.382564e-08,0.78720,5
721.574,1278.34,      2.15587, 17.10238,50.00000,50.00000,1.384632e-08,0.78719,5
724.682,1278.49,      2.10277, 17.12937,50.00000,50.00000,1.379714e-08,0.78719,5
727.791,1278.64,      2.05923, 17.12262,50.00000,50.00000,1.382625e-08,0.78719,5
730.904,1278.8,      2.02310, 17.16310,50.00000,50.00000,1.382625e-08,0.78719,5
734.017,1278.95,      1.99027, 17.19008,50.00000,50.00000,1.385906e-08,0.78719,5
737.14,1279.11,      1.95628, 17.21687,50.00000,50.00000,1.381454e-08,0.78720,5
740.252,1279.27,      1.92270, 17.24385,50.00000,50.00000,1.382857e-08,0.78720,5
743.382,1279.42,      1.89121, 17.27083,50.00000,50.00000,1.379678e-08,0.78720,5
746.497,1279.58,      1.86241, 17.29782,50.00000,50.00000,1.382917e-08,0.78719,5
749.623,1279.73,      1.83085, 17.32460,50.00000,50.00000,1.382755e-08,0.78719,5
752.75,1279.88,      1.79289, 17.34484,50.00000,50.00000,1.381059e-08,0.78719,5
755.883,1280.04,      1.75929, 17.37857,50.00000,50.00000,1.382712e-08,0.78720,5
759.006,1280.19,      1.71957, 17.40556,50.00000,50.00000,1.381956e-08,0.78720,5
762.126,1280.35,      1.67928, 17.39206,50.00000,50.00000,1.378144e-08,0.78718,5
765.255,1280.51,      1.63646, 17.41905,50.00000,50.00000,1.379973e-08,0.78719,5
768.37,1280.66,      1.59899, 17.45258,50.00000,50.00000,1.382639e-08,0.78719,5
771.495,1280.82,      1.55567, 17.48631,50.00000,50.00000,1.382639e-08,0.78719,5
774.612,1280.97,      1.51442, 17.52679,50.00000,50.00000,1.384603e-08,0.78719,5
777.725,1281.12,      1.46993, 17.52679,50.00000,50.00000,1.381633e-08,0.78719,5
780.844,1281.28,      1.42686, 17.58056,50.00000,50.00000,1.384210e-08,0.78719,5
783.96,1281.43,      1.38186, 17.58056,50.00000,50.00000,1.380961e-08,0.78719,5
787.083,1281.59,      1.34065, 17.60754,50.00000,50.00000,            ,0.45007,5
790.194,1281.74,      1.29683, 17.63452,50.00000,50.00000,            ,0.44882,5
793.312,1281.9,      1.25108, 17.64802,50.00000,50.00000,            ,0.44757,5
794.516,1281.96,      1.22772, 17.66131,50.00000,50.00000,            ,0.44708,5