File: data/TGA/commercial_samples/ExpDat_2025_09_08_SL_PS_Container-SCF3_Dynamic_P5EER5_V1_2.csv
#EXPORTTYPE:                 ,DATA ALL
#FILE:                       ,2025_09_08_SL_PS_Container-SCF3_Dynamic_P5EER5_V1_2.ngb-ss5
#FORMAT:                     ,NETZSCH5
#FTYPE:                      ,ASCII
#IDENTITY:                   ,P5EER5_V1+2
#DECIMAL:                    ,POINT
#SEPARATOR:                  ,COMMA
#MTYPE:                      ,DSC
#INSTRUMENT:                 ,NETZSCH STA 449F5
#PROJECT:                    ,PS-SCF3
#DATE/TIME:                  ,9/8/2025 4:49:01 PM (UTC-4)
#CORR. FILE:                 ,
#TEMPCAL:                    ,05-05-2025 14:38
#SENSITIVITY:                ,28-06-2023 13:53
#LABORATORY:                 ,Tran
#OPERATOR:                   ,Stanley
#REMARK:                     ,2025_03_20_Styrofoam_dynamic
#SAMPLE:                     ,P5EER5_V1+2
#SAMPLE MASS /mg:            ,4.63
#MATERIAL:                   ,Polystyrene
#REFERENCE:                  ,
#REFERENCE MASS /mg:         ,0
#TYPE OF CRUCIBLE:           ,Al2O3 85 ‘l, open
#SAMPLE CRUCIBLE MASS /mg:   ,0
#REFERENCE CRUCIBLE MASS /mg:,0
#DSC RANGE /‘V:              ,5000
#TG RANGE /mg:               ,35000
#TAU-R:                      ,---
#CORR. CODE:                 ,000
#EXO:                        ,-1
#RANGE:                      ,20›C....800›C/0.0....20.0K/min
#SEGMENT:                    ,S1-4/4
#SEG. 1:                     ,20›C/5.0(K/min)/100›C
#SEG. 2:                     ,100›C/00:05/100›C
#SEG. 3:                     ,100›C/1.0(K/min)/400›C
#SEG. 4:                     ,400›C/20.0(K/min)/800›C

##Temp./›C,Time/min,DSC/(mW/mg),Mass/%,Gas Flow(purge2)/(ml/min),Gas Flow(protective)/(ml/min),TIC(scan:1)/A,Sensit./(uV/mW),Segment
 38.58900,  0.00000,      3.10036,    100,50.00000,38.00000,            ,0.92490,1
 47.41400,  1.00000,      1.63324,     96.63045,50.00000,36.00000,6.824334e-09,0.92542,1
 51.52700,  2.00000,      0.78562,     88.08294,50.00000,33.00000,6.852111e-09,0.92570,1
 53.35100,  3.00000,      0.34910,     86.38963,50.00000,34.00000,6.864859e-09,0.92584,1
 53.89500,  4.00000, 9.750341e-02,     85.90346,50.00000,34.00000,6.870630e-09,0.92596,1
 53.67300,  5.00000,-5.248855e-02,     85.19719,50.00000,34.00000,6.883474e-09,0.92603,1
 53.00900,  6.00000,     -0.14412,     84.62311,50.00000,34.00000,6.879936e-09,0.92607,1
 52.09100,  7.00000,     -0.19520,     84.14644,50.00000,34.00000,6.887984e-09,0.92610,1
 51.13000,  8.00000,     -0.19592,     83.96825,50.00000,34.00000,6.908735e-09,0.92611,1
 51.09700,  9.00000,-1.423578e-03,     84.60842,50.00000,34.00000,6.899806e-09,0.92612,1
 52.75500, 10.00000,      0.33220,     85.66393,50.00000,34.00000,6.907893e-09,0.92613,1
 56.01000, 11.00000,      0.66505,     86.75378,50.00000,34.00000,6.914850e-09,0.92613,1
 60.64800, 12.00000,      0.96963,     87.75551,50.00000,34.00000,6.915250e-09,0.92612,1
 66.45500, 13.00000,      1.23869,     88.65961,50.00000,34.00000,6.919787e-09,0.92612,1
 73.07000, 14.00000,      1.45008,     89.36587,50.00000,34.00000,6.923142e-09,0.92611,1
 80.15700, 15.00000,      1.60454,     89.92786,50.00000,34.00000,6.935572e-09,0.92610,1
 87.50000, 16.00000,      1.70515,     90.28942,50.00000,34.00000,6.927785e-09,0.92609,1
 92.74500, 16.75000,      1.65377,     90.23089,50.00000,34.00000,6.926696e-09,0.92608,2
 96.78000, 17.50000,      1.35377,     89.70065,50.00000,34.00000,6.933673e-09,0.92606,2
 99.83700, 18.25000,      1.07181,     89.27300,50.00000,34.00000,6.938187e-09,0.92605,2
102.296, 19.00000,      0.87328,     89.01145,50.00000,34.00000,6.929672e-09,0.92604,2
104.158, 19.75000,      0.68406,     88.63758,50.00000,34.00000,6.944548e-09,0.92603,2
105.415, 20.50000,      0.48936,     88.27840,50.00000,34.00000,6.936366e-09,0.92601,2
106.237, 21.33333,      0.29304,     87.88272,50.00000,34.00000,6.941199e-09,0.92601,3
106.809, 22.33333,      0.17138,     87.64816,50.00000,34.00000,6.935377e-09,0.92601,3
107.17, 23.33333,      0.11474,     87.43801,50.00000,34.00000,6.954463e-09,0.92602,3
107.375, 24.33333, 6.884922e-02,     87.29136,50.00000,34.00000,6.947058e-09,0.92605,3
107.507, 25.33333, 5.486650e-02,     87.17883,50.00000,34.00000,6.937207e-09,0.92608,3
107.698, 26.33333, 6.509064e-02,     87.10799,50.00000,34.00000,6.948894e-09,0.92612,3
107.959, 27.33333, 8.589805e-02,     87.09093,50.00000,34.00000,6.946070e-09,0.92616,3
108.311, 28.33333,      0.11173,     87.14968,50.00000,34.00000,6.938972e-09,0.92619,3
108.799, 29.33333,      0.14117,     87.11296,50.00000,34.00000,6.952813e-09,0.92620,3
109.41, 30.33333,      0.16954,     87.14233,50.00000,34.00000,6.944424e-09,0.92619,3
110.088, 31.33333,      0.19596,     87.18618,50.00000,34.00000,6.936131e-09,0.92617,3
110.866, 32.33333,      0.22060,     87.21555,50.00000,34.00000,6.957027e-09,0.92610,3
111.719, 33.33333,      0.24060,     87.21555,50.00000,34.00000,6.946723e-09,0.92600,3
112.629, 34.33333,      0.25702,     87.21555,50.00000,34.00000,6.950615e-09,0.92585,3
113.574, 35.33333,      0.26950,     87.25227,50.00000,34.00000,6.933881e-09,0.92565,3
114.589, 36.33333,      0.27858,     87.27430,50.00000,34.00000,6.943708e-09,0.92539,3
115.598, 37.33333,      0.28605,     87.29611,50.00000,34.00000,6.934872e-09,0.92509,3
116.623, 38.33333,      0.29048,     87.31080,50.00000,34.00000,6.937248e-09,0.92472,3
117.671, 39.33333,      0.29365,     87.28164,50.00000,34.00000,6.942412e-09,0.92431,3
118.711, 40.33333,      0.29413,     87.31814,50.00000,34.00000,6.956504e-09,0.92383,3
119.752, 41.33333,      0.29352,     87.31577,50.00000,34.00000,6.943223e-09,0.92340,3
120.796, 42.33333,      0.29274,     87.33780,50.00000,34.00000,6.952829e-09,0.92306,3
121.827, 43.33333,      0.29178,     87.33780,50.00000,34.00000,6.947948e-09,0.92267,3
122.862, 44.33333,      0.29136,     87.33780,50.00000,34.00000,6.945529e-09,0.92229,3
123.862, 45.33333,      0.28841,     87.37689,50.00000,34.00000,6.955010e-09,0.92195,3
124.893, 46.33333,      0.28619,     87.34989,50.00000,34.00000,6.957555e-09,0.92164,3
125.908, 47.33333,      0.28631,     87.40864,50.00000,34.00000,6.935717e-09,0.92135,3
126.927, 48.33333,      0.28590,     87.37927,50.00000,34.00000,6.955449e-09,0.92107,3
127.928, 49.33333,      0.28385,     87.40626,50.00000,34.00000,6.945240e-09,0.92081,3
128.932, 50.33333,      0.28127,     87.40626,50.00000,34.00000,6.955269e-09,0.92056,3
129.925, 51.33333,      0.28085,     87.40864,50.00000,34.00000,6.950875e-09,0.92034,3
130.943, 52.33333,      0.28170,     87.41102,50.00000,34.00000,6.935359e-09,0.92013,3
131.944, 53.33333,      0.28111,     87.47711,50.00000,34.00000,6.943274e-09,0.91995,3
132.939, 54.33333,      0.27961,     87.50626,50.00000,34.00000,6.939738e-09,0.91982,3
133.943, 55.33333,      0.28173,     87.50626,50.00000,34.00000,6.939416e-09,0.91968,3
134.946, 56.33333,      0.28023,     87.47711,50.00000,34.00000,6.946161e-09,0.91957,3
135.957, 57.33333,      0.27855,     87.50886,50.00000,34.00000,6.948806e-09,0.91948,3
136.946, 58.33333,      0.27796,     87.52354,50.00000,34.00000,6.942657e-09,0.91939,3
137.938, 59.33333,      0.27882,     87.55270,50.00000,34.00000,6.943943e-09,0.91932,3
138.957, 60.33333,      0.27824,     87.58207,50.00000,34.00000,6.962364e-09,0.91926,3
139.948, 61.33333,      0.27710,     87.59676,50.00000,34.00000,6.959610e-09,0.91920,3
140.952, 62.33333,      0.27652,     87.60410,50.00000,34.00000,6.951811e-09,0.91916,3
141.944, 63.33333,      0.27611,     87.65529,50.00000,34.00000,6.937007e-09,0.91912,3
142.939, 64.33333,      0.27698,     87.66998,50.00000,34.00000,6.944501e-09,0.91909,3
143.933, 65.33333,      0.27476,     87.68963,50.00000,34.00000,6.942642e-09,0.91907,3
144.938, 66.33333,      0.27491,     87.69460,50.00000,34.00000,6.944231e-09,0.91906,3
145.944, 67.33333,      0.27597,     87.71166,50.00000,34.00000,6.954470e-09,0.91904,3
146.959, 68.33333,      0.27758,     87.74082,50.00000,34.00000,6.934325e-09,0.91902,3
147.963, 69.33333,      0.27572,     87.79222,50.00000,34.00000,6.954134e-09,0.91900,3
148.955, 70.33333,      0.27350,     87.82635,50.00000,34.00000,6.945085e-09,0.91898,3
149.956, 71.33333,      0.27256,     87.84104,50.00000,34.00000,6.933425e-09,0.91896,3
150.955, 72.33333,      0.27436,     87.84104,50.00000,34.00000,6.946770e-09,0.91893,3
151.954, 73.33333,      0.27268,     87.87041,50.00000,34.00000,6.937574e-09,0.91890,3
152.959, 74.33333,      0.27266,     87.90454,50.00000,34.00000,6.942929e-09,0.91886,3
153.957, 75.33333,      0.27428,     87.93650,50.00000,34.00000,6.927143e-09,0.91882,3
154.964, 76.33333,      0.27334,     87.96825,50.00000,34.00000,6.938087e-09,0.91878,3
155.967, 77.33333,      0.27332,     87.94860,50.00000,34.00000,6.942272e-09,0.91872,3
156.971, 78.33333,      0.27257,     88.02678,50.00000,34.00000,6.931152e-09,0.91867,3
157.973, 79.33333,      0.27163,     88.03413,50.00000,34.00000,6.953772e-09,0.91860,3
158.97, 80.33333,      0.27088,     88.04881,50.00000,34.00000,6.943455e-09,0.91854,3
159.977, 81.33333,      0.27031,     88.09287,50.00000,34.00000,6.943025e-09,0.91846,3
160.965, 82.33333,      0.26919,     88.12203,50.00000,34.00000,6.949686e-09,0.91838,3
161.967, 83.33333,      0.26935,     88.12203,50.00000,34.00000,6.943754e-09,0.91829,3
162.97, 84.33333,      0.26879,     88.13931,50.00000,34.00000,6.944251e-09,0.91821,3
163.967, 85.33333,      0.26896,     88.17581,50.00000,34.00000,6.930154e-09,0.91811,3
164.967, 86.33333,      0.26950,     88.19784,50.00000,34.00000,6.953629e-09,0.91803,3
165.961, 87.33333,      0.26801,     88.22225,50.00000,34.00000,6.943003e-09,0.91793,3
166.975, 88.33333,      0.26726,     88.25162,50.00000,34.00000,6.946786e-09,0.91783,3
167.966, 89.33333,      0.26504,     88.28099,50.00000,34.00000,6.959116e-09,0.91771,3
168.957, 90.33333,      0.26502,     88.30302,50.00000,34.00000,6.947404e-09,0.91760,3
169.946, 91.33333,      0.26427,     88.32009,50.00000,34.00000,6.953538e-09,0.91748,3
170.958, 92.33333,      0.26427,     88.36393,50.00000,34.00000,6.934120e-09,0.91736,3
171.96, 93.33333,      0.26315,     88.37862,50.00000,34.00000,6.943176e-09,0.91724,3
172.959, 94.33333,      0.26074,     88.38596,50.00000,34.00000,6.939977e-09,0.91712,3
173.944, 95.33333,      0.26054,     88.41533,50.00000,34.00000,6.947059e-09,0.91699,3
174.94, 96.33333,      0.25979,     88.38121,50.00000,34.00000,6.931149e-09,0.91688,3
175.932, 97.33333,      0.25756,     88.44946,50.00000,34.00000,6.939507e-09,0.91675,3
176.936, 98.33333,      0.25737,     88.49352,50.00000,34.00000,6.940840e-09,0.91661,3
177.94, 99.33333,      0.25680,     88.49590,50.00000,34.00000,6.936296e-09,0.91648,3
178.931,100.333,      0.25475,     88.53758,50.00000,34.00000,6.930804e-09,0.91634,3
179.934,101.333,      0.25251,     88.52030,50.00000,34.00000,6.940285e-09,0.91620,3
180.942,102.333,      0.25065,     88.55464,50.00000,34.00000,6.945408e-09,0.91606,3
181.938,103.333,      0.24859,     88.55464,50.00000,34.00000,6.935039e-09,0.91592,3
182.933,104.333,      0.24840,     88.60583,50.00000,34.00000,6.925988e-09,0.91578,3
183.952,105.333,      0.24616,     88.64989,50.00000,34.00000,6.923737e-09,0.91563,3
184.951,106.333,      0.24335,     88.64989,50.00000,34.00000,6.943090e-09,0.91549,3
185.96,107.333,      0.24241,     88.66695,50.00000,34.00000,6.933792e-09,0.91536,3
186.947,108.333,      0.24015,     88.69633,50.00000,34.00000,6.933211e-09,0.91522,3
187.959,109.333,      0.23809,     88.70130,50.00000,34.00000,6.937328e-09,0.91507,3
188.955,110.333,      0.23527,     88.73045,50.00000,34.00000,6.929177e-09,0.91492,3
189.955,111.333,      0.23320,     88.75983,50.00000,34.00000,6.940954e-09,0.91477,3
190.971,112.333,      0.22944,     88.75983,50.00000,34.00000,6.940663e-09,0.91463,3
191.947,113.333,      0.22642,     88.73045,50.00000,34.00000,6.934159e-09,0.91447,3
192.961,114.333,      0.22547,     88.76220,50.00000,34.00000,6.948692e-09,0.91432,3
193.951,115.333,      0.22282,     88.81598,50.00000,34.00000,6.930657e-09,0.91418,3
194.953,116.333,      0.22055,     88.82829,50.00000,34.00000,6.926712e-09,0.91402,3
195.961,117.333,      0.21733,     88.85032,50.00000,34.00000,6.933273e-09,0.91389,3
196.947,118.333,      0.21430,     88.86501,50.00000,34.00000,6.925902e-09,0.91374,3
197.977,119.333,      0.21296,     88.89417,50.00000,34.00000,6.928691e-09,0.91358,3
198.945,120.333,      0.20803,     88.90886,50.00000,34.00000,6.918784e-09,0.91343,3
199.957,121.333,      0.20631,     88.93823,50.00000,34.00000,6.923427e-09,0.91328,3
200.945,122.333,      0.20364,     88.95292,50.00000,34.00000,6.940996e-09,0.91312,3
201.944,123.333,      0.19945,     88.96026,50.00000,34.00000,6.929985e-09,0.91296,3
202.942,124.333,      0.19620,     88.98963,50.00000,34.00000,6.935222e-09,0.91281,3
203.933,125.333,      0.19598,     89.01879,50.00000,34.00000,6.923822e-09,0.91265,3
204.953,126.333,      0.19159,     89.00410,50.00000,34.00000,6.919746e-09,0.91249,3
205.946,127.333,      0.18928,     89.04082,50.00000,34.00000,6.936472e-09,0.91234,3
206.951,128.333,      0.18545,     89.06285,50.00000,34.00000,6.917338e-09,0.91221,3
207.946,129.333,      0.18332,     89.04816,50.00000,34.00000,6.919670e-09,0.91205,3
208.941,130.333,      0.17928,     89.09460,50.00000,34.00000,6.928087e-09,0.91188,3
209.956,131.333,      0.17334,     89.11166,50.00000,34.00000,6.917825e-09,0.91173,3
210.967,132.333,      0.17024,     89.09460,50.00000,34.00000,6.928268e-09,0.91157,3
211.957,133.333,      0.16542,     89.15335,50.00000,34.00000,6.922568e-09,0.91140,3
212.959,134.333,      0.16327,     89.18251,50.00000,34.00000,6.927356e-09,0.91124,3
213.956,135.333,      0.15978,     89.20454,50.00000,34.00000,6.916403e-09,0.91110,3
214.956,136.333,      0.15647,     89.20454,50.00000,34.00000,6.913817e-09,0.91094,3
215.959,137.333,      0.15278,     89.20454,50.00000,34.00000,6.925991e-09,0.91077,3
216.946,138.333,      0.14888,     89.22894,50.00000,34.00000,6.928988e-09,0.91061,3
217.95,139.333,      0.14383,     89.25335,50.00000,34.00000,6.937834e-09,0.91044,3
218.953,140.333,      0.14050,     89.28272,50.00000,34.00000,6.920707e-09,0.91027,3
219.944,141.333,      0.13543,     89.28035,50.00000,34.00000,6.913921e-09,0.91011,3
220.952,142.333,      0.13421,     89.30238,50.00000,34.00000,6.923799e-09,0.90994,3
221.949,143.333,      0.12893,     89.31706,50.00000,34.00000,6.904523e-09,0.90976,3
222.935,144.333,      0.12384,     89.34622,50.00000,34.00000,6.933088e-09,0.90959,3
223.947,145.333,      0.12376,     89.32441,50.00000,34.00000,6.905510e-09,0.90945,3
224.94,146.333,      0.11808,     89.39028,50.00000,34.00000,6.919588e-09,0.90928,3
225.94,147.333,      0.11393,     89.36825,50.00000,34.00000,6.918984e-09,0.90910,3
226.944,148.333,      0.10862,     89.36350,50.00000,34.00000,6.916091e-09,0.90893,3
227.936,149.333,      0.10543,     89.42203,50.00000,34.00000,6.929679e-09,0.90875,3
228.943,150.333,      0.10281,     89.42441,50.00000,34.00000,6.918775e-09,0.90858,3
229.936,151.333, 9.785787e-02,     89.43175,50.00000,34.00000,6.920844e-09,0.90840,3
230.935,152.333, 9.406363e-02,     89.46112,50.00000,34.00000,6.920815e-09,0.90823,3
231.928,153.333, 8.870572e-02,     89.46112,50.00000,34.00000,6.931825e-09,0.90805,3
232.928,154.333, 8.586979e-02,     89.46112,50.00000,34.00000,6.915199e-09,0.90788,3
233.934,155.333, 8.127504e-02,     89.49784,50.00000,34.00000,6.918134e-09,0.90773,3
234.937,156.333, 7.706161e-02,     89.49784,50.00000,34.00000,6.919310e-09,0.90754,3
235.954,157.333, 7.284123e-02,     89.50518,50.00000,34.00000,6.924979e-09,0.90736,3
236.939,158.333, 6.724232e-02,     89.53931,50.00000,34.00000,6.922276e-09,0.90719,3
237.942,159.333, 6.417755e-02,     89.55400,50.00000,34.00000,6.930927e-09,0.90700,3
238.946,160.333, 6.071530e-02,     89.55400,50.00000,34.00000,6.918747e-09,0.90682,3
239.932,161.333, 5.508889e-02,     89.56868,50.00000,34.00000,6.926094e-09,0.90664,3
240.937,162.333, 5.298495e-02,     89.57365,50.00000,34.00000,6.935754e-09,0.90645,3
241.93,163.333, 5.048350e-02,     89.59546,50.00000,34.00000,6.915363e-09,0.90626,3
242.944,164.333, 4.463551e-02,     89.59546,50.00000,34.00000,6.920197e-09,0.90608,3
243.937,165.333, 3.975913e-02,     89.59546,50.00000,34.00000,6.926999e-09,0.90589,3
244.932,166.333, 3.585836e-02,     89.62484,50.00000,34.00000,6.918413e-09,0.90574,3
245.935,167.333, 3.076679e-02,     89.65421,50.00000,34.00000,6.928300e-09,0.90555,3
246.939,168.333, 2.625729e-02,     89.65421,50.00000,34.00000,6.924957e-09,0.90536,3
247.938,169.333, 2.252907e-02,     89.65421,50.00000,34.00000,6.918659e-09,0.90517,3
248.946,170.333, 1.918915e-02,     89.66890,50.00000,34.00000,6.927695e-09,0.90499,3
249.94,171.333, 1.564416e-02,     89.66890,50.00000,34.00000,6.921801e-09,0.90479,3
250.94,172.333, 9.515068e-03,     89.66156,50.00000,34.00000,6.926736e-09,0.90460,3
251.933,173.333, 2.778066e-03,     89.65421,50.00000,34.00000,6.929467e-09,0.90441,3
252.93,174.333, 7.945511e-04,     89.68359,50.00000,34.00000,6.929499e-09,0.90421,3
253.929,175.333,-5.169933e-03,     89.71274,50.00000,34.00000,6.932193e-09,0.90402,3
254.938,176.333,-7.563992e-03,     89.70302,50.00000,34.00000,6.917368e-09,0.90385,3
255.925,177.333,-1.255323e-02,     89.69568,50.00000,34.00000,6.916225e-09,0.90365,3
256.919,178.333,-1.675508e-02,     89.71771,50.00000,34.00000,6.927374e-09,0.90346,3
257.939,179.333,-1.996791e-02,     89.71037,50.00000,34.00000,6.915886e-09,0.90326,3
258.93,180.333,-2.998319e-02,     89.72268,50.00000,34.00000,6.915115e-09,0.90306,3
259.936,181.333,-3.401714e-02,     89.71533,50.00000,34.00000,6.926939e-09,0.90286,3
260.919,182.333,-3.825917e-02,     89.72268,50.00000,34.00000,6.915587e-09,0.90266,3
261.939,183.333,-3.990497e-02,     89.75918,50.00000,34.00000,6.919928e-09,0.90246,3
262.935,184.333,-4.717415e-02,     89.75918,50.00000,34.00000,6.915640e-09,0.90229,3
263.934,185.333,-5.305243e-02,     89.73002,50.00000,34.00000,6.911829e-09,0.90209,3
264.944,186.333,-5.854181e-02,     89.70065,50.00000,34.00000,6.923709e-09,0.90189,3
265.922,187.333,-6.102026e-02,     89.73002,50.00000,34.00000,6.922399e-09,0.90169,3
266.931,188.333,-6.310301e-02,     89.73002,50.00000,35.00000,6.932438e-09,0.90148,3
267.923,189.333,-7.225310e-02,     89.71533,50.00000,35.00000,6.909710e-09,0.90128,3
268.927,190.333,-7.637305e-02,     89.73002,50.00000,35.00000,6.916852e-09,0.90108,3
269.942,191.333,-7.888500e-02,     89.72268,50.00000,35.00000,6.914405e-09,0.90090,3
270.928,192.333,-8.524740e-02,     89.74708,50.00000,35.00000,6.913959e-09,0.90070,3
271.93,193.333,-8.655759e-02,     89.71037,50.00000,35.00000,6.915099e-09,0.90049,3
272.932,194.333,-9.274130e-02,     89.72505,50.00000,35.00000,6.916113e-09,0.90028,3
273.924,195.333,-9.771885e-02,     89.69806,50.00000,35.00000,6.922031e-09,0.90007,3
274.922,196.333,     -0.10230,     89.72009,50.00000,35.00000,6.931412e-09,0.89987,3
275.923,197.333,     -0.10893,     89.74212,50.00000,35.00000,6.925404e-09,0.89965,3
276.933,198.333,     -0.11313,     89.71274,50.00000,35.00000,6.927737e-09,0.89944,3
277.926,199.333,     -0.11754,     89.71274,50.00000,35.00000,6.920188e-09,0.89923,3
278.929,200.333,     -0.12299,     89.70540,50.00000,35.00000,6.920170e-09,0.89905,3
279.936,201.333,     -0.13049,     89.71274,50.00000,35.00000,6.926072e-09,0.89884,3
280.933,202.333,     -0.13412,     89.68359,50.00000,35.00000,6.915082e-09,0.89862,3
281.927,203.333,     -0.14185,     89.69093,50.00000,35.00000,6.927479e-09,0.89841,3
282.924,204.333,     -0.14817,     89.68099,50.00000,35.00000,6.923861e-09,0.89819,3
283.939,205.333,     -0.15224,     89.67127,50.00000,35.00000,6.925464e-09,0.89797,3
284.931,206.333,     -0.16023,     89.67862,50.00000,35.00000,6.925246e-09,0.89775,3
285.922,207.333,     -0.16680,     89.65421,50.00000,35.00000,6.922539e-09,0.89753,3
286.919,208.333,     -0.17338,     89.64687,50.00000,35.00000,6.911189e-09,0.89732,3
287.922,209.333,     -0.17729,     89.64687,50.00000,35.00000,6.927259e-09,0.89711,3
288.937,210.333,     -0.18515,     89.62981,50.00000,35.00000,6.914377e-09,0.89688,3
289.926,211.333,     -0.19280,     89.64687,50.00000,35.00000,6.924131e-09,0.89669,3
290.925,212.333,     -0.19903,     89.61749,50.00000,35.00000,6.915409e-09,0.89647,3
291.924,213.333,     -0.20611,     89.58812,50.00000,35.00000,6.917838e-09,0.89625,3
292.924,214.333,     -0.21507,     89.60281,50.00000,35.00000,6.905920e-09,0.89603,3
293.917,215.333,     -0.21885,     89.54428,50.00000,35.00000,6.924524e-09,0.89581,3
294.91,216.333,     -0.22680,     89.54428,50.00000,35.00000,6.925623e-09,0.89559,3
295.915,217.333,     -0.23436,     89.54428,50.00000,35.00000,6.931956e-09,0.89537,3
296.923,218.333,     -0.24152,     89.54428,50.00000,35.00000,6.906373e-09,0.89514,3
297.919,219.333,     -0.24640,     89.50022,50.00000,35.00000,6.926197e-09,0.89492,3
298.929,220.333,     -0.25547,     89.46350,50.00000,35.00000,6.913133e-09,0.89473,3
299.932,221.333,     -0.26477,     89.47084,50.00000,35.00000,6.916971e-09,0.89449,3
300.919,222.333,     -0.26907,     89.45875,50.00000,35.00000,6.931368e-09,0.89427,3
301.932,223.333,     -0.27715,     89.37797,50.00000,35.00000,6.926771e-09,0.89404,3
302.906,224.333,     -0.28315,     89.37559,50.00000,35.00000,6.924821e-09,0.89381,3
303.898,225.333,     -0.29126,     89.34622,50.00000,35.00000,6.906272e-09,0.89357,3
304.917,226.333,     -0.29604,     89.30972,50.00000,35.00000,6.922856e-09,0.89335,3
305.923,227.333,     -0.30609,     89.27300,50.00000,35.00000,6.918948e-09,0.89311,3
306.913,228.333,     -0.31321,     89.25832,50.00000,35.00000,6.912182e-09,0.89288,3
307.913,229.333,     -0.32056,     89.21685,50.00000,35.00000,6.922650e-09,0.89265,3
308.916,230.333,     -0.32560,     89.18747,50.00000,35.00000,6.908369e-09,0.89242,3
309.924,231.333,     -0.33363,     89.17279,50.00000,35.00000,6.911750e-09,0.89219,3
310.935,232.333,     -0.34252,     89.09698,50.00000,35.00000,6.919975e-09,0.89199,3
311.925,233.333,     -0.35015,     89.06782,50.00000,35.00000,6.922241e-09,0.89176,3
312.931,234.333,     -0.35419,     89.00907,50.00000,35.00000,6.924712e-09,0.89152,3
313.938,235.333,     -0.36208,     88.95788,50.00000,35.00000,6.926694e-09,0.89129,3
314.926,236.333,     -0.37210,     88.89179,50.00000,35.00000,6.915014e-09,0.89105,3
315.943,237.333,     -0.37641,     88.86739,50.00000,35.00000,6.924327e-09,0.89081,3
316.923,238.333,     -0.38733,     88.77948,50.00000,35.00000,6.911907e-09,0.89057,3
317.939,239.333,     -0.39230,     88.72073,50.00000,35.00000,6.920063e-09,0.89034,3
318.939,240.333,     -0.40050,     88.66220,50.00000,35.00000,6.910753e-09,0.89010,3
319.922,241.333,     -0.40956,     88.59611,50.00000,35.00000,6.906327e-09,0.88986,3
320.935,242.333,     -0.41651,     88.50583,50.00000,35.00000,6.915771e-09,0.88965,3
321.93,243.333,     -0.42176,     88.41771,50.00000,35.00000,6.913484e-09,0.88941,3
322.929,244.333,     -0.43153,     88.36652,50.00000,35.00000,6.925987e-09,0.88917,3
323.931,245.333,     -0.43918,     88.27840,50.00000,35.00000,6.927131e-09,0.88893,3
324.942,246.333,     -0.44642,     88.16112,50.00000,35.00000,6.926966e-09,0.88869,3
325.93,247.333,     -0.45432,     88.09525,50.00000,35.00000,6.917357e-09,0.88845,3
326.93,248.333,     -0.46094,     87.97797,50.00000,35.00000,6.921822e-09,0.88820,3
327.933,249.333,     -0.46823,     87.84600,50.00000,35.00000,6.916458e-09,0.88796,3
328.93,250.333,     -0.47727,     87.70670,50.00000,35.00000,6.916085e-09,0.88771,3
329.924,251.333,     -0.48395,     87.58942,50.00000,35.00000,6.919900e-09,0.88751,3
330.929,252.333,     -0.48978,     87.49417,50.00000,35.00000,6.913027e-09,0.88725,3
331.939,253.333,     -0.49497,     87.31814,50.00000,35.00000,6.915214e-09,0.88701,3
332.942,254.333,     -0.50431,     87.17883,50.00000,35.00000,6.912872e-09,0.88676,3
333.948,255.333,     -0.51172,     87.00302,50.00000,35.00000,6.915793e-09,0.88652,3
334.927,256.333,     -0.52065,     86.82462,50.00000,35.00000,6.909346e-09,0.88626,3
335.926,257.333,     -0.52612,     86.64860,50.00000,35.00000,6.916358e-09,0.88601,3
336.929,258.333,     -0.53358,     86.44341,50.00000,35.00000,6.914062e-09,0.88577,3
337.926,259.333,     -0.53799,     86.20886,50.00000,35.00000,6.905737e-09,0.88551,3
338.919,260.333,     -0.54481,     85.99870,50.00000,35.00000,6.920005e-09,0.88526,3
339.922,261.333,     -0.55540,     85.76177,50.00000,35.00000,6.914529e-09,0.88500,3
340.936,262.333,     -0.55678,     85.49784,50.00000,35.00000,6.914872e-09,0.88475,3
341.929,263.333,     -0.56543,     85.23153,50.00000,35.00000,6.901063e-09,0.88449,3
342.925,264.333,     -0.57321,     84.89417,50.00000,35.00000,6.898269e-09,0.88427,3
343.935,265.333,     -0.57749,     84.59611,50.00000,35.00000,6.916751e-09,0.88402,3
344.93,266.333,     -0.58464,     84.23931,50.00000,36.00000,6.907724e-09,0.88377,3
345.917,267.333,     -0.59269,     83.87279,50.00000,35.00000,6.902602e-09,0.88351,3
346.914,268.333,     -0.59811,     83.46976,50.00000,35.00000,6.915345e-09,0.88325,3
347.907,269.333,     -0.60487,     83.02246,50.00000,36.00000,6.936333e-09,0.88299,3
348.918,270.333,     -0.60722,     82.53866,50.00000,36.00000,6.918212e-09,0.88273,3
349.939,271.333,     -0.61269,     82.06458,50.00000,36.00000,6.911888e-09,0.88247,3
350.924,272.333,     -0.62529,     81.52959,50.00000,36.00000,6.910657e-09,0.88221,3
351.937,273.333,     -0.63370,     80.93326,50.00000,36.00000,6.908912e-09,0.88195,3
352.93,274.333,     -0.63832,     80.28834,50.00000,36.00000,6.894535e-09,0.88168,3
353.935,275.333,     -0.64743,     79.60410,50.00000,36.00000,6.898822e-09,0.88147,3
354.918,276.333,     -0.65095,     78.87106,50.00000,36.00000,6.903845e-09,0.88121,3
355.925,277.333,     -0.65988,     78.06717,50.00000,36.00000,6.920315e-09,0.88095,3
356.916,278.333,     -0.64343,     77.26328,50.00000,36.00000,6.922218e-09,0.88068,3
357.921,279.333,     -0.59409,     76.32009,50.00000,36.00000,6.910235e-09,0.88041,3
358.913,280.333,     -0.59012,     75.29136,50.00000,36.00000,6.914074e-09,0.88014,3
359.93,281.333,     -0.58775,     74.17473,50.00000,36.00000,6.919869e-09,0.87988,3
360.917,282.333,     -0.59551,     73.03585,50.00000,36.00000,6.913615e-09,0.87962,3
361.928,283.333,     -0.59313,     71.80691,50.00000,36.00000,6.910633e-09,0.87935,3
362.923,284.333,     -0.59730,     70.54363,50.00000,36.00000,6.919927e-09,0.87913,3
363.918,285.333,     -0.59762,     69.13369,50.00000,36.00000,6.915060e-09,0.87885,3
364.909,286.333,     -0.60317,     67.65529,50.00000,36.00000,6.909539e-09,0.87858,3
365.916,287.333,     -0.60761,     66.09892,50.00000,36.00000,6.892582e-09,0.87832,3
366.937,288.333,     -0.60888,     64.45680,50.00000,36.00000,6.910126e-09,0.87804,3
367.929,289.333,     -0.61651,     62.69266,50.00000,36.00000,6.906836e-09,0.87777,3
368.932,290.333,     -0.61778,     60.80626,50.00000,36.00000,6.906049e-09,0.87751,3
369.926,291.333,     -0.62728,     58.79028,50.00000,36.00000,6.914975e-09,0.87723,3
370.922,292.333,     -0.63314,     56.73045,50.00000,36.00000,6.916093e-09,0.87697,3
371.924,293.333,     -0.63924,     54.52160,50.00000,36.00000,6.912990e-09,0.87674,3
372.92,294.333,     -0.64559,     52.23197,50.00000,36.00000,6.914870e-09,0.87646,3
373.936,295.333,     -0.65312,     49.79827,50.00000,36.00000,6.909636e-09,0.87619,3
374.919,296.333,     -0.66157,     47.28877,50.00000,36.00000,6.904798e-09,0.87592,3
375.921,297.333,     -0.67489,     44.69374,50.00000,36.00000,6.915800e-09,0.87564,3
376.92,298.333,     -0.69055,     41.98898,50.00000,36.00000,6.913486e-09,0.87536,3
377.918,299.333,     -0.70740,     39.24492,50.00000,36.00000,6.909135e-09,0.87509,3
378.922,300.333,     -0.72592,     36.53261,50.00000,36.00000,6.905413e-09,0.87482,3
379.92,301.333,     -0.74727,     33.75184,50.00000,36.00000,6.897463e-09,0.87454,3
380.932,302.333,     -0.77240,     31.00043,50.00000,36.00000,6.916455e-09,0.87426,3
381.922,303.333,     -0.80059,     28.23434,50.00000,36.00000,6.901759e-09,0.87398,3
382.921,304.333,     -0.82816,     25.49525,50.00000,36.00000,6.912969e-09,0.87375,3
383.929,305.333,     -0.86211,     22.88078,50.00000,36.00000,6.911493e-09,0.87346,3
384.917,306.333,     -0.90335,     20.30540,50.00000,36.00000,6.908601e-09,0.87318,3
385.906,307.333,     -0.94400,     17.81533,50.00000,36.00000,6.906829e-09,0.87291,3
386.917,308.333,     -0.98829,     15.44039,50.00000,36.00000,6.905525e-09,0.87262,3
387.933,309.333,     -1.03646,     13.19482,50.00000,36.00000,6.898688e-09,0.87234,3
388.926,310.333,     -1.08495,     11.10799,50.00000,36.00000,6.910041e-09,0.87206,3
389.919,311.333,     -1.13170,      9.23132,50.00000,36.00000,6.918202e-09,0.87178,3
390.927,312.333,     -1.18235,      7.50130,50.00000,36.00000,6.914402e-09,0.87150,3
391.918,313.333,     -1.23122,      5.92786,50.00000,36.00000,6.912130e-09,0.87126,3
392.93,314.333,     -1.28097,      4.54708,50.00000,36.00000,6.903579e-09,0.87099,3
393.926,315.333,     -1.32610,      3.28143,50.00000,36.00000,6.908957e-09,0.87070,3
394.921,316.333,     -1.37537,      2.25270,50.00000,36.00000,6.911907e-09,0.87040,3
395.921,317.333,     -1.43353,      1.26566,50.00000,36.00000,6.917452e-09,0.87011,3
396.916,318.333,     -1.49610,      0.43715,50.00000,36.00000,6.912726e-09,0.86984,3
397.924,319.333,     -1.55387,     -0.23240,50.00000,36.00000,6.897178e-09,0.86955,3
398.919,320.333,     -1.61130,     -0.81382,50.00000,36.00000,6.911943e-09,0.86927,3
399.619,321.025,     -1.64254,     -1.15097,50.00000,36.00000,6.898715e-09,0.86908,4
399.708,321.1,     -1.64464,     -1.18035,50.00000,36.00000,6.898715e-09,0.86908,4
399.832,321.175,     -1.61566,     -1.23909,50.00000,36.00000,6.907484e-09,0.86903,4
400.048,321.25,     -1.53332,     -1.23909,50.00000,36.00000,6.907484e-09,0.86903,4
400.376,321.325,     -1.37926,     -1.20734,50.00000,36.00000,6.910968e-09,0.86898,4
400.833,321.4,     -1.14429,     -1.14363,50.00000,36.00000,6.910968e-09,0.86898,4
401.442,321.475,     -0.82554,     -1.08013,50.00000,36.00000,6.918219e-09,0.86893,4
402.195,321.55,     -0.44099,     -1.01663,50.00000,36.00000,6.918219e-09,0.86893,4
403.113,321.625, 6.928823e-03,     -0.90432,50.00000,36.00000,6.918219e-09,0.86893,4
404.166,321.7,      0.49910,     -0.79179,50.00000,36.00000,6.902258e-09,0.86888,4
405.348,321.775,      1.01632,     -0.72829,50.00000,36.00000,6.902258e-09,0.86888,4
406.648,321.85,      1.54095,     -0.62333,50.00000,36.00000,6.914737e-09,0.86883,4
408.034,321.925,      2.05466,     -0.54752,50.00000,36.00000,6.914737e-09,0.86883,4
409.49,322,      2.53920,     -0.49374,50.00000,36.00000,6.909344e-09,0.86879,4
410.998,322.075,      2.98020,     -0.48402,50.00000,36.00000,6.909344e-09,0.86879,4
412.522,322.15,      3.36933,     -0.45464,50.00000,36.00000,6.904178e-09,0.86873,4
414.062,322.225,      3.69903,     -0.42527,50.00000,36.00000,6.904178e-09,0.86873,4
415.589,322.3,      3.95956,     -0.42527,50.00000,36.00000,6.904178e-09,0.86873,4
417.107,322.375,      4.15900,     -0.45464,50.00000,36.00000,6.903254e-09,0.86870,4
418.583,322.45,      4.29095,     -0.45464,50.00000,36.00000,6.903254e-09,0.86870,4
420.035,322.525,      4.36630,     -0.48402,50.00000,36.00000,6.907372e-09,0.86864,4
421.432,322.6,      4.39116,     -0.51339,50.00000,36.00000,6.907372e-09,0.86864,4
422.794,322.675,      4.37124,     -0.57192,50.00000,36.00000,6.892585e-09,0.86859,4
424.133,322.75,      4.31743,     -0.60130,50.00000,36.00000,6.892585e-09,0.86859,4
425.42,322.825,      4.24169,     -0.65983,50.00000,36.00000,6.909902e-09,0.86855,4
426.692,322.9,      4.15179,     -0.72354,50.00000,36.00000,6.909902e-09,0.86855,4
427.926,322.975,      4.05764,     -0.78942,50.00000,36.00000,6.909902e-09,0.86855,4
429.176,323.05,      3.96425,     -0.86263,50.00000,36.00000,6.928376e-09,0.86850,4
430.394,323.125,      3.87904,     -0.91404,50.00000,36.00000,6.928376e-09,0.86850,4
431.636,323.2,      3.81303,     -0.93844,50.00000,36.00000,6.910008e-09,0.86845,4
432.871,323.275,      3.76117,     -0.97754,50.00000,36.00000,6.910008e-09,0.86845,4
434.134,323.35,      3.73218,     -1.00691,50.00000,36.00000,6.910561e-09,0.86839,4
435.412,323.425,      3.72537,     -1.04104,50.00000,36.00000,6.910561e-09,0.86839,4
436.728,323.5,      3.73895,     -1.09978,50.00000,36.00000,6.910561e-09,0.86839,4
438.052,323.575,      3.77539,     -1.09978,50.00000,36.00000,6.907162e-09,0.86835,4
439.419,323.65,      3.82999,     -1.12916,50.00000,36.00000,6.907162e-09,0.86835,4
440.821,323.725,      3.90028,     -1.13629,50.00000,36.00000,6.906919e-09,0.86831,4
442.237,323.8,      3.98172,     -1.18035,50.00000,36.00000,6.906919e-09,0.86831,4
443.691,323.875,      4.07299,     -1.18035,50.00000,36.00000,6.911145e-09,0.86826,4
445.177,323.95,      4.17136,     -1.15832,50.00000,36.00000,6.911145e-09,0.86826,4
446.669,324.025,      4.26810,     -1.18769,50.00000,36.00000,6.911705e-09,0.86820,4
448.194,324.1,      4.35905,     -1.18769,50.00000,36.00000,6.911705e-09,0.86820,4
449.731,324.175,      4.45068,     -1.21706,50.00000,36.00000,6.911705e-09,0.86820,4
451.281,324.25,      4.53177,     -1.24644,50.00000,36.00000,6.908047e-09,0.86815,4
452.834,324.325,      4.60196,     -1.24644,50.00000,36.00000,6.908047e-09,0.86815,4
454.403,324.4,      4.66407,     -1.24644,50.00000,36.00000,6.910652e-09,0.86811,4
455.966,324.475,      4.71124,     -1.27559,50.00000,36.00000,6.910652e-09,0.86811,4
457.532,324.55,      4.74780,     -1.24644,50.00000,36.00000,6.908100e-09,0.86806,4
459.096,324.625,      4.77391,     -1.27559,50.00000,36.00000,6.908100e-09,0.86806,4
460.667,324.7,      4.78904,     -1.27559,50.00000,36.00000,6.909649e-09,0.86801,4
462.228,324.775,      4.79432,     -1.28294,50.00000,36.00000,6.909649e-09,0.86801,4
463.788,324.85,      4.79181,     -1.30497,50.00000,36.00000,6.909649e-09,0.86801,4
465.339,324.925,      4.78427,     -1.30497,50.00000,36.00000,6.910331e-09,0.86796,4
466.889,325,      4.77172,     -1.29028,50.00000,36.00000,6.910331e-09,0.86796,4
468.438,325.075,      4.75542,     -1.27559,50.00000,36.00000,6.924356e-09,0.86791,4
469.979,325.15,      4.73872,     -1.27559,50.00000,36.00000,6.924356e-09,0.86791,4
471.539,325.225,      4.72230,     -1.27559,50.00000,36.00000,6.921275e-09,0.86786,4
473.086,325.3,      4.70255,     -1.24644,50.00000,36.00000,6.921275e-09,0.86786,4
474.627,325.375,      4.68318,     -1.24644,50.00000,36.00000,6.921275e-09,0.86786,4
476.192,325.45,      4.67122,     -1.24644,50.00000,36.00000,6.916138e-09,0.86781,4
477.736,325.525,      4.65800,     -1.24644,50.00000,36.00000,6.916138e-09,0.86781,4
479.3,325.6,      4.64772,     -1.21706,50.00000,36.00000,6.906377e-09,0.86776,4
480.853,325.675,      4.64234,     -1.21706,50.00000,36.00000,6.906377e-09,0.86776,4
482.431,325.75,      4.63626,     -1.18769,50.00000,36.00000,6.908093e-09,0.86772,4
484,325.825,      4.63246,     -1.18769,50.00000,36.00000,6.908093e-09,0.86772,4
485.571,325.9,      4.62676,     -1.16566,50.00000,36.00000,6.916557e-09,0.86767,4
487.155,325.975,      4.62348,     -1.12916,50.00000,36.00000,6.916557e-09,0.86767,4
488.73,326.05,      4.62252,     -1.12916,50.00000,36.00000,6.908488e-09,0.86762,4
490.306,326.125,      4.61910,     -1.09719,50.00000,36.00000,6.908488e-09,0.86762,4
491.89,326.2,      4.61327,     -1.09006,50.00000,36.00000,6.908488e-09,0.86762,4
493.474,326.275,      4.60738,     -1.09006,50.00000,36.00000,6.903878e-09,0.86758,4
495.067,326.35,      4.59959,     -1.06803,50.00000,36.00000,6.903878e-09,0.86758,4
496.645,326.425,      4.59056,     -1.03866,50.00000,36.00000,6.914223e-09,0.86753,4
498.233,326.5,      4.57881,     -1.03866,50.00000,36.00000,6.914223e-09,0.86753,4
499.818,326.575,      4.56261,     -1.03132,50.00000,36.00000,6.920190e-09,0.86748,4
501.403,326.65,      4.54468,     -1.00929,50.00000,36.00000,6.920190e-09,0.86748,4
502.978,326.725,      4.52713,     -1.02397,50.00000,36.00000,6.920190e-09,0.86748,4
504.568,326.8,      4.50846,     -0.96285,50.00000,36.00000,6.927239e-09,0.86743,4
506.137,326.875,      4.48573,     -0.93348,50.00000,36.00000,6.927239e-09,0.86743,4
507.723,326.95,      4.46434,     -0.93348,50.00000,36.00000,6.914958e-09,0.86738,4
509.298,327.025,      4.44084,     -0.93348,50.00000,36.00000,6.914958e-09,0.86738,4
510.868,327.1,      4.41581,     -0.90432,50.00000,36.00000,6.906354e-09,0.86732,4
512.444,327.175,      4.39151,     -0.90432,50.00000,36.00000,6.906354e-09,0.86732,4
514.018,327.25,      4.36678,     -0.90432,50.00000,36.00000,6.919024e-09,0.86728,4
515.588,327.325,      4.34301,     -0.90432,50.00000,36.00000,6.919024e-09,0.86728,4
517.149,327.4,      4.31795,     -0.84557,50.00000,36.00000,6.919024e-09,0.86728,4
518.739,327.475,      4.29542,     -0.84557,50.00000,36.00000,6.913882e-09,0.86723,4
520.301,327.55,      4.26955,     -0.83089,50.00000,36.00000,6.913882e-09,0.86723,4
521.868,327.625,      4.24608,     -0.80173,50.00000,36.00000,6.905677e-09,0.86719,4
523.447,327.7,      4.22059,     -0.78704,50.00000,36.00000,6.905677e-09,0.86719,4
525.008,327.775,      4.19711,     -0.78704,50.00000,36.00000,6.921270e-09,0.86713,4
526.574,327.85,      4.17466,     -0.73326,50.00000,36.00000,6.921270e-09,0.86713,4
528.148,327.925,      4.15382,     -0.73326,50.00000,36.00000,6.927941e-09,0.86709,4
529.721,328,      4.12919,     -0.73326,50.00000,36.00000,6.927941e-09,0.86709,4
531.29,328.075,      4.10668,     -0.73326,50.00000,36.00000,6.927941e-09,0.86709,4
532.839,328.15,      4.08450,     -0.72592,50.00000,36.00000,6.916562e-09,0.86704,4
534.429,328.225,      4.06071,     -0.69654,50.00000,36.00000,6.916562e-09,0.86704,4
535.99,328.3,      4.03552,     -0.66717,50.00000,36.00000,6.926421e-09,0.86700,4
537.561,328.375,      4.01452,     -0.63801,50.00000,36.00000,6.926421e-09,0.86700,4
539.129,328.45,      3.98853,     -0.63801,50.00000,36.00000,6.909741e-09,0.86695,4
540.687,328.525,      3.96408,     -0.63801,50.00000,36.00000,6.909741e-09,0.86695,4
542.248,328.6,      3.94210,     -0.63067,50.00000,36.00000,6.918539e-09,0.86689,4
543.814,328.675,      3.91400,     -0.60864,50.00000,36.00000,6.918539e-09,0.86689,4
545.371,328.75,      3.89090,     -0.57927,50.00000,36.00000,6.918539e-09,0.86689,4
546.938,328.825,      3.86426,     -0.57927,50.00000,36.00000,6.909976e-09,0.86684,4
548.498,328.9,      3.83717,     -0.57927,50.00000,36.00000,6.909976e-09,0.86684,4
550.065,328.975,      3.81143,     -0.54989,50.00000,36.00000,6.930411e-09,0.86680,4
551.627,329.05,      3.78814,     -0.52052,50.00000,36.00000,6.930411e-09,0.86680,4
553.181,329.125,      3.75977,     -0.52052,50.00000,36.00000,6.912524e-09,0.86676,4
554.725,329.2,      3.73470,     -0.52052,50.00000,36.00000,6.912524e-09,0.86676,4
556.293,329.275,      3.70554,     -0.52052,50.00000,36.00000,6.920579e-09,0.86670,4
557.848,329.35,      3.67706,     -0.49136,50.00000,36.00000,6.920579e-09,0.86670,4
559.4,329.425,      3.65281,     -0.49136,50.00000,36.00000,6.920579e-09,0.86670,4
560.957,329.5,      3.62525,     -0.46199,50.00000,36.00000,6.919412e-09,0.86664,4
562.503,329.575,      3.60073,     -0.43261,50.00000,36.00000,6.919412e-09,0.86664,4
564.066,329.65,      3.57264,     -0.43261,50.00000,36.00000,6.918628e-09,0.86660,4
565.618,329.725,      3.54732,     -0.40324,50.00000,36.00000,6.918628e-09,0.86660,4
567.17,329.8,      3.52100,     -0.40324,50.00000,36.00000,6.913145e-09,0.86655,4
568.725,329.875,      3.49574,     -0.37408,50.00000,36.00000,6.913145e-09,0.86655,4
570.27,329.95,      3.47121,     -0.37408,50.00000,36.00000,6.913145e-09,0.86655,4
571.828,330.025,      3.44869,     -0.37408,50.00000,36.00000,6.917713e-09,0.86651,4
573.371,330.1,      3.42066,     -0.34471,50.00000,36.00000,6.917713e-09,0.86651,4
574.924,330.175,      3.39760,     -0.34471,50.00000,36.00000,6.912277e-09,0.86646,4
576.48,330.25,      3.37504,     -0.31533,50.00000,36.00000,6.912277e-09,0.86646,4
578.025,330.325,      3.34545,     -0.28596,50.00000,36.00000,6.913855e-09,0.86641,4
579.58,330.4,      3.31906,     -0.28596,50.00000,36.00000,6.913855e-09,0.86641,4
581.12,330.475,      3.29490,     -0.28596,50.00000,36.00000,6.917221e-09,0.86635,4
582.673,330.55,      3.26617,     -0.28596,50.00000,36.00000,6.917221e-09,0.86635,4
584.226,330.625,      3.24032,     -0.25680,50.00000,36.00000,6.917221e-09,0.86635,4
585.761,330.7,      3.21127,     -0.24212,50.00000,36.00000,6.921386e-09,0.86632,4
587.301,330.775,      3.18030,     -0.19330,50.00000,36.00000,6.921386e-09,0.86632,4
588.852,330.85,      3.15892,     -0.17127,50.00000,36.00000,6.914786e-09,0.86625,4
590.397,330.925,      3.12893,     -0.19568,50.00000,36.00000,6.914786e-09,0.86625,4
591.937,331,      3.10032,     -0.19568,50.00000,36.00000,6.919832e-09,0.86621,4
593.463,331.075,      3.07244,     -0.16631,50.00000,36.00000,6.919832e-09,0.86621,4
595.005,331.15,      3.04390,     -0.16631,50.00000,36.00000,6.911642e-09,0.86617,4
596.536,331.225,      3.01519,     -0.13693,50.00000,36.00000,6.911642e-09,0.86617,4
598.081,331.3,      2.98794,     -0.12225,50.00000,36.00000,6.911642e-09,0.86617,4
599.611,331.375,      2.95869,     -0.12225,50.00000,36.00000,6.923870e-09,0.86611,4
601.163,331.45,      2.93644,-7.840173e-02,50.00000,36.00000,6.923870e-09,0.86611,4
602.7,331.525,      2.90821,-7.840173e-02,50.00000,36.00000,6.923745e-09,0.86606,4
604.222,331.6,      2.88289,-6.371490e-02,50.00000,36.00000,6.923745e-09,0.86606,4
605.762,331.675,      2.85721,-4.902808e-02,50.00000,36.00000,6.925882e-09,0.86602,4
607.299,331.75,      2.82864,-2.699784e-02,50.00000,36.00000,6.925882e-09,0.86602,4
608.845,331.825,      2.80214,-1.965443e-02,50.00000,36.00000,6.925882e-09,0.86602,4
610.38,331.9,      2.77581,-4.967603e-03,50.00000,36.00000,6.921094e-09,0.86597,4
611.908,331.975,      2.74625, 9.719222e-03,50.00000,36.00000,6.921094e-09,0.86597,4
613.435,332.05,      2.72433, 2.419006e-02,50.00000,36.00000,6.928742e-09,0.86592,4
614.956,332.125,      2.69577, 3.887689e-02,50.00000,36.00000,6.928742e-09,0.86592,4
616.495,332.2,      2.67120, 6.825054e-02,50.00000,36.00000,6.907305e-09,0.86587,4
618.031,332.275,      2.64403, 4.622030e-02,50.00000,36.00000,6.907305e-09,0.86587,4
619.553,332.35,      2.61733, 7.062635e-02,50.00000,36.00000,6.916787e-09,0.86582,4
621.089,332.425,      2.59433, 7.062635e-02,50.00000,36.00000,6.916787e-09,0.86582,4
622.623,332.5,      2.56872, 7.062635e-02,50.00000,36.00000,6.906865e-09,0.86576,4
624.155,332.575,      2.54048, 1.000000e-01,50.00000,36.00000,6.906865e-09,0.86576,4
625.685,332.65,      2.51434, 1.000000e-01,50.00000,36.00000,6.906865e-09,0.86576,4
627.222,332.725,      2.48937,      0.12937,50.00000,36.00000,6.908779e-09,0.86572,4
628.744,332.8,      2.46016,      0.12937,50.00000,36.00000,6.908779e-09,0.86572,4
630.271,332.875,      2.43592,      0.12937,50.00000,36.00000,6.922884e-09,0.86567,4
631.802,332.95,      2.40620,      0.12937,50.00000,36.00000,6.922884e-09,0.86567,4
633.325,333.025,      2.38112,      0.17343,50.00000,36.00000,6.912622e-09,0.86562,4
634.853,333.1,      2.35150,      0.21728,50.00000,36.00000,6.912622e-09,0.86562,4
636.374,333.175,      2.32303,      0.21728,50.00000,36.00000,6.903849e-09,0.86557,4
637.897,333.25,      2.29318,      0.21728,50.00000,36.00000,6.903849e-09,0.86557,4
639.434,333.325,      2.26230,      0.21728,50.00000,36.00000,6.903849e-09,0.86557,4
640.957,333.4,      2.23351,      0.24665,50.00000,36.00000,6.921371e-09,0.86552,4
642.475,333.475,      2.20846,      0.24665,50.00000,36.00000,6.921371e-09,0.86552,4
643.999,333.55,      2.17755,      0.24665,50.00000,36.00000,6.907732e-09,0.86547,4
645.53,333.625,      2.14943,      0.27603,50.00000,36.00000,6.907732e-09,0.86547,4
647.043,333.7,      2.12182,      0.27603,50.00000,36.00000,6.918805e-09,0.86542,4
648.567,333.775,      2.09736,      0.30518,50.00000,36.00000,6.918805e-09,0.86542,4
650.091,333.85,      2.07184,      0.30518,50.00000,36.00000,6.936777e-09,0.86538,4
651.613,333.925,      2.04687,      0.30518,50.00000,36.00000,6.936777e-09,0.86538,4
653.141,334,      2.01924,      0.33456,50.00000,36.00000,6.936777e-09,0.86538,4
654.663,334.075,      1.99506,      0.33456,50.00000,36.00000,6.921775e-09,0.86533,4
656.185,334.15,      1.96528,      0.33456,50.00000,36.00000,6.921775e-09,0.86533,4
657.71,334.225,      1.94190,      0.36393,50.00000,36.00000,6.916942e-09,0.86528,4
659.243,334.3,      1.91781,      0.36393,50.00000,36.00000,6.916942e-09,0.86528,4
660.772,334.375,      1.89330,      0.39330,50.00000,36.00000,6.909220e-09,0.86523,4
662.285,334.45,      1.86867,      0.39330,50.00000,36.00000,6.909220e-09,0.86523,4
663.814,334.525,      1.84792,      0.39330,50.00000,36.00000,6.904703e-09,0.86518,4
665.338,334.6,      1.82413,      0.42246,50.00000,36.00000,6.904703e-09,0.86518,4
666.869,334.675,      1.80027,      0.45184,50.00000,36.00000,6.904703e-09,0.86518,4
668.386,334.75,      1.77072,      0.45184,50.00000,36.00000,6.921996e-09,0.86514,4
669.916,334.825,      1.74242,      0.45184,50.00000,36.00000,6.921996e-09,0.86514,4
671.449,334.9,      1.71501,      0.45184,50.00000,36.00000,6.913040e-09,0.86509,4
672.958,334.975,      1.68285,      0.47387,50.00000,36.00000,6.913040e-09,0.86509,4
674.481,335.05,      1.65193,      0.48121,50.00000,36.00000,6.902188e-09,0.86504,4
676.014,335.125,      1.62159,      0.51058,50.00000,36.00000,6.902188e-09,0.86504,4
677.524,335.2,      1.58549,      0.51058,50.00000,36.00000,6.902188e-09,0.86504,4
679.052,335.275,      1.55195,      0.53996,50.00000,36.00000,6.914763e-09,0.86499,4
680.56,335.35,      1.52193,      0.55443,50.00000,36.00000,6.914763e-09,0.86499,4
682.067,335.425,      1.49215,      0.56911,50.00000,36.00000,6.908069e-09,0.86494,4
683.598,335.5,      1.46431,      0.56911,50.00000,36.00000,6.908069e-09,0.86494,4
685.111,335.575,      1.43369,      0.57646,50.00000,36.00000,6.925574e-09,0.86489,4
686.637,335.65,      1.40734,      0.58380,50.00000,36.00000,6.925574e-09,0.86489,4
688.151,335.725,      1.37921,      0.59849,50.00000,36.00000,6.923926e-09,0.86483,4
689.671,335.8,      1.35402,      0.62786,50.00000,36.00000,6.923926e-09,0.86483,4
691.198,335.875,      1.32540,      0.62786,50.00000,36.00000,6.916349e-09,0.86479,4
692.725,335.95,      1.29569,      0.65724,50.00000,36.00000,6.916349e-09,0.86479,4
694.244,336.025,      1.26823,      0.65724,50.00000,36.00000,6.916349e-09,0.86479,4
695.753,336.1,      1.24000,      0.67905,50.00000,36.00000,6.933491e-09,0.86474,4
697.273,336.175,      1.20866,      0.68639,50.00000,36.00000,6.933491e-09,0.86474,4
698.795,336.25,      1.17689,      0.68639,50.00000,36.00000,6.924845e-09,0.86469,4
700.318,336.325,      1.14503,      0.68639,50.00000,36.00000,6.924845e-09,0.86469,4
701.82,336.4,      1.10864,      0.70842,50.00000,36.00000,6.914881e-09,0.86463,4
703.347,336.475,      1.07658,      0.70842,50.00000,36.00000,6.914881e-09,0.86463,4
704.858,336.55,      1.04237,      0.71577,50.00000,36.00000,6.919423e-09,0.86458,4
706.383,336.625,      1.01489,      0.74514,50.00000,36.00000,6.919423e-09,0.86458,4
707.9,336.7,      0.97845,      0.74514,50.00000,36.00000,6.919423e-09,0.86458,4
709.416,336.775,      0.94668,      0.74514,50.00000,36.00000,6.918497e-09,0.86452,4
710.934,336.85,      0.91517,      0.77451,50.00000,36.00000,6.918497e-09,0.86452,4
712.453,336.925,      0.88390,      0.80367,50.00000,36.00000,6.907814e-09,0.86447,4
713.972,337,      0.85221,      0.80367,50.00000,36.00000,6.907814e-09,0.86447,4
715.483,337.075,      0.81458,      0.80367,50.00000,36.00000,6.925760e-09,0.86443,4
717.005,337.15,      0.78097,      0.80367,50.00000,36.00000,6.925760e-09,0.86443,4
718.515,337.225,      0.74417,      0.83305,50.00000,36.00000,6.920606e-09,0.86437,4
720.035,337.3,      0.70967,      0.83305,50.00000,36.00000,6.920606e-09,0.86437,4
721.549,337.375,      0.67612,      0.86242,50.00000,36.00000,6.920606e-09,0.86437,4
723.063,337.45,      0.63728,      0.86242,50.00000,36.00000,6.927289e-09,0.86434,4
724.581,337.525,      0.59834,      0.86242,50.00000,36.00000,6.927289e-09,0.86434,4
726.093,337.6,      0.56205,      0.86242,50.00000,36.00000,6.911840e-09,0.86428,4
727.614,337.675,      0.52741,      0.89179,50.00000,36.00000,6.911840e-09,0.86428,4
729.129,337.75,      0.48919,      0.89179,50.00000,36.00000,6.927486e-09,0.86424,4
730.637,337.825,      0.44982,      0.92095,50.00000,36.00000,6.927486e-09,0.86424,4
732.16,337.9,      0.40581,      0.92095,50.00000,36.00000,6.932203e-09,0.86418,4
733.672,337.975,      0.36796,      0.92095,50.00000,36.00000,6.932203e-09,0.86418,4
735.184,338.05,      0.32546,      0.95032,50.00000,36.00000,6.932203e-09,0.86418,4
736.694,338.125,      0.28284,      0.97970,50.00000,36.00000,6.922310e-09,0.86414,4
738.217,338.2,      0.23941,      0.97970,50.00000,36.00000,6.922310e-09,0.86414,4
739.729,338.275,      0.19762,      0.97970,50.00000,36.00000,6.922508e-09,0.86408,4
741.243,338.35,      0.15184,      0.97970,50.00000,36.00000,6.922508e-09,0.86408,4
742.761,338.425,      0.10981,      0.97970,50.00000,36.00000,6.915660e-09,0.86404,4
744.271,338.5, 6.660958e-02,      1.00907,50.00000,36.00000,6.915660e-09,0.86404,4
745.793,338.575, 2.188046e-02,      1.01641,50.00000,36.00000,6.915660e-09,0.86404,4
747.313,338.65,-2.226352e-02,      1.06760,50.00000,36.00000,6.913635e-09,0.86399,4
748.813,338.725,-6.864922e-02,      1.06760,50.00000,36.00000,6.913635e-09,0.86399,4
750.341,338.8,     -0.11764,      1.04557,50.00000,36.00000,6.905609e-09,0.86394,4
751.856,338.875,     -0.16783,      1.04557,50.00000,36.00000,6.905609e-09,0.86394,4
753.359,338.95,     -0.21851,      1.07495,50.00000,36.00000,6.923282e-09,0.86389,4
754.878,339.025,     -0.27039,      1.07495,50.00000,36.00000,6.923282e-09,0.86389,4
756.388,339.1,     -0.32384,      1.10432,50.00000,36.00000,6.923282e-09,0.86389,4
757.897,339.175,     -0.37279,      1.10432,50.00000,36.00000,6.927988e-09,0.86384,4
759.42,339.25,     -0.42187,      1.10432,50.00000,36.00000,6.927988e-09,0.86384,4
760.939,339.325,     -0.46966,      1.15551,50.00000,36.00000,6.921450e-09,0.86379,4
762.457,339.4,     -0.52044,      1.16285,50.00000,36.00000,6.921450e-09,0.86379,4
763.984,339.475,     -0.57315,      1.16285,50.00000,36.00000,6.910048e-09,0.86374,4
765.511,339.55,     -0.62350,      1.16285,50.00000,36.00000,6.910048e-09,0.86374,4
767.025,339.625,     -0.67936,      1.19222,50.00000,36.00000,6.915678e-09,0.86369,4
768.542,339.7,     -0.73574,      1.19222,50.00000,36.00000,6.915678e-09,0.86369,4
770.061,339.775,     -0.79299,      1.19222,50.00000,36.00000,6.915678e-09,0.86369,4
771.576,339.85,     -0.85255,      1.19957,50.00000,36.00000,6.925615e-09,0.86364,4
773.077,339.925,     -0.91263,      1.22160,50.00000,36.00000,6.925615e-09,0.86364,4
774.593,340,     -0.96962,      1.22160,50.00000,36.00000,6.922496e-09,0.86359,4
776.108,340.075,     -1.03184,      1.25097,50.00000,36.00000,6.922496e-09,0.86359,4
777.622,340.15,     -1.09132,      1.25097,50.00000,36.00000,6.913144e-09,0.86355,4
779.129,340.225,     -1.15095,      1.25097,50.00000,36.00000,6.913144e-09,0.86355,4
780.642,340.3,     -1.20820,      1.28013,50.00000,36.00000,6.911542e-09,0.86349,4
782.146,340.375,     -1.26486,      1.28013,50.00000,36.00000,6.911542e-09,0.86349,4
783.658,340.45,     -1.32898,      1.28013,50.00000,36.00000,6.911542e-09,0.86349,4
785.162,340.525,     -1.38413,      1.28013,50.00000,36.00000,6.919730e-09,0.86344,4
786.682,340.6,     -1.44311,      1.30216,50.00000,36.00000,6.919730e-09,0.86344,4
788.191,340.675,     -1.49783,      1.30216,50.00000,36.00000,6.911081e-09,0.86338,4
789.691,340.75,     -1.56039,      1.33888,50.00000,36.00000,            ,0.44902,4
791.206,340.825,     -1.61800,      1.33888,50.00000,36.00000,            ,0.44841,4
792.725,340.9,     -1.67687,      1.33888,50.00000,36.00000,            ,0.44780,4
794.24,340.975,     -1.73406,      1.33888,50.00000,36.00000,            ,0.44720,4
794.745,341,     -1.75770,      1.36091,50.00000,36.00000,            ,0.44699,4