File: data/TGA/commercial_samples/ExpDat_2025_08_21_SL_PS_Cup_Lid_SCF3_Isothermal.csv
#EXPORTTYPE:                 ,DATA ALL
#FILE:                       ,2025_08_21_SL_PS_Cup_Lid_SCF3_Isothermal.ngb-ss5
#FORMAT:                     ,NETZSCH5
#FTYPE:                      ,ASCII
#IDENTITY:                   ,PS-CUP-LID-SCF3
#DECIMAL:                    ,POINT
#SEPARATOR:                  ,COMMA
#MTYPE:                      ,TG
#INSTRUMENT:                 ,NETZSCH STA 449F5
#PROJECT:                    ,NO2
#DATE/TIME:                  ,8/21/2025 9:04:38 AM (UTC-4)
#CORR. FILE:                 ,
#TEMPCAL:                    ,05-05-2025 14:38
#SENSITIVITY:                ,28-06-2023 13:53
#LABORATORY:                 ,Seferos
#OPERATOR:                   ,Peter
#REMARK:                     ,2025_03_29_SL_005d_M1_isothermal
#SAMPLE:                     ,PS-CUP-LID-SCF3
#SAMPLE MASS /mg:            ,4.58
#MATERIAL:                   ,Polystyrene
#REFERENCE:                  ,
#REFERENCE MASS /mg:         ,0
#TYPE OF CRUCIBLE:           ,Al2O3 85 ‘l, open
#SAMPLE CRUCIBLE MASS /mg:   ,0
#REFERENCE CRUCIBLE MASS /mg:,0
#DSC RANGE /‘V:              ,5000
#TG RANGE /mg:               ,35000
#TAU-R:                      ,---
#CORR. CODE:                 ,000
#EXO:                        ,-1
#RANGE:                      ,30›C....800›C/0.0....20.0K/min
#SEGMENT:                    ,S1-5/5
#SEG. 1:                     ,30›C/10.0(K/min)/100›C
#SEG. 2:                     ,100›C/00:10/100›C
#SEG. 3:                     ,100›C/5.0(K/min)/300›C
#SEG. 4:                     ,300›C/20:00/300›C
#SEG. 5:                     ,300›C/20.0(K/min)/800›C

##Temp./›C,Time/min,Mass/%,Sensit./(uV/mW),Segment
 27.81500,   0.00000,    100,0.92313,1
 29.43300,   0.60000,     99.58996,0.92345,1
 31.49500,   1.20000,     96.17620,0.92382,1
 34.28900,   1.80000,     90.74934,0.92429,1
 37.66900,   2.40000,     92.67358,0.92478,1
 41.59800,   3.00000,     93.25895,0.92526,1
 46.06300,   3.60000,     93.73821,0.92569,1
 51.19300,   4.20000,     94.27183,0.92602,1
 56.94000,   4.80000,     94.80786,0.92619,1
 63.23900,   5.40000,     95.30677,0.92614,1
 69.94200,   6.00000,     95.69454,0.92581,1
 76.93400,   6.60000,     96.06507,0.92518,1
 82.92200,   7.10000,     96.30721,0.92440,2
 86.51800,   7.40000,     96.36157,0.92383,2
 89.85500,   7.70000,     96.16638,0.92324,2
 92.78700,   8.00000,     95.81812,0.92266,2
 95.33600,   8.30000,     95.38821,0.92212,2
 97.47300,   8.60000,     95.02751,0.92163,2
 99.29700,   8.90000,     94.62489,0.92120,2
100.892,   9.20000,     94.31856,0.92081,2
102.315,   9.50000,     94.09891,0.92044,2
103.641,   9.80000,     93.87162,0.92009,2
104.844,  10.10000,     93.68624,0.91977,2
105.935,  10.40000,     93.49607,0.91946,2
106.908,  10.70000,     93.27882,0.91919,2
107.74,  11.00000,     93.08362,0.91895,2
108.413,  11.30000,     92.81921,0.91875,2
108.942,  11.60000,     92.58952,0.91860,2
109.369,  11.90000,     92.29301,0.91847,2
109.666,  12.20000,     92.10546,0.91838,2
109.879,  12.50000,     91.88559,0.91832,2
110.005,  12.80000,     91.65830,0.91828,2
110.062,  13.10000,     91.50022,0.91826,2
110.057,  13.40000,     91.28537,0.91826,2
109.985,  13.70000,     91.12969,0.91828,2
109.863,  14.00000,     90.94432,0.91832,2
109.672,  14.30000,     90.79629,0.91838,2
109.477,  14.60000,     90.60852,0.91844,2
109.21,  14.90000,     90.45786,0.91852,2
108.944,  15.20000,     90.30721,0.91860,2
108.645,  15.50000,     90.13428,0.91868,2
108.318,  15.80000,     90.03035,0.91878,2
107.99,  16.10000,     89.87729,0.91888,2
107.637,  16.40000,     89.75633,0.91898,2
107.271,  16.70000,     89.66485,0.91908,2
106.905,  17.00000,     89.54629,0.91919,2
106.28,  17.60000,     89.51419,0.91937,3
106.287,  18.20000,     89.87489,0.91936,3
106.962,  18.80000,     90.26026,0.91917,3
108.103,  19.40000,     90.54672,0.91884,3
109.558,  20.00000,     90.87031,0.91841,3
111.361,  20.60000,     91.08515,0.91786,3
113.529,  21.20000,     91.35437,0.91718,3
116.054,  21.80000,     91.65830,0.91635,3
118.83,  22.40000,     91.89782,0.91540,3
121.856,  23.00000,     92.14978,0.91431,3
125.045,  23.60000,     92.32773,0.91312,3
128.38,  24.20000,     92.44629,0.91181,3
131.817,  24.80000,     92.56485,0.91041,3
135.314,  25.40000,     92.66114,0.90892,3
138.852,  26.00000,     92.72795,0.90735,3
142.414,  26.60000,     92.79694,0.90570,3
145.952,  27.20000,     92.79956,0.90401,3
149.492,  27.80000,     92.82904,0.90226,3
152.973,  28.40000,     92.82183,0.90048,3
156.413,  29.00000,     92.81921,0.89866,3
159.813,  29.60000,     92.81179,0.89682,3
163.157,  30.20000,     92.78231,0.89495,3
166.464,  30.80000,     92.75262,0.89306,3
169.708,  31.40000,     92.74520,0.89116,3
172.917,  32.00000,     92.71550,0.88923,3
176.101,  32.60000,     92.65633,0.88728,3
179.235,  33.20000,     92.62664,0.88532,3
182.354,  33.80000,     92.56725,0.88333,3
185.446,  34.40000,     92.54498,0.88132,3
188.508,  35.00000,     92.50808,0.87929,3
191.57,  35.60000,     92.47096,0.87723,3
194.607,  36.20000,     92.40917,0.87515,3
197.625,  36.80000,     92.37707,0.87305,3
200.643,  37.40000,     92.28319,0.87091,3
203.641,  38.00000,     92.28581,0.86876,3
206.648,  38.60000,     92.22642,0.86658,3
209.659,  39.20000,     92.13755,0.86436,3
212.643,  39.80000,     92.07576,0.86213,3
215.628,  40.40000,     92.03122,0.85987,3
218.604,  41.00000,     91.94236,0.85759,3
221.597,  41.60000,     91.80895,0.85527,3
224.57,  42.20000,     91.76441,0.85295,3
227.552,  42.80000,     91.66070,0.85059,3
230.531,  43.40000,     91.54214,0.84820,3
233.518,  44.00000,     91.45328,0.84579,3
236.485,  44.60000,     91.30502,0.84337,3
239.471,  45.20000,     91.18646,0.84091,3
242.456,  45.80000,     91.07031,0.83843,3
245.442,  46.40000,     90.92227,0.83593,3
248.415,  47.00000,     90.77402,0.83341,3
251.411,  47.60000,     90.59367,0.83086,3
254.404,  48.20000,     90.45786,0.82829,3
257.39,  48.80000,     90.26026,0.82571,3
260.378,  49.40000,     90.05022,0.82311,3
263.372,  50.00000,     89.86485,0.82048,3
266.369,  50.60000,     89.68712,0.81784,3
269.352,  51.20000,     89.50677,0.81519,3
272.342,  51.80000,     89.29192,0.81252,3
275.326,  52.40000,     89.02271,0.80984,3
278.31,  53.00000,     88.81026,0.80715,3
281.299,  53.60000,     88.56572,0.80444,3
284.302,  54.20000,     88.32598,0.80170,3
287.296,  54.80000,     88.07664,0.79896,3
290.275,  55.40000,     87.82948,0.79622,3
293.261,  56.00000,     87.56769,0.79346,3
296.246,  56.60000,     87.28362,0.79070,3
300.484,  57.50000,     86.76485,0.78675,4
302.578,  59.00000,     85.50502,0.78480,4
303.417,  60.50000,     84.70961,0.78402,4
303.097,  62.00000,     83.98100,0.78431,4
302.537,  63.50000,     83.42511,0.78484,4
301.944,  65.00000,     82.99782,0.78539,4
301.43,  66.50000,     82.58537,0.78587,4
301.01,  68.00000,     82.25437,0.78626,4
300.717,  69.50000,     81.93319,0.78654,4
300.49,  71.00000,     81.71594,0.78675,4
300.341,  72.50000,     81.38493,0.78689,4
300.249,  74.00000,     81.14279,0.78697,4
300.155,  75.50000,     80.92795,0.78706,4
300.118,  77.00000,     80.71550,0.78710,4
300.08,  78.50000,     80.46354,0.78713,4
300.049,  80.00000,     80.25109,0.78716,4
300.024,  81.50000,     80.07314,0.78718,4
300.012,  83.00000,     79.89279,0.78719,4
300.015,  84.50000,     79.72991,0.78719,4
300.037,  86.00000,     79.58166,0.78717,4
300.022,  87.50000,     79.39389,0.78719,4
300.018,  89.00000,     79.29017,0.78719,4
300.008,  90.50000,     79.11223,0.78720,4
300.016,  92.00000,     78.99127,0.78719,4
299.998,  93.50000,     78.84301,0.78721,4
300.007,  95.00000,     78.74432,0.78720,4
300.003,  96.50000,     78.62576,0.78720,4
300.021,  98.00000,     78.52686,0.78719,4
300.003,  99.50000,     78.42795,0.78720,4
300.008, 101,     78.31943,0.78720,4
300.014, 102.5,     78.20830,0.78719,4
300.014, 104,     78.13646,0.78719,4
300.02, 105.5,     78.04760,0.78719,4
300.034, 107,     77.94389,0.78717,4
300.016, 108.5,     77.84760,0.78719,4
300.011, 110,     77.75873,0.78720,4
300.02, 111.5,     77.71419,0.78719,4
300.01, 113,     77.63755,0.78720,4
300.006, 114.5,     77.56354,0.78720,4
300.014, 116,     77.49672,0.78719,4
300.007, 117.5,     77.39803,0.78720,4
300.01, 119,     77.37817,0.78720,4
300.014, 120.5,     77.33865,0.78719,4
300.008, 122,     77.31157,0.78720,4
300.02, 123.5,     77.14607,0.78719,4
300.019, 125,     77.12620,0.78719,4
300.01, 126.5,     77.03974,0.78720,4
300.018, 128,     77.01266,0.78719,4
300.023, 129.5,     76.91135,0.78718,4
300.022, 131,     76.87424,0.78719,4
300.015, 132.5,     76.81507,0.78719,4
300.02, 134,     76.80764,0.78719,4
300.006, 135.5,     76.76310,0.78720,4
300.017, 137,     76.70393,0.78719,4
300.013, 138.5,     76.64454,0.78719,4
300.016, 140,     76.59017,0.78719,4
300.029, 141.5,     76.54585,0.78718,4
300.014, 143,     76.52358,0.78719,4
300.027, 144.5,     76.45677,0.78718,4
300.013, 146,     76.41245,0.78719,4
300.011, 147.5,     76.36550,0.78720,4
300.009, 149,     76.32838,0.78720,4
300.002, 150.5,     76.31856,0.78720,4
300.008, 152,     76.26179,0.78720,4
300.017, 153.5,     76.20240,0.78719,4
300.021, 155,     76.15044,0.78719,4
300.007, 156.5,     76.15044,0.78720,4
300.009, 158,     76.08384,0.78720,4
300.019, 159.5,     76.06157,0.78719,4
300.017, 161,     76.00983,0.78719,4
300.016, 162.5,     75.96288,0.78719,4
300.012, 164,     75.96769,0.78719,4
300.017, 165.5,     75.91834,0.78719,4
300.015, 167,     75.89607,0.78719,4
300.022, 168.5,     75.82205,0.78719,4
300.022, 170,     75.79738,0.78719,4
300.015, 171.5,     75.74782,0.78719,4
300.02, 173,     75.71834,0.78719,4
300.015, 174.5,     75.68865,0.78719,4
300.01, 176,     75.62686,0.78720,4
300.019, 177.5,     75.57489,0.78719,4
300.022, 179,     75.54541,0.78719,4
300.018, 180.5,     75.50830,0.78719,4
300.016, 182,     75.51070,0.78719,4
300.014, 183.5,     75.47380,0.78719,4
300.011, 185,     75.41441,0.78720,4
300.011, 186.5,     75.39956,0.78720,4
300.003, 188,     75.38472,0.78720,4
300.003, 189.5,     75.32555,0.78720,4
300.009, 191,     75.28100,0.78720,4
300.015, 192.5,     75.24389,0.78719,4
300.014, 194,     75.24148,0.78719,4
300.006, 195.5,     75.21179,0.78720,4
300.016, 197,     75.16004,0.78719,4
300.016, 198.5,     75.13035,0.78719,4
300.009, 200,     75.08581,0.78720,4
300.02, 201.5,     75.05633,0.78719,4
300.023, 203,     75.02664,0.78718,4
300.021, 204.5,     75.03166,0.78719,4
300.009, 206,     74.99454,0.78720,4
300.012, 207.5,     74.95000,0.78719,4
300.018, 209,     74.90568,0.78719,4
300.012, 210.5,     74.89825,0.78719,4
300.018, 212,     74.85371,0.78719,4
300.017, 213.5,     74.82402,0.78719,4
300.021, 215,     74.76485,0.78719,4
300.02, 216.5,     74.75742,0.78719,4
300.02, 218,     74.71288,0.78719,4
300.018, 219.5,     74.70546,0.78719,4
300.024, 221,     74.68319,0.78718,4
300.02, 222.5,     74.63886,0.78719,4
300.014, 224,     74.60175,0.78719,4
300.016, 225.5,     74.60175,0.78719,4
300.012, 227,     74.57205,0.78719,4
300.02, 228.5,     74.54236,0.78719,4
300.012, 230,     74.47576,0.78719,4
300.018, 231.5,     74.46834,0.78719,4
300.018, 233,     74.43865,0.78719,4
300.009, 234.5,     74.43865,0.78720,4
300.005, 236,     74.37948,0.78720,4
300.022, 237.5,     74.38428,0.78719,4
300.015, 239,     74.34738,0.78719,4
300.019, 240.5,     74.28559,0.78719,4
300.005, 242,     74.24105,0.78720,4
300.015, 243.5,     74.26332,0.78719,4
300.005, 245,     74.20415,0.78720,4
300.021, 246.5,     74.19672,0.78719,4
300.015, 248,     74.16703,0.78719,4
300.023, 249.5,     74.13734,0.78718,4
300.017, 251,     74.11266,0.78719,4
300.023, 252.5,     74.06070,0.78718,4
300.02, 254,     74.03122,0.78719,4
300.024, 255.5,     74.00895,0.78718,4
300.009, 257,     73.94956,0.78720,4
300.01, 258.5,     73.93472,0.78720,4
300.016, 260,     73.93472,0.78719,4
300.014, 261.5,     73.90524,0.78719,4
300.018, 263,     73.87555,0.78719,4
300.028, 264.5,     73.84585,0.78718,4
300.009, 266,     73.79410,0.78720,4
300.014, 267.5,     73.77183,0.78719,4
300.018, 269,     73.75459,0.78719,4
300.018, 270.5,     73.72227,0.78719,4
300.022, 272,     73.69017,0.78719,4
300.018, 273.5,     73.66812,0.78719,4
300.021, 275,     73.63843,0.78719,4
300.014, 276.5,     73.63341,0.78719,4
300.02, 278,     73.62598,0.78719,4
300.015, 279.5,     73.56681,0.78719,4
300.021, 281,     73.53472,0.78719,4
300.02, 282.5,     73.51987,0.78719,4
300.017, 284,     73.49017,0.78719,4
300.009, 285.5,     73.50000,0.78720,4
300.015, 287,     73.43341,0.78719,4
300.017, 288.5,     73.41856,0.78719,4
300.021, 290,     73.41114,0.78719,4
300.015, 291.5,     73.37162,0.78719,4
300.01, 293,     73.33450,0.78720,4
300.014, 294.5,     73.34934,0.78719,4
300.016, 296,     73.28275,0.78719,4
300.008, 297.5,     73.27533,0.78720,4
300.014, 299,     73.26048,0.78719,4
300.023, 300.5,     73.23079,0.78718,4
300.022, 302,     73.19367,0.78719,4
300.011, 303.5,     73.19367,0.78720,4
300.002, 305,     73.16419,0.78720,4
300.006, 306.5,     73.11965,0.78720,4
300.032, 308,     73.12205,0.78718,4
300.011, 309.5,     73.07511,0.78720,4
300.019, 311,     73.07031,0.78719,4
300.01, 312.5,     73.03821,0.78720,4
300.013, 314,     73.01092,0.78719,4
300.009, 315.5,     73.00349,0.78720,4
300.01, 317,     72.98624,0.78720,4
300.012, 318.5,     72.92707,0.78719,4
300.022, 320,     72.92707,0.78719,4
300.01, 321.5,     72.88493,0.78720,4
300.012, 323,     72.87751,0.78719,4
300.011, 324.5,     72.95655,0.78720,4
300.018, 326,     72.86769,0.78719,4
300.022, 327.5,     72.81572,0.78719,4
300.021, 329,     72.77882,0.78719,4
300.022, 330.5,     72.76638,0.78719,4
300.043, 332,     72.70721,0.78717,4
300.018, 333.5,     72.72205,0.78719,4
300.021, 335,     72.66266,0.78719,4
300.032, 336.5,     72.62555,0.78718,4
300.022, 338,     72.56135,0.78719,4
300.025, 339.5,     72.50961,0.78718,4
300.024, 341,     72.50961,0.78718,4
300.007, 342.5,     72.50459,0.78720,4
300.006, 344,     72.50459,0.78720,4
300, 345.5,     72.47489,0.78721,4
300.021, 347,     72.46004,0.78719,4
300.001, 348.5,     72.45262,0.78721,4
300.012, 350,     72.42314,0.78719,4
300.005, 351.5,     72.40087,0.78720,4
300.005, 353,     72.37860,0.78720,4
300.015, 354.5,     72.37118,0.78719,4
300.03, 356,     72.36376,0.78718,4
300.019, 357.5,     72.31681,0.78719,4
300.005, 359,     72.30939,0.78720,4
300.017, 360.5,     72.26507,0.78719,4
300.021, 362,     72.23537,0.78719,4
300.017, 363.5,     72.22795,0.78719,4
300.021, 365,     72.21310,0.78719,4
300.028, 366.5,     72.15131,0.78718,4
300.004, 368,     72.18341,0.78720,4
300.017, 369.5,     72.16856,0.78719,4
300.013, 371,     72.10939,0.78719,4
300.018, 372.5,     72.10939,0.78719,4
300.007, 374,     72.06485,0.78720,4
300.01, 375.5,     72.05000,0.78720,4
300.012, 377,     72.01310,0.78719,4
300.016, 378.5,     72.00568,0.78719,4
300.029, 380,     71.99825,0.78718,4
300.017, 381.5,     71.93886,0.78719,4
300.01, 383,     71.93886,0.78720,4
300.017, 384.5,     71.87707,0.78719,4
300.03, 386,     71.86965,0.78718,4
300.02, 387.5,     71.86223,0.78719,4
300.032, 389,     71.84017,0.78718,4
300.007, 390.5,     71.80808,0.78720,4
300.018, 392,     71.78581,0.78719,4
300.009, 393.5,     71.74127,0.78720,4
300.018, 395,     71.71157,0.78719,4
300.018, 396.5,     71.65240,0.78719,4
300.013, 398,     71.65240,0.78719,4
300.014, 399.5,     71.66725,0.78719,4
300.024, 401,     71.59301,0.78718,4
300.011, 402.5,     71.57074,0.78720,4
300.013, 404,     71.55611,0.78719,4
300.014, 405.5,     71.54127,0.78719,4
300.018, 407,     71.57336,0.78719,4
300.018, 408.5,     71.52882,0.78719,4
300.022, 410,     71.36572,0.78719,4
300.009, 411.5,     71.40284,0.78720,4
300.019, 413,     71.37576,0.78719,4
300.021, 414.5,     71.36834,0.78719,4
300.009, 416,     71.34607,0.78720,4
300.014, 417.5,     71.33122,0.78719,4
300.005, 419,     71.27926,0.78720,4
300.009, 420.5,     71.27926,0.78720,4
300.003, 422,     71.24236,0.78720,4
300.017, 423.5,     71.26463,0.78719,4
300, 425,     71.21026,0.78721,4
300.033, 426.5,     71.18297,0.78718,4
300.02, 428,     71.16812,0.78719,4
300.018, 429.5,     71.10393,0.78719,4
300.014, 431,     71.08166,0.78719,4
300.008, 432.5,     71.08166,0.78720,4
300.021, 434,     71.10393,0.78719,4
300.001, 435.5,     71.05961,0.78721,4
300.024, 437,     70.99520,0.78718,4
300.028, 438.5,     70.97314,0.78718,4
300.018, 440,     70.93843,0.78719,4
300.029, 441.5,     70.97052,0.78718,4
300.021, 443,     70.91135,0.78719,4
300.028, 444.5,     70.91878,0.78718,4
300.026, 446,     70.87424,0.78718,4
300.024, 447.5,     70.87664,0.78718,4
300.015, 449,     70.81747,0.78719,4
300.021, 450.5,     70.79520,0.78719,4
300.005, 452,     70.78777,0.78720,4
300.012, 453.5,     70.73603,0.78719,4
300.004, 455,     70.70633,0.78720,4
300.018, 456.5,     70.69148,0.78719,4
300.006, 458,     70.65197,0.78720,4
300.015, 459.5,     70.65197,0.78719,4
300.017, 461,     70.65197,0.78719,4
300.009, 462.5,     70.61485,0.78720,4
300.012, 464,     70.59760,0.78719,4
300.018, 465.5,     70.56048,0.78719,4
300.015, 467,     70.56790,0.78719,4
300.009, 468.5,     70.51114,0.78720,4
300.001, 470,     70.51114,0.78721,4
300.012, 471.5,     70.45175,0.78719,4
300.003, 473,     70.44934,0.78720,4
300.011, 474.5,     70.43450,0.78720,4
300.024, 476,     70.38013,0.78718,4
300.03, 477.5,     70.38013,0.78718,4
300.012, 479,     70.33581,0.78719,4
300.026, 480.5,     70.33581,0.78718,4
300.011, 482,     70.28384,0.78720,4
300.008, 483.5,     70.28384,0.78720,4
300.02, 485,     70.23210,0.78719,4
299.995, 486.5,     70.21463,0.78721,4
300.02, 488,     70.21463,0.78719,4
300.018, 489.5,     70.16288,0.78719,4
300.015, 491,     70.14803,0.78719,4
300.018, 492.5,     70.11092,0.78719,4
300.015, 494,     70.11834,0.78719,4
300.02, 495.5,     70.08122,0.78719,4
300.014, 497,     70.03450,0.78719,4
300.015, 498.5,     70.05415,0.78719,4
300.008, 500,     70.00218,0.78720,4
300.026, 501.5,     69.96769,0.78718,4
300.023, 503,     69.95284,0.78718,4
300.017, 504.5,     69.95044,0.78719,4
300.007, 506,     69.90109,0.78720,4
300.011, 507.5,     69.87140,0.78720,4
300.015, 509,     69.86157,0.78719,4
300.022, 510.5,     69.83930,0.78719,4
300.02, 512,     69.81703,0.78719,4
300.013, 513.5,     69.80218,0.78719,4
300.012, 515,     69.74301,0.78719,4
300.02, 516.5,     69.74541,0.78719,4
300.017, 518,     69.71572,0.78719,4
300.023, 519.5,     69.67118,0.78718,4
300.014, 521,     69.63668,0.78719,4
300.011, 522.5,     69.63668,0.78720,4
300.02, 524,     69.59214,0.78719,4
300.018, 525.5,     69.57009,0.78719,4
300.017, 527,     69.55524,0.78719,4
300.015, 528.5,     69.52555,0.78719,4
300.006, 530,     69.49345,0.78720,4
300.008, 531.5,     69.48603,0.78720,4
300.017, 533,     69.47118,0.78719,4
300.027, 534.5,     69.46376,0.78718,4
300.009, 536,     69.40459,0.78720,4
300.017, 537.5,     69.38231,0.78719,4
300.016, 539,     69.38974,0.78719,4
300.014, 540.5,     69.34520,0.78719,4
300.014, 542,     69.31310,0.78719,4
300.009, 543.5,     69.26114,0.78720,4
300.008, 545,     69.26856,0.78720,4
300.012, 546.5,     69.22904,0.78719,4
300.022, 548,     69.25131,0.78719,4
300.018, 549.5,     69.19956,0.78719,4
300.015, 551,     69.15502,0.78719,4
300.035, 552.5,     69.15262,0.78717,4
300.03, 554,     69.13035,0.78718,4
300.02, 555.5,     69.10066,0.78719,4
300.01, 557,     69.07096,0.78720,4
300.012, 558.5,     69.03406,0.78719,4
300.019, 560,     69.03406,0.78719,4
300.016, 561.5,     68.97467,0.78719,4
300.023, 563,     68.94498,0.78718,4
300.021, 564.5,     68.95240,0.78719,4
300.027, 566,     68.92293,0.78718,4
300.026, 567.5,     68.89323,0.78718,4
300.017, 569,     68.84127,0.78719,4
300.016, 570.5,     68.82642,0.78719,4
300.015, 572,     68.82642,0.78719,4
300.016, 573.5,     68.77467,0.78719,4
300.017, 575,     68.75240,0.78719,4
300.013, 576.5,     68.75983,0.78719,4
300.011, 578,     68.73013,0.78720,4
300.019, 579.5,     68.70044,0.78719,4
300.018, 581,     68.66594,0.78719,4
300.022, 582.5,     68.62882,0.78719,4
300.014, 584,     68.57707,0.78719,4
300.013, 585.5,     68.57205,0.78719,4
300.019, 587,     68.54978,0.78719,4
300.011, 588.5,     68.49803,0.78720,4
300.032, 590,     68.49061,0.78718,4
300.015, 591.5,     68.46092,0.78719,4
300.018, 593,     68.46092,0.78719,4
300.022, 594.5,     68.43865,0.78719,4
300.026, 596,     68.38690,0.78718,4
300.012, 597.5,     68.37205,0.78719,4
300.009, 599,     68.34978,0.78720,4
300.029, 600.5,     68.29782,0.78718,4
300.009, 602,     68.27555,0.78720,4
300.02, 603.5,     68.27314,0.78719,4
300.02, 605,     68.25590,0.78719,4
300.018, 606.5,     68.24105,0.78719,4
300.033, 608,     68.19651,0.78718,4
300.03, 609.5,     68.16703,0.78718,4
300.025, 611,     68.14476,0.78718,4
300.026, 612.5,     68.17445,0.78718,4
300.02, 614,     68.12249,0.78719,4
300.028, 615.5,     68.10022,0.78718,4
300.021, 617,     68.07795,0.78719,4
300.004, 618.5,     68.01878,0.78720,4
300.017, 620,     68.01878,0.78719,4
300.009, 621.5,     67.95939,0.78720,4
300.013, 623,     67.93712,0.78719,4
300.024, 624.5,     67.95459,0.78718,4
300.012, 626,     67.91004,0.78719,4
300.014, 627.5,     67.88297,0.78719,4
300.018, 629,     67.84585,0.78719,4
300.014, 630.5,     67.83843,0.78719,4
300.017, 632,     67.84083,0.78719,4
300.015, 633.5,     67.78406,0.78719,4
300, 635,     67.75437,0.78721,4
300.02, 636.5,     67.72489,0.78719,4
300.026, 638,     67.73952,0.78718,4
300.03, 639.5,     67.70262,0.78718,4
300.014, 641,     67.65808,0.78719,4
300.025, 642.5,     67.65808,0.78718,4
300.017, 644,     67.62838,0.78719,4
300.017, 645.5,     67.62838,0.78719,4
300.018, 647,     67.53952,0.78719,4
300.016, 648.5,     67.55437,0.78719,4
300.015, 650,     67.51725,0.78719,4
300.012, 651.5,     67.47293,0.78719,4
300.041, 653,     67.48013,0.78717,4
300.016, 654.5,     67.44323,0.78719,4
300.02, 656,     67.44323,0.78719,4
300.016, 657.5,     67.39127,0.78719,4
300.01, 659,     67.37642,0.78720,4
299.996, 660.5,     67.35437,0.78721,4
300.018, 662,     67.31965,0.78719,4
300.022, 663.5,     67.30480,0.78719,4
300.03, 665,     67.27773,0.78718,4
300.017, 666.5,     67.24803,0.78719,4
300.024, 668,     67.23319,0.78718,4
300.015, 669.5,     67.22576,0.78719,4
300.028, 671,     67.19607,0.78718,4
300.021, 672.5,     67.13690,0.78719,4
300.014, 674,     67.09978,0.78719,4
300.016, 675.5,     67.12205,0.78719,4
300.01, 677,     67.09236,0.78720,4
300.014, 678.5,     67.06288,0.78719,4
300.019, 680,     67.02576,0.78719,4
300.025, 681.5,     67.01092,0.78718,4
300.01, 683,     67.00349,0.78720,4
300.018, 684.5,     66.95895,0.78719,4
300.015, 686,     66.93188,0.78719,4
300.009, 687.5,     66.91703,0.78720,4
300.014, 689,     66.87991,0.78719,4
300.009, 690.5,     66.87249,0.78720,4
300.017, 692,     66.87249,0.78719,4
300.004, 693.5,     66.83559,0.78720,4
300.014, 695,     66.80830,0.78719,4
300.018, 696.5,     66.74913,0.78719,4
300.017, 698,     66.74170,0.78719,4
300.02, 699.5,     66.71201,0.78719,4
300.011, 701,     66.68974,0.78720,4
300.018, 702.5,     66.68231,0.78719,4
300.007, 704,     66.67489,0.78720,4
300.006, 705.5,     66.62314,0.78720,4
300.017, 707,     66.59345,0.78719,4
300.018, 708.5,     66.56376,0.78719,4
300.004, 710,     66.53406,0.78720,4
300.014, 711.5,     66.53406,0.78719,4
300.023, 713,     66.52686,0.78718,4
300.014, 714.5,     66.47489,0.78719,4
300.031, 716,     66.48231,0.78718,4
300.026, 717.5,     66.42293,0.78718,4
300.032, 719,     66.39825,0.78718,4
300.014, 720.5,     66.36616,0.78719,4
300.019, 722,     66.36376,0.78719,4
300.016, 723.5,     66.34148,0.78719,4
300.014, 725,     66.33406,0.78719,4
300.025, 726.5,     66.31179,0.78718,4
300.015, 728,     66.27489,0.78719,4
300.006, 729.5,     66.26004,0.78720,4
300.02, 731,     66.22293,0.78719,4
300.016, 732.5,     66.19323,0.78719,4
300.02, 734,     66.16354,0.78719,4
300.024, 735.5,     66.14148,0.78718,4
300.022, 737,     66.10437,0.78719,4
300.026, 738.5,     66.10677,0.78718,4
300.015, 740,     66.08450,0.78719,4
300.01, 741.5,     66.04760,0.78720,4
300.021, 743,     66.01048,0.78719,4
300.007, 744.5,     66.00306,0.78720,4
300.023, 746,     65.95852,0.78718,4
300.025, 747.5,     65.94869,0.78718,4
300.022, 749,     65.91900,0.78719,4
300.02, 750.5,     65.87467,0.78719,4
300.008, 752,     65.88210,0.78720,4
300.006, 753.5,     65.83013,0.78720,4
300.005, 755,     65.81528,0.78720,4
300.015, 756.5,     65.78581,0.78719,4
300.022, 758,     65.76354,0.78719,4
300.015, 759.5,     65.76354,0.78719,4
300.014, 761,     65.73384,0.78719,4
300.021, 762.5,     65.70917,0.78719,4
300.018, 764,     65.71157,0.78719,4
300.02, 765.5,     65.66703,0.78719,4
300.012, 767,     65.61288,0.78719,4
300.02, 768.5,     65.59061,0.78719,4
300.01, 770,     65.57576,0.78720,4
300.013, 771.5,     65.53865,0.78719,4
300.021, 773,     65.54607,0.78719,4
300.01, 774.5,     65.48690,0.78720,4
300.01, 776,     65.45721,0.78720,4
300.022, 777.5,     65.42009,0.78719,4
300.026, 779,     65.39039,0.78718,4
300.03, 780.5,     65.36092,0.78718,4
300.011, 782,     65.33865,0.78720,4
300.022, 783.5,     65.31638,0.78719,4
300.016, 785,     65.30895,0.78719,4
300.009, 786.5,     65.27926,0.78720,4
300.013, 788,     65.26441,0.78719,4
300.006, 789.5,     65.23974,0.78720,4
300.009, 791,     65.23231,0.78720,4
300.013, 792.5,     65.18057,0.78719,4
300.007, 794,     65.15830,0.78720,4
300.015, 795.5,     65.13603,0.78719,4
300.015, 797,     65.11878,0.78719,4
300.024, 798.5,     65.08908,0.78718,4
300.017, 800,     65.08908,0.78719,4
300.01, 801.5,     65.01987,0.78720,4
300.017, 803,     64.99279,0.78719,4
300.01, 804.5,     65.00764,0.78720,4
300.014, 806,     64.97052,0.78719,4
300.007, 807.5,     64.94083,0.78720,4
300.022, 809,     64.91135,0.78719,4
300.018, 810.5,     64.86681,0.78719,4
300.009, 812,     64.85939,0.78720,4
300.024, 813.5,     64.83712,0.78718,4
300.012, 815,     64.81485,0.78719,4
300.017, 816.5,     64.77795,0.78719,4
300.013, 818,     64.75568,0.78719,4
300.007, 819.5,     64.73341,0.78720,4
300.011, 821,     64.70371,0.78720,4
300.025, 822.5,     64.68886,0.78718,4
300.023, 824,     64.65939,0.78718,4
300.011, 825.5,     64.61485,0.78720,4
300.022, 827,     64.57773,0.78719,4
300.005, 828.5,     64.54563,0.78720,4
300.02, 830,     64.54563,0.78719,4
300.015, 831.5,     64.53079,0.78719,4
300.017, 833,     64.49389,0.78719,4
300.018, 834.5,     64.44934,0.78719,4
300.023, 836,     64.42707,0.78718,4
300.005, 837.5,     64.42707,0.78720,4
300.014, 839,     64.39738,0.78719,4
300.016, 840.5,     64.33821,0.78719,4
300.02, 842,     64.34563,0.78719,4
300.024, 843.5,     64.28624,0.78718,4
300.027, 845,     64.28624,0.78718,4
300.013, 846.5,     64.20480,0.78719,4
300.029, 848,     64.21725,0.78718,4
300.029, 849.5,     64.18755,0.78718,4
300.014, 851,     64.14301,0.78719,4
300.018, 852.5,     64.13559,0.78719,4
300.002, 854,     64.11332,0.78720,4
300.001, 855.5,     64.10852,0.78721,4
300.006, 857,     64.07140,0.78720,4
300.016, 858.5,     64.06397,0.78719,4
300.017, 860,     64.01703,0.78719,4
300.018, 861.5,     63.99476,0.78719,4
300.029, 863,     63.95044,0.78718,4
300.013, 864.5,     63.88865,0.78719,4
300.023, 866,     63.91332,0.78718,4
300.014, 867.5,     63.88362,0.78719,4
300.019, 869,     63.82183,0.78719,4
300.007, 870.5,     63.82183,0.78720,4
300.022, 872,     63.76266,0.78719,4
300.013, 873.5,     63.76266,0.78719,4
300.02, 875,     63.74782,0.78719,4
300.018, 876.5,     63.68843,0.78719,4
300.032, 878,     63.66376,0.78718,4
300.019, 879.5,     63.64891,0.78719,4
300.016, 881,     63.63428,0.78719,4
300.016, 882.5,     63.60459,0.78719,4
300.016, 884,     63.54279,0.78719,4
300.01, 885.5,     63.57249,0.78720,4
300.009, 887,     63.52795,0.78720,4
300.024, 888.5,     63.47598,0.78718,4
300.008, 890,     63.45131,0.78720,4
300.01, 891.5,     63.45131,0.78720,4
300.005, 893,     63.39956,0.78720,4
300.015, 894.5,     63.37729,0.78719,4
300.021, 896,     63.36245,0.78719,4
300.006, 897.5,     63.34760,0.78720,4
300.012, 899,     63.31790,0.78719,4
300.015, 900.5,     63.28843,0.78719,4
300.018, 902,     63.27096,0.78719,4
300.016, 903.5,     63.22664,0.78719,4
300.02, 905,     63.18210,0.78719,4
300.007, 906.5,     63.17969,0.78720,4
300.02, 908,     63.14258,0.78719,4
300.008, 909.5,     63.12031,0.78720,4
300.018, 911,     63.08581,0.78719,4
300.031, 912.5,     63.07096,0.78718,4
300.02, 914,     63.05611,0.78719,4
300.015, 915.5,     63.00437,0.78719,4
300.018, 917,     62.96725,0.78719,4
300.012, 918.5,     62.95983,0.78719,4
300.022, 920,     62.94498,0.78719,4
300.019, 921.5,     62.90044,0.78719,4
300.015, 923,     62.86354,0.78719,4
300.012, 924.5,     62.86354,0.78719,4
300.02, 926,     62.80415,0.78719,4
300.016, 927.5,     62.78930,0.78719,4
300.026, 929,     62.76725,0.78718,4
300.016, 930.5,     62.73755,0.78719,4
300.007, 932,     62.71528,0.78720,4
300.013, 933.5,     62.70786,0.78719,4
300.016, 935,     62.68559,0.78719,4
300.017, 936.5,     62.65590,0.78719,4
300.023, 938,     62.62642,0.78718,4
300.016, 939.5,     62.56703,0.78719,4
300.026, 941,     62.55218,0.78718,4
300.02, 942.5,     62.53734,0.78719,4
300.015, 944,     62.50044,0.78719,4
300.02, 945.5,     62.48559,0.78719,4
300.021, 947,     62.45590,0.78719,4
300.016, 948.5,     62.41135,0.78719,4
300.004, 950,     62.39672,0.78720,4
300.014, 951.5,     62.39672,0.78719,4
300.021, 953,     62.34476,0.78719,4
300.011, 954.5,     62.28537,0.78720,4
300.018, 956,     62.25590,0.78719,4
300.02, 957.5,     62.27074,0.78719,4
300.014, 959,     62.21135,0.78719,4
300.026, 960.5,     62.18908,0.78718,4
300.014, 962,     62.14476,0.78719,4
300.015, 963.5,     62.12249,0.78719,4
300.021, 965,     62.09279,0.78719,4
300.021, 966.5,     62.09279,0.78719,4
300.018, 968,     62.05568,0.78719,4
300.026, 969.5,     62.03341,0.78718,4
300.02, 971,     61.98166,0.78719,4
300.017, 972.5,     61.95939,0.78719,4
300.017, 974,     61.92969,0.78719,4
300.009, 975.5,     61.90022,0.78720,4
300.007, 977,     61.90022,0.78720,4
300.012, 978.5,     61.86310,0.78719,4
300.011, 980,     61.83341,0.78720,4
300.011, 981.5,     61.81856,0.78720,4
300.016, 983,     61.76681,0.78719,4
300.017, 984.5,     61.73952,0.78719,4
300.016, 986,     61.70983,0.78719,4
300.014, 987.5,     61.69520,0.78719,4
300.034, 989,     61.68035,0.78717,4
300.016, 990.5,     61.62838,0.78719,4
300.016, 992,     61.60611,0.78719,4
300.025, 993.5,     61.59629,0.78718,4
300.012, 995,     61.52707,0.78719,4
300.021, 996.5,     61.50480,0.78719,4
300.027, 998,     61.48275,0.78718,4
300.029, 999.5,     61.46048,0.78718,4
300.025,1001,     61.41594,0.78718,4
300.015,1002.5,     61.38624,0.78719,4
300.013,1004,     61.36419,0.78719,4
300.021,1005.5,     61.35917,0.78719,4
300.022,1007,     61.30721,0.78719,4
300.018,1008.5,     61.29738,0.78719,4
300.016,1010,     61.27271,0.78719,4
300.014,1011.5,     61.22074,0.78719,4
300.016,1013,     61.19869,0.78719,4
300.017,1014.5,     61.19869,0.78719,4
300.019,1016,     61.14170,0.78719,4
300.018,1017.5,     61.11223,0.78719,4
300.023,1019,     61.08253,0.78718,4
300.013,1020.5,     61.06026,0.78719,4
300.013,1022,     61.04541,0.78719,4
300.022,1023.5,     61.00087,0.78719,4
300.018,1025,     60.97140,0.78719,4
300.01,1026.5,     60.94913,0.78720,4
300.007,1028,     60.92183,0.78720,4
300.007,1029.5,     60.88493,0.78720,4
300.012,1031,     60.84541,0.78719,4
300.012,1032.5,     60.86026,0.78719,4
300.024,1034,     60.81572,0.78718,4
300.021,1035.5,     60.77118,0.78719,4
300.002,1037,     60.75633,0.78720,4
300.023,1038.5,     60.71201,0.78718,4
300.007,1040,     60.68974,0.78720,4
300.026,1041.5,     60.67489,0.78718,4
300.021,1043,     60.63035,0.78719,4
300.017,1044.5,     60.60830,0.78719,4
300.025,1046,     60.59345,0.78718,4
300.019,1047.5,     60.53406,0.78719,4
300.017,1049,     60.53406,0.78719,4
300.022,1050.5,     60.48231,0.78719,4
300.011,1052,     60.45262,0.78720,4
300.012,1053.5,     60.43275,0.78719,4
300.009,1055,     60.41812,0.78720,4
300.013,1056.5,     60.38843,0.78719,4
300.018,1058,     60.36616,0.78719,4
300.017,1059.5,     60.33646,0.78719,4
300.027,1061,     60.28472,0.78718,4
300.015,1062.5,     60.26987,0.78719,4
300.011,1064,     60.23275,0.78720,4
300.014,1065.5,     60.20306,0.78719,4
300.021,1067,     60.18079,0.78719,4
300.02,1068.5,     60.16616,0.78719,4
300.021,1070,     60.12904,0.78719,4
300.027,1071.5,     60.09192,0.78718,4
300.004,1073,     60.06223,0.78720,4
300.021,1074.5,     60.02533,0.78719,4
300.018,1076,     60.04738,0.78719,4
300.022,1077.5,     59.98821,0.78719,4
300.008,1079,     59.95852,0.78720,4
300.014,1080.5,     59.95109,0.78719,4
300.003,1082,     59.92162,0.78720,4
300.022,1083.5,     59.89192,0.78719,4
300.014,1085,     59.84738,0.78719,4
300.012,1086.5,     59.83755,0.78719,4
300.024,1088,     59.81528,0.78718,4
300.017,1089.5,     59.79301,0.78719,4
300.016,1091,     59.74127,0.78719,4
300.027,1092.5,     59.74127,0.78718,4
300.033,1094,     59.68930,0.78718,4
300.005,1095.5,     59.65961,0.78720,4
300.019,1097,     59.63734,0.78719,4
300.017,1098.5,     59.60044,0.78719,4
300.013,1100,     59.59301,0.78719,4
300.017,1101.5,     59.54847,0.78719,4
300.017,1103,     59.53362,0.78719,4
300.019,1104.5,     59.48930,0.78719,4
300.014,1106,     59.45961,0.78719,4
300.013,1107.5,     59.44476,0.78719,4
300.014,1109,     59.40764,0.78719,4
300.017,1110.5,     59.39279,0.78719,4
300.018,1112,     59.36332,0.78719,4
300.016,1113.5,     59.33362,0.78719,4
300.017,1115,     59.30393,0.78719,4
300.021,1116.5,     59.27424,0.78719,4
300.028,1118,     59.23734,0.78718,4
300.019,1119.5,     59.20764,0.78719,4
300.008,1121,     59.17795,0.78720,4
300.017,1122.5,     59.14825,0.78719,4
300.018,1124,     59.13362,0.78719,4
300.004,1125.5,     59.09651,0.78720,4
300.022,1127,     59.09651,0.78719,4
300.022,1128.5,     59.04454,0.78719,4
300.004,1130,     59.02969,0.78720,4
300.019,1131.5,     58.97052,0.78719,4
300.012,1133,     58.94083,0.78719,4
300.015,1134.5,     58.93341,0.78719,4
300.011,1136,     58.90371,0.78720,4
300.021,1137.5,     58.87424,0.78719,4
300.025,1139,     58.82969,0.78718,4
300.024,1140.5,     58.81485,0.78718,4
300.026,1142,     58.79258,0.78718,4
300.014,1143.5,     58.79258,0.78719,4
300.019,1145,     58.74825,0.78719,4
300.017,1146.5,     58.71856,0.78719,4
300.008,1148,     58.67664,0.78720,4
300.004,1149.5,     58.64694,0.78720,4
300.027,1151,     58.63952,0.78718,4
300.014,1152.5,     58.61725,0.78719,4
300.022,1154,     58.58755,0.78719,4
300.022,1155.5,     58.52838,0.78719,4
300.018,1157,     58.52838,0.78719,4
300.023,1158.5,     58.49127,0.78718,4
300.016,1160,     58.43210,0.78719,4
300.023,1161.5,     58.43210,0.78718,4
300.021,1163,     58.38013,0.78719,4
300.012,1164.5,     58.36528,0.78719,4
300.017,1166,     58.36528,0.78719,4
300.01,1167.5,     58.33559,0.78720,4
300.022,1169,     58.29127,0.78719,4
300.025,1170.5,     58.28384,0.78718,4
300.024,1172,     58.22205,0.78718,4
300.019,1173.5,     58.19236,0.78719,4
300.013,1175,     58.17009,0.78719,4
300.015,1176.5,     58.14061,0.78719,4
300.01,1178,     58.11092,0.78720,4
300.005,1179.5,     58.10109,0.78720,4
300.01,1181,     58.06397,0.78720,4
300.014,1182.5,     58.05655,0.78719,4
300.014,1184,     58.01943,0.78719,4
300.013,1185.5,     58.00459,0.78719,4
300.013,1187,     57.98253,0.78719,4
300.016,1188.5,     57.93799,0.78719,4
300.019,1190,     57.93799,0.78719,4
300.015,1191.5,     57.89345,0.78719,4
300.019,1193,     57.83428,0.78719,4
300.015,1194.5,     57.84913,0.78719,4
300.01,1196,     57.81943,0.78720,4
300.012,1197.5,     57.78231,0.78719,4
300.021,1199,     57.77489,0.78719,4
300.023,1200.5,     57.71572,0.78718,4
300.018,1202,     57.70830,0.78719,4
300.014,1203.5,     57.67118,0.78719,4
300.014,1205,     57.64891,0.78719,4
300.017,1206.5,     57.61681,0.78719,4
300.015,1208,     57.58712,0.78719,4
300.019,1209.5,     57.57227,0.78719,4
300.013,1211,     57.53537,0.78719,4
300.013,1212.5,     57.51310,0.78719,4
300.015,1214,     57.46856,0.78719,4
300.016,1215.5,     57.43166,0.78719,4
300.032,1217,     57.42162,0.78718,4
300.012,1218.5,     57.40677,0.78719,4
300.012,1220,     57.37467,0.78719,4
300.019,1221.5,     57.33777,0.78719,4
300.02,1223,     57.30808,0.78719,4
300.01,1224.5,     57.28581,0.78720,4
300.01,1226,     57.22664,0.78720,4
300.011,1227.5,     57.19694,0.78720,4
300.015,1229,     57.19694,0.78719,4
300.033,1230.5,     57.16725,0.78718,4
300.027,1232,     57.13755,0.78718,4
300.016,1233.5,     57.12271,0.78719,4
300.031,1235,     57.09323,0.78718,4
300.024,1236.5,     57.06856,0.78718,4
300.017,1238,     57.03886,0.78719,4
300.023,1239.5,     56.99432,0.78718,4
300.013,1241,     56.95240,0.78719,4
300.004,1242.5,     56.95240,0.78720,4
300.025,1244,     56.91528,0.78718,4
300.025,1245.5,     56.89803,0.78718,4
300.014,1247,     56.85349,0.78719,4
300.016,1248.5,     56.81659,0.78719,4
300.018,1250,     56.80917,0.78719,4
300.023,1251.5,     56.77948,0.78718,4
300.013,1253,     56.72009,0.78719,4
300.009,1254.5,     56.73493,0.78720,4
300.028,1256,     56.68319,0.78718,4
300.013,1257.03,     56.68319,0.78719,5
300.022,1257.1,     56.65349,0.78719,5
300.072,1257.17,     56.68319,0.78714,5
300.15,1257.25,     56.71266,0.78707,5
300.325,1257.33,     56.77707,0.78690,5
300.565,1257.4,     56.89301,0.78668,5
300.938,1257.47,     57.05611,0.78633,5
301.392,1257.55,     57.18210,0.78591,5
301.989,1257.62,     57.38712,0.78535,5
302.701,1257.7,     57.55502,0.78468,5
303.536,1257.78,     57.76507,0.78390,5
304.45,1257.85,     57.90087,0.78305,5
305.504,1257.92,     58.07620,0.78206,5
306.608,1258,     58.24170,0.78103,5
307.821,1258.08,     58.41725,0.77989,5
309.064,1258.15,     58.54803,0.77872,5
310.367,1258.22,     58.66921,0.77749,5
311.692,1258.3,     58.78777,0.77624,5
313.06,1258.38,     58.85939,0.77495,5
314.421,1258.45,     58.94825,0.77367,5
315.779,1258.53,     58.99760,0.77239,5
317.13,1258.6,     59.05699,0.77111,5
318.479,1258.67,     59.08668,0.76983,5
319.804,1258.75,     59.12358,0.76858,5
321.103,1258.83,     59.14585,0.76735,5
322.39,1258.9,     59.15328,0.76613,5
323.664,1258.97,     59.18297,0.76492,5
324.924,1259.05,     59.20524,0.76372,5
326.161,1259.12,     59.20524,0.76254,5
327.408,1259.2,     59.22729,0.76136,5
328.648,1259.28,     59.26441,0.76018,5
329.869,1259.35,     59.26441,0.75902,5
331.13,1259.42,     59.26441,0.75782,5
332.391,1259.5,     59.29651,0.75662,5
333.684,1259.58,     59.35830,0.75538,5
334.986,1259.65,     59.35830,0.75414,5
336.307,1259.72,     59.41769,0.75288,5
337.662,1259.8,     59.44716,0.75159,5
339.049,1259.88,     59.47686,0.75027,5
340.457,1259.95,     59.54105,0.74892,5
341.902,1260.03,     59.57074,0.74754,5
343.368,1260.1,     59.63253,0.74614,5
344.85,1260.17,     59.65480,0.74473,5
346.372,1260.25,     59.69170,0.74328,5
347.923,1260.33,     59.72140,0.74180,5
349.476,1260.4,     59.75109,0.74031,5
351.063,1260.47,     59.78079,0.73880,5
352.651,1260.55,     59.81026,0.73728,5
354.261,1260.62,     59.84978,0.73575,5
355.864,1260.7,     59.87205,0.73422,5
357.487,1260.78,     59.90175,0.73267,5
359.103,1260.85,     59.90175,0.73113,5
360.725,1260.92,     59.90175,0.72958,5
362.353,1261,     59.90175,0.72803,5
363.983,1261.08,     59.90175,0.72648,5
365.6,1261.15,     59.87205,0.72494,5
367.226,1261.22,     59.87205,0.72340,5
368.851,1261.3,     59.84236,0.72185,5
370.47,1261.38,     59.81288,0.72032,5
372.097,1261.45,     59.81288,0.71877,5
373.709,1261.53,     59.78319,0.71724,5
375.351,1261.6,     59.75349,0.71569,5
376.954,1261.67,     59.69170,0.71417,5
378.575,1261.75,     59.63013,0.71264,5
380.202,1261.83,     59.54607,0.71110,5
381.82,1261.9,     59.45218,0.70958,5
383.462,1261.97,     59.38799,0.70803,5
385.074,1262.05,     59.26441,0.70651,5
386.716,1262.12,     59.07926,0.70497,5
388.354,1262.2,     58.88646,0.70343,5
389.99,1262.28,     58.68886,0.70190,5
391.628,1262.35,     58.51856,0.70037,5
393.265,1262.42,     58.26157,0.69884,5
394.906,1262.5,     57.99476,0.69730,5
396.57,1262.58,     57.69825,0.69575,5
398.208,1262.65,     57.36725,0.69423,5
399.868,1262.72,     57.03384,0.69269,5
401.507,1262.8,     56.63865,0.69117,5
403.157,1262.88,     56.20393,0.68964,5
404.812,1262.95,     55.74454,0.68811,5
406.45,1263.03,     55.20590,0.68660,5
408.099,1263.1,     54.65022,0.68508,5
409.748,1263.17,     54.01528,0.68356,5
411.385,1263.25,     53.32860,0.68206,5
413.032,1263.33,     52.51834,0.68055,5
414.667,1263.4,     51.75262,0.67906,5
416.31,1263.47,     50.77686,0.67756,5
417.933,1263.55,     49.85066,0.67609,5
419.572,1263.62,     48.73646,0.67460,5
421.201,1263.7,     47.51376,0.67312,5
422.827,1263.78,     46.18974,0.67165,5
424.445,1263.85,     44.84367,0.67019,5
426.073,1263.92,     43.25284,0.66873,5
427.701,1264,     41.71397,0.66726,5
429.317,1264.08,     39.92293,0.66582,5
430.944,1264.15,     38.11245,0.66436,5
432.555,1264.22,     36.15590,0.66293,5
434.163,1264.3,     34.07620,0.66150,5
435.791,1264.38,     31.98384,0.66005,5
437.4,1264.45,     29.82729,0.65863,5
439.005,1264.53,     27.49803,0.65721,5
440.617,1264.6,     25.33908,0.65580,5
442.223,1264.67,     23.05175,0.65439,5
443.82,1264.75,     20.84083,0.65299,5
445.425,1264.83,     18.62773,0.65159,5
447.029,1264.9,     16.49345,0.65019,5
448.623,1264.97,     14.50240,0.64881,5
450.215,1265.05,     12.61528,0.64743,5
451.803,1265.12,     10.73057,0.64606,5
453.406,1265.2,      9.23603,0.64468,5
454.985,1265.28,      7.70699,0.64332,5
456.585,1265.35,      6.39039,0.64195,5
458.161,1265.42,      5.14782,0.64061,5
459.751,1265.5,      4.10306,0.63925,5
461.34,1265.58,      3.23100,0.63791,5
462.937,1265.65,      2.37882,0.63656,5
464.509,1265.72,      1.70939,0.63523,5
466.097,1265.8,      1.07707,0.63390,5
467.685,1265.88,      0.53865,0.63257,5
469.266,1265.95, 8.908297e-02,0.63125,5
470.856,1266.03,     -0.30371,0.62992,5
472.437,1266.1,     -0.61747,0.62861,5
474.01,1266.17,     -0.88930,0.62731,5
475.581,1266.25,     -1.15109,0.62602,5
477.158,1266.33,     -1.37096,0.62472,5
478.734,1266.4,     -1.52904,0.62343,5
480.296,1266.47,     -1.69454,0.62216,5
481.868,1266.55,     -1.81048,0.62088,5
483.438,1266.62,     -1.91681,0.61961,5
484.997,1266.7,     -1.99825,0.61835,5
486.56,1266.78,     -2.06245,0.61709,5
488.123,1266.85,     -2.13668,0.61584,5
489.678,1266.92,     -2.19585,0.61459,5
491.242,1267,     -2.22555,0.61335,5
492.789,1267.08,     -2.24782,0.61212,5
494.354,1267.15,     -2.28493,0.61088,5
495.91,1267.22,     -2.28493,0.60966,5
497.46,1267.3,     -2.28493,0.60844,5
499.019,1267.38,     -2.31441,0.60722,5
500.558,1267.45,     -2.31441,0.60602,5
502.101,1267.53,     -2.31441,0.60483,5
503.654,1267.6,     -2.28493,0.60362,5
505.19,1267.67,     -2.31441,0.60244,5
506.739,1267.75,     -2.31441,0.60125,5
508.274,1267.83,     -2.31441,0.60008,5
509.814,1267.9,     -2.31441,0.59891,5
511.351,1267.97,     -2.28493,0.59774,5
512.896,1268.05,     -2.28493,0.59657,5
514.433,1268.12,     -2.28493,0.59542,5
515.967,1268.2,     -2.28493,0.59426,5
517.512,1268.28,     -2.28493,0.59311,5
519.035,1268.35,     -2.28493,0.59198,5
520.572,1268.42,     -2.28493,0.59084,5
522.104,1268.5,     -2.26266,0.58971,5
523.639,1268.58,     -2.25524,0.58858,5
525.168,1268.65,     -2.25524,0.58746,5
526.701,1268.72,     -2.25524,0.58634,5
528.236,1268.8,     -2.25524,0.58523,5
529.766,1268.88,     -2.25524,0.58412,5
531.296,1268.95,     -2.22555,0.58302,5
532.831,1269.03,     -2.19585,0.58192,5
534.345,1269.1,     -2.21812,0.58083,5
535.876,1269.17,     -2.21812,0.57974,5
537.391,1269.25,     -2.18843,0.57867,5
538.92,1269.33,     -2.15895,0.57759,5
540.445,1269.4,     -2.15895,0.57652,5
541.965,1269.47,     -2.15895,0.57546,5
543.5,1269.55,     -2.15895,0.57439,5
545.028,1269.62,     -2.12686,0.57333,5
546.546,1269.7,     -2.09716,0.57228,5
548.066,1269.78,     -2.09716,0.57123,5
549.583,1269.85,     -2.06747,0.57019,5
551.112,1269.92,     -2.06747,0.56915,5
552.635,1270,     -2.03777,0.56811,5
554.147,1270.08,     -2.03777,0.56709,5
555.679,1270.15,     -2.00808,0.56606,5
557.191,1270.22,     -2.00808,0.56504,5
558.734,1270.3,     -2.00808,0.56401,5
560.248,1270.38,     -1.97860,0.56301,5
561.749,1270.45,     -1.97860,0.56201,5
563.275,1270.53,     -1.94891,0.56101,5
564.803,1270.6,     -1.94891,0.56001,5
566.319,1270.67,     -1.91921,0.55902,5
567.836,1270.75,     -1.88952,0.55803,5
569.36,1270.83,     -1.90437,0.55704,5
570.871,1270.9,     -1.88952,0.55607,5
572.407,1270.97,     -1.86004,0.55508,5
573.916,1271.05,     -1.86004,0.55412,5
575.431,1271.12,     -1.83035,0.55315,5
576.953,1271.2,     -1.80066,0.55219,5
578.466,1271.28,     -1.80066,0.55124,5
579.989,1271.35,     -1.77096,0.55028,5
581.505,1271.42,     -1.77096,0.54933,5
583.022,1271.5,     -1.76354,0.54839,5
584.529,1271.58,     -1.73886,0.54746,5
586.063,1271.65,     -1.73886,0.54651,5
587.57,1271.72,     -1.73886,0.54558,5
589.086,1271.8,     -1.70939,0.54466,5
590.596,1271.88,     -1.67969,0.54374,5
592.115,1271.95,     -1.67969,0.54282,5
593.634,1272.03,     -1.67969,0.54190,5
595.163,1272.1,     -1.62031,0.54099,5
596.664,1272.17,     -1.62031,0.54009,5
598.183,1272.25,     -1.62031,0.53919,5
599.707,1272.33,     -1.59083,0.53828,5
601.223,1272.4,     -1.59083,0.53739,5
602.727,1272.47,     -1.59083,0.53651,5
604.249,1272.55,     -1.56114,0.53562,5
605.765,1272.62,     -1.53144,0.53474,5
607.283,1272.7,     -1.53144,0.53386,5
608.797,1272.78,     -1.52402,0.53298,5
610.303,1272.85,     -1.52402,0.53212,5
611.827,1272.92,     -1.50175,0.53125,5
613.337,1273,     -1.47205,0.53039,5
614.855,1273.08,     -1.44258,0.52953,5
616.373,1273.15,     -1.44258,0.52868,5
617.87,1273.22,     -1.44258,0.52783,5
619.398,1273.3,     -1.41288,0.52698,5
620.896,1273.38,     -1.41288,0.52615,5
622.407,1273.45,     -1.38319,0.52531,5
623.915,1273.53,     -1.35349,0.52448,5
625.434,1273.6,     -1.35349,0.52365,5
626.941,1273.67,     -1.33886,0.52282,5
628.459,1273.75,     -1.32402,0.52200,5
629.968,1273.83,     -1.32402,0.52118,5
631.487,1273.9,     -1.29432,0.52036,5
632.992,1273.97,     -1.27205,0.51955,5
634.506,1274.05,     -1.26463,0.51874,5
636.022,1274.12,     -1.28690,0.51794,5
637.523,1274.2,     -1.25721,0.51714,5
639.037,1274.28,     -1.22751,0.51634,5
640.552,1274.35,     -1.22751,0.51554,5
642.065,1274.42,     -1.19803,0.51475,5
643.566,1274.5,     -1.19803,0.51397,5
645.085,1274.58,     -1.19803,0.51318,5
646.585,1274.65,     -1.16834,0.51241,5
648.097,1274.72,     -1.13865,0.51163,5
649.604,1274.8,     -1.10895,0.51086,5
651.122,1274.88,     -1.10895,0.51008,5
652.629,1274.95,     -1.10895,0.50932,5
654.135,1275.03,     -1.10895,0.50855,5
655.649,1275.1,     -1.07948,0.50779,5
657.159,1275.17,     -1.07948,0.50703,5
658.676,1275.25,     -1.04978,0.50628,5
660.18,1275.33,     -1.04978,0.50553,5
661.693,1275.4,     -1.02009,0.50478,5
663.196,1275.47,     -1.02009,0.50404,5
664.706,1275.55,     -1.02009,0.50329,5
666.215,1275.62,     -0.99039,0.50255,5
667.735,1275.7,     -0.96092,0.50181,5
669.239,1275.78,     -0.96092,0.50108,5
670.743,1275.85,     -0.93865,0.50035,5
672.264,1275.92,     -0.93122,0.49962,5
673.776,1276,     -0.93122,0.49889,5
675.277,1276.08,     -0.90153,0.49817,5
676.789,1276.15,     -0.87183,0.49745,5
678.3,1276.22,     -0.87183,0.49674,5
679.81,1276.3,     -0.87183,0.49602,5
681.319,1276.38,     -0.86441,0.49531,5
682.821,1276.45,     -0.82009,0.49460,5
684.341,1276.53,     -0.82009,0.49389,5
685.864,1276.6,     -0.82009,0.49318,5
687.371,1276.67,     -0.82009,0.49248,5
688.88,1276.75,     -0.81266,0.49178,5
690.392,1276.83,     -0.75328,0.49108,5
691.905,1276.9,     -0.75328,0.49039,5
693.421,1276.97,     -0.75328,0.48969,5
694.939,1277.05,     -0.75328,0.48900,5
696.443,1277.12,     -0.75328,0.48832,5
697.952,1277.2,     -0.72380,0.48763,5
699.466,1277.28,     -0.72380,0.48695,5
700.977,1277.35,     -0.69410,0.48627,5
702.487,1277.42,     -0.69410,0.48559,5
704.005,1277.5,     -0.69410,0.48491,5
705.521,1277.58,     -0.66441,0.48423,5
707.028,1277.65,     -0.66441,0.48356,5
708.544,1277.72,     -0.63472,0.48289,5
710.061,1277.8,     -0.60502,0.48222,5
711.572,1277.88,     -0.57555,0.48155,5
713.088,1277.95,     -0.60502,0.48088,5
714.594,1278.03,     -0.60502,0.48022,5
716.119,1278.1,     -0.59782,0.47956,5
717.628,1278.17,     -0.54585,0.47890,5
719.137,1278.25,     -0.53100,0.47824,5
720.647,1278.33,     -0.53100,0.47759,5
722.16,1278.4,     -0.51616,0.47693,5
723.668,1278.47,     -0.50131,0.47628,5
725.184,1278.55,     -0.47183,0.47563,5
726.693,1278.62,     -0.46441,0.47499,5
728.198,1278.7,     -0.46441,0.47434,5
729.712,1278.78,     -0.46441,0.47370,5
731.226,1278.85,     -0.45699,0.47305,5
732.739,1278.92,     -0.42729,0.47241,5
734.256,1279,     -0.39760,0.47177,5
735.766,1279.08,     -0.39760,0.47113,5
737.275,1279.15,     -0.39760,0.47049,5
738.79,1279.22,     -0.36790,0.46985,5
740.298,1279.3,     -0.33843,0.46922,5
741.81,1279.38,     -0.33843,0.46859,5
743.335,1279.45,     -0.33843,0.46795,5
744.838,1279.53,     -0.33843,0.46732,5
746.343,1279.6,     -0.30873,0.46669,5
747.861,1279.67,     -0.27904,0.46606,5
749.368,1279.75,     -0.27904,0.46544,5
750.89,1279.83,     -0.24934,0.46481,5
752.399,1279.9,     -0.24934,0.46418,5
753.918,1279.97,     -0.21987,0.46356,5
755.428,1280.05,     -0.21987,0.46293,5
756.94,1280.12,     -0.22729,0.46231,5
758.444,1280.2,     -0.20502,0.46169,5
759.971,1280.28,     -0.19760,0.46107,5
761.475,1280.35,     -0.16790,0.46045,5
762.988,1280.42,     -0.16790,0.45983,5
764.514,1280.5,     -0.15306,0.45921,5
766.016,1280.58,     -0.13821,0.45860,5
767.537,1280.65,     -0.13821,0.45798,5
769.039,1280.72,     -0.10852,0.45737,5
770.551,1280.8,-7.903930e-02,0.45675,5
772.066,1280.88,-7.903930e-02,0.45614,5
773.582,1280.95,-7.903930e-02,0.45552,5
775.085,1281.03,-7.161572e-02,0.45491,5
776.592,1281.1,-4.934498e-02,0.45430,5
778.104,1281.17,-2.707424e-02,0.45369,5
779.616,1281.25,-1.965066e-02,0.45308,5
781.125,1281.33,-1.965066e-02,0.45247,5
782.634,1281.4, 1.004367e-02,0.45186,5
784.149,1281.47, 3.951965e-02,0.45125,5
785.663,1281.55, 3.951965e-02,0.45064,5
787.172,1281.62, 3.951965e-02,0.45004,5
788.691,1281.7, 6.921397e-02,0.44942,5
790.195,1281.78, 9.148472e-02,0.44882,5
791.714,1281.85, 9.148472e-02,0.44821,5
793.219,1281.92,      0.10633,0.44761,5
794.742,1282,      0.12860,0.44699,5