File: data/TGA/commercial_samples/ExpDat_2025_08_14_SL_PS_Cup_Lid_dynamic.csv
#EXPORTTYPE:                 ,DATA ALL
#FILE:                       ,2025_08_14_SL_PS_Cup_Lid_dynamic.ngb-ss5
#FORMAT:                     ,NETZSCH5
#FTYPE:                      ,ASCII
#IDENTITY:                   ,PS-Coffee-Lid
#DECIMAL:                    ,POINT
#SEPARATOR:                  ,COMMA
#MTYPE:                      ,TG
#INSTRUMENT:                 ,NETZSCH STA 449F5
#PROJECT:                    ,
#DATE/TIME:                  ,8/14/2025 3:28:47 PM (UTC-4)
#CORR. FILE:                 ,
#TEMPCAL:                    ,05-05-2025 14:38
#SENSITIVITY:                ,28-06-2023 13:53
#LABORATORY:                 ,Tran/AAG
#OPERATOR:                   ,Stanley
#REMARK:                     ,2025_03_20_Styrofoam_dynamic
#SAMPLE:                     ,PS-Coffee-Lid
#SAMPLE MASS /mg:            ,4.46
#MATERIAL:                   ,Polystyrene
#REFERENCE:                  ,
#REFERENCE MASS /mg:         ,0
#TYPE OF CRUCIBLE:           ,Al2O3 85 ‘l, open
#SAMPLE CRUCIBLE MASS /mg:   ,0
#REFERENCE CRUCIBLE MASS /mg:,0
#DSC RANGE /‘V:              ,5000
#TG RANGE /mg:               ,35000
#TAU-R:                      ,---
#CORR. CODE:                 ,000
#EXO:                        ,-1
#RANGE:                      ,20›C....800›C/0.0....20.0K/min
#SEGMENT:                    ,S1-4/4
#SEG. 1:                     ,20›C/5.0(K/min)/100›C
#SEG. 2:                     ,100›C/00:05/100›C
#SEG. 3:                     ,100›C/1.0(K/min)/400›C
#SEG. 4:                     ,400›C/20.0(K/min)/800›C

##Temp./›C,Time/min,Mass/%,Sensit./(uV/mW),Segment
 34.86300,  0.00000,    100,0.92438,1
 39.68900,  0.53333,     97.94529,0.92504,1
 42.80500,  1.06667,     96.75561,0.92539,1
 44.97400,  1.60000,     95.97175,0.92560,1
 46.46400,  2.13333,     85.95448,0.92572,1
 47.49600,  2.66667,     85.69327,0.92580,1
 48.15200,  3.20000,     85.68565,0.92584,1
 48.55800,  3.73333,     85.44462,0.92587,1
 48.78500,  4.26667,     85.06166,0.92589,1
 48.81900,  4.80000,     84.71166,0.92589,1
 48.76600,  5.33333,     84.43767,0.92588,1
 48.62500,  5.86667,     84.26256,0.92587,1
 48.39500,  6.40000,     83.96076,0.92586,1
 48.21100,  6.93333,     83.85426,0.92585,1
 48.23000,  7.46667,     83.97601,0.92585,1
 48.63700,  8.00000,     84.31345,0.92588,1
 49.46300,  8.53333,     84.75471,0.92593,1
 50.73600,  9.06667,     85.35090,0.92600,1
 52.41500,  9.60000,     85.82780,0.92607,1
 54.45500, 10.13333,     86.31726,0.92614,1
 56.84400, 10.66667,     86.77646,0.92619,1
 59.54200, 11.20000,     87.30650,0.92620,1
 62.53500, 11.73333,     87.68969,0.92616,1
 65.75100, 12.26667,     88.10807,0.92605,1
 69.13400, 12.80000,     88.44552,0.92587,1
 72.65100, 13.33333,     88.72960,0.92560,1
 76.24000, 13.86667,     88.98834,0.92526,1
 79.89900, 14.40000,     89.20404,0.92482,1
 83.62300, 14.93333,     89.41704,0.92430,1
 87.35200, 15.46667,     89.57175,0.92369,1
 91.05000, 16.00000,     89.72399,0.92301,1
 93.75900, 16.40000,     89.75448,0.92246,2
 96.17100, 16.80000,     89.54888,0.92193,2
 98.18900, 17.20000,     89.20650,0.92147,2
 99.82200, 17.60000,     88.87668,0.92107,2
101.255, 18.00000,     88.65359,0.92071,2
102.482, 18.40000,     88.43027,0.92040,2
103.56, 18.80000,     88.27556,0.92011,2
104.496, 19.20000,     88.09305,0.91986,2
105.297, 19.60000,     87.87489,0.91964,2
105.909, 20.00000,     87.70224,0.91947,2
106.355, 20.40000,     87.47152,0.91935,2
106.675, 20.80000,     87.28117,0.91926,2
106.899, 21.26667,     87.08834,0.91919,3
107.053, 21.80000,     86.91099,0.91915,3
107.16, 22.33333,     86.81951,0.91912,3
107.247, 22.86667,     86.72825,0.91909,3
107.3, 23.40000,     86.60404,0.91908,3
107.317, 23.93333,     86.51256,0.91907,3
107.32, 24.46667,     86.51256,0.91907,3
107.335, 25.00000,     86.48229,0.91907,3
107.359, 25.53333,     86.42130,0.91906,3
107.444, 26.06667,     86.40605,0.91903,3
107.546, 26.60000,     86.40605,0.91901,3
107.656, 27.13333,     86.39081,0.91897,3
107.821, 27.66667,     86.39081,0.91893,3
108.021, 28.20000,     86.36794,0.91887,3
108.271, 28.73333,     86.39081,0.91879,3
108.54, 29.26667,     86.42130,0.91872,3
108.86, 29.80000,     86.42892,0.91862,3
109.231, 30.33333,     86.43655,0.91851,3
109.583, 30.86667,     86.43655,0.91841,3
109.985, 31.40000,     86.43655,0.91828,3
110.418, 31.93333,     86.45942,0.91815,3
110.856, 32.46667,     86.48991,0.91802,3
111.337, 33.00000,     86.48722,0.91787,3
111.82, 33.53333,     86.48722,0.91772,3
112.322, 34.06667,     86.48722,0.91756,3
112.84, 34.60000,     86.51771,0.91740,3
113.357, 35.13333,     86.50247,0.91723,3
113.903, 35.66667,     86.53296,0.91706,3
114.428, 36.20000,     86.53296,0.91689,3
114.994, 36.73333,     86.56345,0.91670,3
115.54, 37.26667,     86.56345,0.91652,3
116.093, 37.80000,     86.56345,0.91634,3
116.653, 38.33333,     86.57848,0.91615,3
117.21, 38.86667,     86.58610,0.91596,3
117.773, 39.40000,     86.60897,0.91576,3
118.318, 39.93333,     86.57848,0.91558,3
118.889, 40.46667,     86.61659,0.91538,3
119.428, 41.00000,     86.60897,0.91519,3
119.989, 41.53333,     86.59372,0.91499,3
120.535, 42.06667,     86.62422,0.91479,3
121.093, 42.60000,     86.62422,0.91459,3
121.644, 43.13333,     86.60897,0.91439,3
122.187, 43.66667,     86.62422,0.91419,3
122.735, 44.20000,     86.59372,0.91399,3
123.295, 44.73333,     86.63946,0.91378,3
123.835, 45.26667,     86.63946,0.91358,3
124.395, 45.80000,     86.66233,0.91337,3
124.918, 46.33333,     86.66233,0.91317,3
125.457, 46.86667,     86.69283,0.91296,3
125.989, 47.40000,     86.69283,0.91275,3
126.527, 47.93333,     86.66233,0.91255,3
127.068, 48.46667,     86.69283,0.91233,3
127.597, 49.00000,     86.70785,0.91212,3
128.156, 49.53333,     86.73834,0.91190,3
128.689, 50.06667,     86.73834,0.91169,3
129.244, 50.60000,     86.73834,0.91147,3
129.765, 51.13333,     86.73834,0.91125,3
130.288, 51.66667,     86.76883,0.91104,3
130.816, 52.20000,     86.78408,0.91082,3
131.348, 52.73333,     86.78408,0.91060,3
131.882, 53.26667,     86.81457,0.91038,3
132.409, 53.80000,     86.81457,0.91016,3
132.963, 54.33333,     86.82220,0.90993,3
133.482, 54.86667,     86.83722,0.90971,3
134.012, 55.40000,     86.86771,0.90948,3
134.532, 55.93333,     86.87534,0.90926,3
135.088, 56.46667,     86.87534,0.90902,3
135.607, 57.00000,     86.86009,0.90879,3
136.156, 57.53333,     86.91345,0.90855,3
136.694, 58.06667,     86.90583,0.90831,3
137.216, 58.60000,     86.93632,0.90808,3
137.75, 59.13333,     86.94395,0.90784,3
138.296, 59.66667,     86.97422,0.90760,3
138.825, 60.20000,     87.00471,0.90736,3
139.357, 60.73333,     87.00471,0.90712,3
139.889, 61.26667,     87.03520,0.90688,3
140.412, 61.80000,     87.05045,0.90664,3
140.955, 62.33333,     87.03520,0.90638,3
141.493, 62.86667,     87.06570,0.90614,3
142.021, 63.40000,     87.10359,0.90589,3
142.56, 63.93333,     87.09596,0.90564,3
143.094, 64.46667,     87.11883,0.90538,3
143.627, 65.00000,     87.11883,0.90513,3
144.152, 65.53333,     87.14933,0.90488,3
144.698, 66.06667,     87.15695,0.90462,3
145.227, 66.60000,     87.16457,0.90436,3
145.754, 67.13333,     87.17982,0.90411,3
146.297, 67.66667,     87.22287,0.90384,3
146.812, 68.20000,     87.24574,0.90359,3
147.356, 68.73333,     87.25336,0.90332,3
147.894, 69.26667,     87.28386,0.90306,3
148.422, 69.80000,     87.29148,0.90280,3
148.964, 70.33333,     87.29148,0.90252,3
149.499, 70.86667,     87.32175,0.90226,3
150.027, 71.40000,     87.35987,0.90199,3
150.549, 71.93333,     87.39798,0.90172,3
151.101, 72.46667,     87.36749,0.90144,3
151.621, 73.00000,     87.40561,0.90118,3
152.16, 73.53333,     87.43587,0.90090,3
152.71, 74.06667,     87.42085,0.90062,3
153.253, 74.60000,     87.42332,0.90033,3
153.791, 75.13333,     87.45381,0.90005,3
154.318, 75.66667,     87.42332,0.89978,3
154.856, 76.20000,     87.45381,0.89949,3
155.382, 76.73333,     87.48408,0.89921,3
155.91, 77.26667,     87.48408,0.89893,3
156.451, 77.80000,     87.49170,0.89864,3
156.98, 78.33333,     87.53744,0.89836,3
157.498, 78.86667,     87.53744,0.89808,3
158.037, 79.40000,     87.55269,0.89779,3
158.58, 79.93333,     87.58318,0.89749,3
159.113, 80.46667,     87.57803,0.89720,3
159.663, 81.00000,     87.60090,0.89690,3
160.181, 81.53333,     87.63139,0.89662,3
160.709, 82.06667,     87.63386,0.89632,3
161.242, 82.60000,     87.65673,0.89603,3
161.785, 83.13333,     87.67197,0.89573,3
162.315, 83.66667,     87.67960,0.89543,3
162.846, 84.20000,     87.71749,0.89513,3
163.377, 84.73333,     87.71749,0.89483,3
163.9, 85.26667,     87.71749,0.89453,3
164.446, 85.80000,     87.71749,0.89422,3
164.972, 86.33333,     87.75561,0.89392,3
165.526, 86.86667,     87.77848,0.89360,3
166.039, 87.40000,     87.77848,0.89331,3
166.572, 87.93333,     87.80135,0.89300,3
167.107, 88.46667,     87.83161,0.89269,3
167.632, 89.00000,     87.83161,0.89238,3
168.184, 89.53333,     87.83161,0.89206,3
168.71, 90.06667,     87.86211,0.89175,3
169.244, 90.60000,     87.89260,0.89143,3
169.777, 91.13333,     87.87735,0.89112,3
170.303, 91.66667,     87.88498,0.89081,3
170.857, 92.20000,     87.91031,0.89047,3
171.375, 92.73333,     87.91794,0.89016,3
171.914, 93.26667,     87.94843,0.88984,3
172.432, 93.80000,     87.94843,0.88953,3
172.979, 94.33333,     87.95852,0.88920,3
173.501, 94.86667,     87.95852,0.88888,3
174.036, 95.40000,     88.04731,0.88855,3
174.559, 95.93333,     88.01928,0.88823,3
175.102, 96.46667,     88.01928,0.88790,3
175.64, 97.00000,     88.03453,0.88757,3
176.161, 97.53333,     88.05493,0.88724,3
176.699, 98.06667,     88.05493,0.88691,3
177.238, 98.60000,     88.08543,0.88657,3
177.776, 99.13333,     88.05493,0.88624,3
178.296, 99.66667,     88.08543,0.88591,3
178.825,100.2,     88.11570,0.88558,3
179.378,100.733,     88.11570,0.88523,3
179.912,101.267,     88.17668,0.88489,3
180.447,101.8,     88.14619,0.88455,3
180.976,102.333,     88.14619,0.88421,3
181.515,102.867,     88.16143,0.88387,3
182.034,103.4,     88.19193,0.88353,3
182.57,103.933,     88.19193,0.88319,3
183.101,104.467,     88.22242,0.88285,3
183.645,105,     88.23004,0.88249,3
184.173,105.533,     88.23744,0.88215,3
184.708,106.067,     88.26794,0.88180,3
185.237,106.6,     88.25269,0.88145,3
185.778,107.133,     88.31368,0.88110,3
186.322,107.667,     88.31368,0.88074,3
186.843,108.2,     88.29843,0.88040,3
187.38,108.733,     88.31368,0.88004,3
187.914,109.267,     88.28318,0.87969,3
188.443,109.8,     88.35179,0.87933,3
188.977,110.333,     88.35179,0.87898,3
189.501,110.867,     88.38206,0.87862,3
190.036,111.4,     88.35919,0.87826,3
190.577,111.933,     88.35179,0.87790,3
191.114,112.467,     88.38206,0.87754,3
191.642,113,     88.41256,0.87718,3
192.185,113.533,     88.41256,0.87681,3
192.714,114.067,     88.40493,0.87645,3
193.232,114.6,     88.43543,0.87609,3
193.766,115.133,     88.43543,0.87573,3
194.301,115.667,     88.43543,0.87536,3
194.839,116.2,     88.46592,0.87499,3
195.366,116.733,     88.46592,0.87462,3
195.914,117.267,     88.48857,0.87424,3
196.438,117.8,     88.48857,0.87388,3
196.98,118.333,     88.51906,0.87350,3
197.521,118.867,     88.48857,0.87312,3
198.05,119.4,     88.51906,0.87275,3
198.583,119.933,     88.54955,0.87237,3
199.112,120.467,     88.54955,0.87200,3
199.65,121,     88.54955,0.87162,3
200.174,121.533,     88.54955,0.87125,3
200.716,122.067,     88.58004,0.87086,3
201.243,122.6,     88.54955,0.87048,3
201.777,123.133,     88.56480,0.87010,3
202.31,123.667,     88.58767,0.86972,3
202.842,124.2,     88.58767,0.86934,3
203.372,124.733,     88.58767,0.86896,3
203.905,125.267,     88.65112,0.86857,3
204.443,125.8,     88.59260,0.86818,3
204.971,126.333,     88.59260,0.86780,3
205.499,126.867,     88.60785,0.86742,3
206.04,127.4,     88.60785,0.86702,3
206.57,127.933,     88.63072,0.86663,3
207.104,128.467,     88.60022,0.86624,3
207.642,129,     88.63072,0.86585,3
208.159,129.533,     88.63834,0.86547,3
208.705,130.067,     88.66883,0.86506,3
209.241,130.6,     88.66883,0.86467,3
209.776,131.133,     88.66883,0.86427,3
210.302,131.667,     88.69170,0.86388,3
210.836,132.2,     88.66121,0.86348,3
211.369,132.733,     88.69170,0.86308,3
211.897,133.267,     88.69170,0.86269,3
212.442,133.8,     88.69910,0.86228,3
212.979,134.333,     88.70673,0.86188,3
213.51,134.867,     88.70673,0.86148,3
214.039,135.4,     88.70673,0.86108,3
214.563,135.933,     88.70673,0.86068,3
215.1,136.467,     88.72197,0.86027,3
215.635,137,     88.72197,0.85987,3
216.176,137.533,     88.72197,0.85945,3
216.702,138.067,     88.72197,0.85905,3
217.233,138.6,     88.75247,0.85865,3
217.762,139.133,     88.75247,0.85824,3
218.294,139.667,     88.75247,0.85783,3
218.822,140.2,     88.73722,0.85742,3
219.375,140.733,     88.76009,0.85700,3
219.887,141.267,     88.72960,0.85660,3
220.427,141.8,     88.76009,0.85618,3
220.955,142.333,     88.79821,0.85577,3
221.49,142.867,     88.76771,0.85536,3
222.018,143.4,     88.76771,0.85495,3
222.566,143.933,     88.79058,0.85452,3
223.1,144.467,     88.76771,0.85410,3
223.631,145,     88.76525,0.85368,3
224.162,145.533,     88.76525,0.85327,3
224.695,146.067,     88.76525,0.85285,3
225.228,146.6,     88.76525,0.85243,3
225.771,147.133,     88.77287,0.85200,3
226.295,147.667,     88.77287,0.85158,3
226.833,148.2,     88.77287,0.85116,3
227.366,148.733,     88.77287,0.85073,3
227.899,149.267,     88.77287,0.85031,3
228.441,149.8,     88.77287,0.84988,3
228.968,150.333,     88.79552,0.84946,3
229.505,150.867,     88.76525,0.84903,3
230.029,151.4,     88.77287,0.84861,3
230.575,151.933,     88.76525,0.84817,3
231.105,152.467,     88.79552,0.84774,3
231.626,153,     88.76525,0.84732,3
232.176,153.533,     88.76525,0.84688,3
232.704,154.067,     88.76771,0.84645,3
233.233,154.6,     88.77534,0.84602,3
233.768,155.133,     88.76009,0.84559,3
234.302,155.667,     88.76009,0.84515,3
234.827,156.2,     88.76009,0.84472,3
235.371,156.733,     88.76009,0.84428,3
235.893,157.267,     88.76009,0.84385,3
236.421,157.8,     88.76009,0.84342,3
236.965,158.333,     88.76771,0.84297,3
237.488,158.867,     88.76009,0.84254,3
238.024,159.4,     88.75247,0.84210,3
238.563,159.933,     88.76009,0.84166,3
239.091,160.467,     88.74484,0.84122,3
239.619,161,     88.75247,0.84079,3
240.155,161.533,     88.74484,0.84034,3
240.691,162.067,     88.74484,0.83990,3
241.212,162.6,     88.73722,0.83946,3
241.742,163.133,     88.76009,0.83902,3
242.287,163.667,     88.72960,0.83857,3
242.821,164.2,     88.72960,0.83812,3
243.355,164.733,     88.72197,0.83768,3
243.887,165.267,     88.72960,0.83723,3
244.426,165.8,     88.69910,0.83678,3
244.958,166.333,     88.69910,0.83633,3
245.493,166.867,     88.69910,0.83588,3
246.014,167.4,     88.69910,0.83544,3
246.562,167.933,     88.68408,0.83498,3
247.099,168.467,     88.69170,0.83453,3
247.63,169,     88.69170,0.83408,3
248.159,169.533,     88.69170,0.83363,3
248.682,170.067,     88.68408,0.83319,3
249.216,170.6,     88.68139,0.83273,3
249.741,171.133,     88.68901,0.83229,3
250.291,171.667,     88.65852,0.83182,3
250.825,172.2,     88.65852,0.83136,3
251.358,172.733,     88.65852,0.83091,3
251.889,173.267,     88.65852,0.83045,3
252.417,173.8,     88.62825,0.83000,3
252.958,174.333,     88.65852,0.82954,3
253.494,174.867,     88.65852,0.82907,3
254.026,175.4,     88.64350,0.82862,3
254.56,175.933,     88.62063,0.82816,3
255.083,176.467,     88.62063,0.82771,3
255.614,177,     88.61300,0.82725,3
256.146,177.533,     88.60538,0.82679,3
256.673,178.067,     88.58251,0.82633,3
257.216,178.6,     88.56726,0.82586,3
257.754,179.133,     88.59013,0.82539,3
258.302,179.667,     88.59013,0.82492,3
258.813,180.2,     88.55964,0.82447,3
259.35,180.733,     88.56726,0.82400,3
259.868,181.267,     88.56726,0.82355,3
260.399,181.8,     88.52915,0.82309,3
260.932,182.333,     88.53677,0.82262,3
261.465,182.867,     88.51413,0.82216,3
262.014,183.4,     88.52915,0.82168,3
262.536,183.933,     88.54439,0.82122,3
263.085,184.467,     88.51413,0.82074,3
263.613,185,     88.51413,0.82027,3
264.151,185.533,     88.52915,0.81980,3
264.685,186.067,     88.49888,0.81933,3
265.219,186.6,     88.49619,0.81886,3
265.753,187.133,     88.49619,0.81838,3
266.281,187.667,     88.49619,0.81792,3
266.83,188.2,     88.46592,0.81743,3
267.353,188.733,     88.45561,0.81697,3
267.882,189.267,     88.43296,0.81650,3
268.425,189.8,     88.43296,0.81602,3
268.942,190.333,     88.43296,0.81556,3
269.492,190.867,     88.43296,0.81507,3
270.021,191.4,     88.43296,0.81460,3
270.555,191.933,     88.43543,0.81412,3
271.081,192.467,     88.40493,0.81365,3
271.62,193,     88.38206,0.81317,3
272.148,193.533,     88.38206,0.81270,3
272.681,194.067,     88.38206,0.81222,3
273.227,194.6,     88.36682,0.81173,3
273.736,195.133,     88.39731,0.81127,3
274.272,195.667,     88.36682,0.81079,3
274.811,196.2,     88.34417,0.81031,3
275.35,196.733,     88.35179,0.80982,3
275.889,197.267,     88.34417,0.80934,3
276.417,197.8,     88.35179,0.80886,3
276.947,198.333,     88.32130,0.80838,3
277.477,198.867,     88.32130,0.80790,3
278.018,199.4,     88.32130,0.80741,3
278.555,199.933,     88.29843,0.80693,3
279.071,200.467,     88.29843,0.80646,3
279.616,201,     88.29843,0.80597,3
280.15,201.533,     88.26031,0.80548,3
280.688,202.067,     88.28318,0.80499,3
281.221,202.6,     88.25269,0.80451,3
281.751,203.133,     88.25269,0.80403,3
282.281,203.667,     88.25269,0.80354,3
282.811,204.2,     88.23004,0.80306,3
283.333,204.733,     88.21973,0.80259,3
283.873,205.267,     88.21973,0.80209,3
284.416,205.8,     88.21973,0.80160,3
284.948,206.333,     88.18924,0.80111,3
285.476,206.867,     88.18924,0.80063,3
286.003,207.4,     88.20448,0.80014,3
286.553,207.933,     88.20448,0.79964,3
287.076,208.467,     88.11323,0.79916,3
287.604,209,     88.17422,0.79868,3
288.147,209.533,     88.17422,0.79818,3
288.684,210.067,     88.17422,0.79768,3
289.21,210.6,     88.15135,0.79720,3
289.735,211.133,     88.15135,0.79672,3
290.272,211.667,     88.14126,0.79622,3
290.806,212.2,     88.14126,0.79573,3
291.338,212.733,     88.11839,0.79524,3
291.867,213.267,     88.11076,0.79475,3
292.399,213.8,     88.09552,0.79426,3
292.936,214.333,     88.11839,0.79376,3
293.466,214.867,     88.08789,0.79327,3
294.004,215.4,     88.08789,0.79278,3
294.54,215.933,     88.08789,0.79228,3
295.073,216.467,     88.08789,0.79179,3
295.604,217,     88.08789,0.79129,3
296.137,217.533,     88.05740,0.79080,3
296.673,218.067,     88.05740,0.79030,3
297.199,218.6,     88.05740,0.78981,3
297.741,219.133,     88.05740,0.78931,3
298.268,219.667,     88.05740,0.78882,3
298.809,220.2,     88.02691,0.78832,3
299.334,220.733,     88.05740,0.78783,3
299.878,221.267,     88.02691,0.78732,3
300.406,221.8,     88.05740,0.78683,3
300.942,222.333,     88.02197,0.78633,3
301.472,222.867,     88.02197,0.78583,3
302.006,223.4,     88.01435,0.78533,3
302.543,223.933,     88.00673,0.78483,3
303.072,224.467,     87.98386,0.78434,3
303.614,225,     88.02197,0.78383,3
304.133,225.533,     87.99148,0.78335,3
304.672,226.067,     87.99148,0.78284,3
305.201,226.6,     87.99148,0.78234,3
305.72,227.133,     87.99148,0.78186,3
306.26,227.667,     87.96861,0.78135,3
306.795,228.2,     87.96861,0.78085,3
307.336,228.733,     87.93812,0.78034,3
307.881,229.267,     87.96368,0.77983,3
308.416,229.8,     87.97130,0.77933,3
308.942,230.333,     87.94081,0.77883,3
309.466,230.867,     87.96368,0.77834,3
310.002,231.4,     87.96368,0.77784,3
310.545,231.933,     87.94081,0.77732,3
311.072,232.467,     87.94081,0.77683,3
311.591,233,     87.91031,0.77634,3
312.131,233.533,     87.92556,0.77583,3
312.678,234.067,     87.92556,0.77532,3
313.205,234.6,     87.92556,0.77482,3
313.736,235.133,     87.91794,0.77432,3
314.278,235.667,     87.89507,0.77381,3
314.816,236.2,     87.89507,0.77330,3
315.347,236.733,     87.87220,0.77280,3
315.885,237.267,     87.89507,0.77229,3
316.421,237.8,     87.91794,0.77178,3
316.942,238.333,     87.86457,0.77129,3
317.484,238.867,     87.88744,0.77078,3
318.008,239.4,     87.86457,0.77028,3
318.547,239.933,     87.86726,0.76977,3
319.075,240.467,     87.87489,0.76927,3
319.611,241,     87.84439,0.76876,3
320.134,241.533,     87.86726,0.76827,3
320.675,242.067,     87.83677,0.76775,3
321.211,242.6,     87.82152,0.76724,3
321.738,243.133,     87.83677,0.76674,3
322.262,243.667,     87.83677,0.76625,3
322.811,244.2,     87.83677,0.76573,3
323.354,244.733,     87.81390,0.76521,3
323.866,245.267,     87.80628,0.76473,3
324.402,245.8,     87.82152,0.76422,3
324.933,246.333,     87.79865,0.76371,3
325.471,246.867,     87.79865,0.76320,3
326.013,247.4,     87.77578,0.76269,3
326.547,247.933,     87.75314,0.76218,3
327.075,248.467,     87.75314,0.76168,3
327.612,249,     87.73789,0.76116,3
328.143,249.533,     87.76076,0.76066,3
328.674,250.067,     87.73027,0.76015,3
329.202,250.6,     87.76076,0.75965,3
329.731,251.133,     87.71502,0.75915,3
330.265,251.667,     87.71502,0.75864,3
330.802,252.2,     87.71502,0.75813,3
331.341,252.733,     87.72265,0.75762,3
331.875,253.267,     87.71502,0.75711,3
332.411,253.8,     87.68453,0.75660,3
332.948,254.333,     87.68453,0.75608,3
333.481,254.867,     87.68453,0.75558,3
334.008,255.4,     87.63139,0.75507,3
334.548,255.933,     87.63139,0.75456,3
335.074,256.467,     87.63139,0.75406,3
335.601,257,     87.60090,0.75356,3
336.128,257.533,     87.57803,0.75305,3
336.675,258.067,     87.57040,0.75253,3
337.212,258.6,     87.57040,0.75202,3
337.735,259.133,     87.53991,0.75152,3
338.272,259.667,     87.52466,0.75101,3
338.824,260.2,     87.49439,0.75048,3
339.345,260.733,     87.50964,0.74998,3
339.871,261.267,     87.49439,0.74948,3
340.41,261.8,     87.48677,0.74897,3
340.941,262.333,     87.44865,0.74846,3
341.476,262.867,     87.47915,0.74795,3
342.009,263.4,     87.41816,0.74744,3
342.538,263.933,     87.40291,0.74694,3
343.055,264.467,     87.38767,0.74644,3
343.607,265,     87.36502,0.74592,3
344.144,265.533,     87.36502,0.74540,3
344.682,266.067,     87.31928,0.74489,3
345.206,266.6,     87.31928,0.74439,3
345.745,267.133,     87.28117,0.74387,3
346.268,267.667,     87.25830,0.74338,3
346.805,268.2,     87.24327,0.74286,3
347.339,268.733,     87.18229,0.74235,3
347.856,269.267,     87.18229,0.74186,3
348.39,269.8,     87.16704,0.74135,3
348.931,270.333,     87.12152,0.74083,3
349.467,270.867,     87.08341,0.74032,3
349.989,271.4,     87.06816,0.73982,3
350.521,271.933,     87.00717,0.73932,3
351.062,272.467,     86.99215,0.73880,3
351.601,273,     86.93879,0.73828,3
352.142,273.533,     86.91592,0.73777,3
352.664,274.067,     86.88543,0.73727,3
353.208,274.6,     86.82466,0.73675,3
353.722,275.133,     86.76368,0.73626,3
354.26,275.667,     86.73341,0.73575,3
354.794,276.2,     86.67242,0.73524,3
355.34,276.733,     86.64193,0.73472,3
355.861,277.267,     86.57848,0.73422,3
356.398,277.8,     86.50247,0.73371,3
356.93,278.333,     86.43408,0.73320,3
357.462,278.867,     86.40359,0.73269,3
357.995,279.4,     86.35022,0.73218,3
358.534,279.933,     86.30717,0.73167,3
359.077,280.467,     86.22848,0.73115,3
359.603,281,     86.13722,0.73065,3
360.138,281.533,     86.04596,0.73014,3
360.669,282.067,     85.98251,0.72964,3
361.202,282.6,     85.89126,0.72913,3
361.73,283.133,     85.79978,0.72863,3
362.265,283.667,     85.70852,0.72812,3
362.799,284.2,     85.61726,0.72761,3
363.333,284.733,     85.49552,0.72710,3
363.866,285.267,     85.38139,0.72659,3
364.401,285.8,     85.28229,0.72608,3
364.931,286.333,     85.16816,0.72558,3
365.462,286.867,     85.04395,0.72507,3
365.996,287.4,     84.94507,0.72457,3
366.532,287.933,     84.78767,0.72406,3
367.059,288.467,     84.66592,0.72356,3
367.6,289,     84.51368,0.72304,3
368.131,289.533,     84.35404,0.72254,3
368.665,290.067,     84.20179,0.72203,3
369.201,290.6,     84.04955,0.72152,3
369.739,291.133,     83.86682,0.72101,3
370.274,291.667,     83.65135,0.72050,3
370.798,292.2,     83.46099,0.72000,3
371.334,292.733,     83.27848,0.71950,3
371.866,293.267,     83.09327,0.71899,3
372.4,293.8,     82.86996,0.71849,3
372.936,294.333,     82.62915,0.71798,3
373.48,294.867,     82.37534,0.71746,3
374.005,295.4,     82.12422,0.71696,3
374.524,295.933,     81.90359,0.71647,3
375.066,296.467,     81.57377,0.71596,3
375.602,297,     81.26682,0.71545,3
376.132,297.533,     80.97265,0.71495,3
376.654,298.067,     80.66054,0.71446,3
377.196,298.6,     80.34103,0.71394,3
377.734,299.133,     79.97825,0.71344,3
378.26,299.667,     79.60291,0.71294,3
378.785,300.2,     79.22489,0.71244,3
379.319,300.733,     78.76323,0.71194,3
379.852,301.267,     78.35471,0.71143,3
380.397,301.8,     77.85516,0.71092,3
380.919,302.333,     77.37578,0.71043,3
381.454,302.867,     76.86323,0.70992,3
381.984,303.4,     76.30022,0.70942,3
382.511,303.933,     75.65830,0.70893,3
383.048,304.467,     75.00135,0.70842,3
383.593,305,     74.34193,0.70791,3
384.12,305.533,     73.58857,0.70741,3
384.662,306.067,     72.85538,0.70690,3
385.186,306.6,     72.02085,0.70641,3
385.71,307.133,     71.16592,0.70592,3
386.249,307.667,     70.27556,0.70541,3
386.788,308.2,     69.33206,0.70490,3
387.316,308.733,     68.43139,0.70441,3
387.845,309.267,     67.34574,0.70391,3
388.379,309.8,     66.26771,0.70341,3
388.918,310.333,     65.12623,0.70290,3
389.45,310.867,     64.00247,0.70241,3
389.988,311.4,     62.81794,0.70190,3
390.517,311.933,     61.53184,0.70141,3
391.053,312.467,     60.28901,0.70090,3
391.588,313,     58.99013,0.70040,3
392.119,313.533,     57.64574,0.69991,3
392.652,314.067,     56.26570,0.69941,3
393.185,314.6,     54.91637,0.69891,3
393.717,315.133,     53.45516,0.69841,3
394.257,315.667,     52.01951,0.69791,3
394.784,316.2,     50.50000,0.69742,3
395.318,316.733,     49.03139,0.69692,3
395.858,317.267,     47.54731,0.69642,3
396.394,317.8,     46.04574,0.69592,3
396.934,318.333,     44.47309,0.69541,3
397.459,318.867,     42.97892,0.69493,3
397.99,319.4,     41.44933,0.69443,3
398.524,319.933,     39.90695,0.69394,3
399.056,320.467,     38.32422,0.69344,3
399.599,321,     36.98744,0.69294,3
399.63,321.04,     36.69821,0.69291,4
399.68,321.08,     36.57130,0.69286,4
399.737,321.12,     36.47758,0.69281,4
399.823,321.16,     36.38117,0.69273,4
399.917,321.2,     36.23655,0.69264,4
400.049,321.24,     36.15538,0.69252,4
400.221,321.28,     36.09955,0.69236,4
400.429,321.32,     36.01592,0.69217,4
400.667,321.36,     35.97265,0.69195,4
400.958,321.4,     35.89664,0.69168,4
401.292,321.44,     35.84843,0.69137,4
401.659,321.48,     35.78498,0.69103,4
402.087,321.52,     35.75202,0.69063,4
402.544,321.56,     35.66076,0.69021,4
403.046,321.6,     35.61009,0.68974,4
403.593,321.64,     35.57197,0.68924,4
404.177,321.68,     35.50336,0.68870,4
404.785,321.72,     35.45516,0.68813,4
405.45,321.76,     35.38677,0.68752,4
406.131,321.8,     35.34865,0.68689,4
406.844,321.84,     35.26749,0.68624,4
407.581,321.88,     35.14327,0.68556,4
408.345,321.92,     35.06457,0.68485,4
409.117,321.96,     34.97848,0.68414,4
409.901,322,     34.87691,0.68342,4
410.708,322.04,     34.76278,0.68268,4
411.524,322.08,     34.62332,0.68194,4
412.332,322.12,     34.49641,0.68120,4
413.153,322.16,     34.37466,0.68044,4
413.975,322.2,     34.22489,0.67969,4
414.783,322.24,     34.07780,0.67895,4
415.595,322.28,     33.88767,0.67821,4
416.405,322.32,     33.73543,0.67748,4
417.191,322.36,     33.53004,0.67676,4
417.978,322.4,     33.29148,0.67604,4
418.765,322.44,     33.07085,0.67533,4
419.527,322.48,     32.82735,0.67464,4
420.286,322.52,     32.62444,0.67395,4
421.034,322.56,     32.36300,0.67327,4
421.767,322.6,     32.09664,0.67261,4
422.475,322.64,     31.85314,0.67197,4
423.192,322.68,     31.58184,0.67132,4
423.891,322.72,     31.29776,0.67069,4
424.586,322.76,     30.99327,0.67006,4
425.273,322.8,     30.70157,0.66945,4
425.944,322.84,     30.38206,0.66884,4
426.616,322.88,     30.03946,0.66824,4
427.285,322.92,     29.70224,0.66764,4
427.938,322.96,     29.35717,0.66705,4
428.59,323,     29.03251,0.66647,4
429.254,323.04,     28.68251,0.66587,4
429.909,323.08,     28.32466,0.66529,4
430.562,323.12,     27.95448,0.66470,4
431.221,323.16,     27.58655,0.66412,4
431.885,323.2,     27.18318,0.66352,4
432.558,323.24,     26.79776,0.66292,4
433.228,323.28,     26.39193,0.66233,4
433.887,323.32,     25.96054,0.66174,4
434.569,323.36,     25.52444,0.66114,4
435.254,323.4,     25.09574,0.66053,4
435.945,323.44,     24.67197,0.65992,4
436.645,323.48,     24.22309,0.65930,4
437.362,323.52,     23.75874,0.65866,4
438.076,323.56,     23.28184,0.65803,4
438.806,323.6,     22.81009,0.65739,4
439.545,323.64,     22.33834,0.65674,4
440.293,323.68,     21.85628,0.65608,4
441.029,323.72,     21.36435,0.65543,4
441.794,323.76,     20.86951,0.65476,4
442.557,323.8,     20.33946,0.65409,4
443.337,323.84,     19.87265,0.65341,4
444.114,323.88,     19.33251,0.65273,4
444.9,323.92,     18.81996,0.65204,4
445.696,323.96,     18.24170,0.65135,4
446.489,324,     17.67601,0.65066,4
447.299,324.04,     17.12556,0.64995,4
448.106,324.08,     16.54462,0.64925,4
448.918,324.12,     15.97130,0.64855,4
449.74,324.16,     15.43363,0.64784,4
450.558,324.2,     14.86547,0.64713,4
451.377,324.24,     14.25919,0.64642,4
452.205,324.28,     13.66054,0.64571,4
453.032,324.32,     13.05426,0.64500,4
453.864,324.36,     12.48341,0.64428,4
454.683,324.4,     11.89238,0.64358,4
455.507,324.44,     11.31166,0.64287,4
456.341,324.48,     10.71031,0.64216,4
457.171,324.52,     10.10157,0.64145,4
458.006,324.56,      9.50807,0.64074,4
458.839,324.6,      8.91951,0.64003,4
459.66,324.64,      8.35135,0.63933,4
460.494,324.68,      7.78812,0.63862,4
461.312,324.72,      7.20740,0.63793,4
462.148,324.76,      6.64417,0.63722,4
462.97,324.8,      6.10897,0.63653,4
463.795,324.84,      5.59395,0.63583,4
464.626,324.88,      5.08677,0.63513,4
465.438,324.92,      4.56928,0.63445,4
466.274,324.96,      4.07960,0.63375,4
467.103,325,      3.61794,0.63305,4
467.917,325.04,      3.16390,0.63237,4
468.736,325.08,      2.76300,0.63169,4
469.567,325.12,      2.32691,0.63099,4
470.387,325.16,      1.93117,0.63031,4
471.214,325.2,      1.54305,0.62962,4
472.043,325.24,      1.19798,0.62894,4
472.871,325.28,      0.83789,0.62825,4
473.69,325.32,      0.48767,0.62757,4
474.515,325.36,      0.17063,0.62689,4
475.35,325.4,     -0.12354,0.62621,4
476.17,325.44,     -0.42803,0.62553,4
477.003,325.48,     -0.71973,0.62485,4
477.827,325.52,     -0.99372,0.62417,4
478.658,325.56,     -1.26009,0.62349,4
479.484,325.6,     -1.50852,0.62282,4
480.33,325.64,     -1.74955,0.62213,4
481.155,325.68,     -1.96771,0.62146,4
481.995,325.72,     -2.19865,0.62077,4
482.83,325.76,     -2.42937,0.62010,4
483.663,325.8,     -2.67287,0.61942,4
484.512,325.84,     -2.86323,0.61874,4
485.356,325.88,     -3.04843,0.61806,4
486.186,325.92,     -3.23610,0.61739,4
487.016,325.96,     -3.42892,0.61672,4
487.862,326,     -3.61659,0.61604,4
488.708,326.04,     -3.75090,0.61537,4
489.548,326.08,     -3.90561,0.61470,4
490.388,326.12,     -4.09350,0.61403,4
491.232,326.16,     -4.21009,0.61336,4
492.069,326.2,     -4.36996,0.61269,4
492.914,326.24,     -4.47399,0.61202,4
493.756,326.28,     -4.57287,0.61135,4
494.605,326.32,     -4.69978,0.61068,4
495.439,326.36,     -4.79103,0.61003,4
496.282,326.4,     -4.87713,0.60936,4
497.125,326.44,     -4.93565,0.60870,4
497.976,326.48,     -5.03206,0.60804,4
498.803,326.52,     -5.09283,0.60739,4
499.657,326.56,     -5.15628,0.60672,4
500.489,326.6,     -5.20695,0.60608,4
501.334,326.64,     -5.28812,0.60542,4
502.175,326.68,     -5.34910,0.60477,4
503.015,326.72,     -5.35673,0.60412,4
503.861,326.76,     -5.38700,0.60346,4
504.702,326.8,     -5.41749,0.60282,4
505.54,326.84,     -5.44798,0.60217,4
506.372,326.88,     -5.47848,0.60153,4
507.215,326.92,     -5.47848,0.60089,4
508.055,326.96,     -5.47848,0.60025,4
508.894,327,     -5.47848,0.59961,4
509.735,327.04,     -5.50897,0.59897,4
510.578,327.08,     -5.50897,0.59833,4
511.406,327.12,     -5.50897,0.59770,4
512.263,327.16,     -5.50897,0.59705,4
513.087,327.2,     -5.50897,0.59643,4
513.924,327.24,     -5.50897,0.59580,4
514.76,327.28,     -5.50897,0.59517,4
515.601,327.32,     -5.47848,0.59454,4
516.427,327.36,     -5.47848,0.59392,4
517.272,327.4,     -5.47848,0.59329,4
518.111,327.44,     -5.46323,0.59266,4
518.948,327.48,     -5.44798,0.59204,4
519.779,327.52,     -5.44798,0.59143,4
520.617,327.56,     -5.44798,0.59081,4
521.451,327.6,     -5.45561,0.59019,4
522.293,327.64,     -5.45561,0.58957,4
523.135,327.68,     -5.45561,0.58895,4
523.968,327.72,     -5.42511,0.58834,4
524.794,327.76,     -5.42511,0.58773,4
525.639,327.8,     -5.42511,0.58712,4
526.471,327.84,     -5.39462,0.58651,4
527.311,327.88,     -5.39462,0.58590,4
528.133,327.92,     -5.39462,0.58530,4
528.976,327.96,     -5.39462,0.58469,4
529.807,328,     -5.36435,0.58409,4
530.634,328.04,     -5.36435,0.58349,4
531.477,328.08,     -5.36435,0.58289,4
532.305,328.12,     -5.33386,0.58229,4
533.137,328.16,     -5.30336,0.58170,4
533.972,328.2,     -5.30336,0.58110,4
534.806,328.24,     -5.30336,0.58051,4
535.647,328.28,     -5.30336,0.57991,4
536.474,328.32,     -5.30336,0.57932,4
537.31,328.36,     -5.30336,0.57873,4
538.149,328.4,     -5.27287,0.57813,4
538.974,328.44,     -5.25762,0.57755,4
539.796,328.48,     -5.24260,0.57698,4
540.634,328.52,     -5.24260,0.57639,4
541.469,328.56,     -5.24260,0.57580,4
542.304,328.6,     -5.24260,0.57522,4
543.132,328.64,     -5.22735,0.57464,4
543.968,328.68,     -5.21211,0.57406,4
544.79,328.72,     -5.21211,0.57349,4
545.626,328.76,     -5.21211,0.57291,4
546.455,328.8,     -5.21211,0.57234,4
547.272,328.84,     -5.18161,0.57178,4
548.115,328.88,     -5.15112,0.57120,4
548.944,328.92,     -5.15112,0.57063,4
549.766,328.96,     -5.15112,0.57007,4
550.594,329,     -5.15112,0.56950,4
551.429,329.04,     -5.14350,0.56893,4
552.256,329.08,     -5.12085,0.56837,4
553.083,329.12,     -5.09036,0.56781,4
553.911,329.16,     -5.09036,0.56725,4
554.74,329.2,     -5.09036,0.56669,4
555.566,329.24,     -5.05987,0.56613,4
556.387,329.28,     -5.05987,0.56558,4
557.217,329.32,     -5.02937,0.56503,4
558.046,329.36,     -5.02937,0.56447,4
558.869,329.4,     -5.02937,0.56392,4
559.7,329.44,     -5.02937,0.56337,4
560.522,329.48,     -5.02937,0.56283,4
561.344,329.52,     -4.99910,0.56228,4
562.174,329.56,     -4.99910,0.56173,4
562.997,329.6,     -4.99910,0.56119,4
563.832,329.64,     -4.99910,0.56064,4
564.663,329.68,     -4.99910,0.56010,4
565.478,329.72,     -4.96592,0.55956,4
566.302,329.76,     -4.96592,0.55903,4
567.122,329.8,     -4.93565,0.55849,4
567.957,329.84,     -4.93565,0.55795,4
568.772,329.88,     -4.93565,0.55742,4
569.599,329.92,     -4.90516,0.55689,4
570.415,329.96,     -4.90516,0.55636,4
571.262,330,     -4.90516,0.55582,4
572.073,330.04,     -4.88991,0.55530,4
572.895,330.08,     -4.87466,0.55477,4
573.723,330.12,     -4.87466,0.55424,4
574.545,330.16,     -4.85179,0.55372,4
575.375,330.2,     -4.85179,0.55319,4
576.195,330.24,     -4.85179,0.55267,4
577.016,330.28,     -4.85179,0.55215,4
577.842,330.32,     -4.84417,0.55163,4
578.669,330.36,     -4.82152,0.55111,4
579.493,330.4,     -4.81390,0.55059,4
580.312,330.44,     -4.81390,0.55008,4
581.131,330.48,     -4.79865,0.54957,4
581.942,330.52,     -4.78341,0.54906,4
582.774,330.56,     -4.78341,0.54854,4
583.597,330.6,     -4.75045,0.54803,4
584.407,330.64,     -4.71996,0.54753,4
585.243,330.68,     -4.71996,0.54701,4
586.068,330.72,     -4.71996,0.54651,4
586.881,330.76,     -4.71996,0.54601,4
587.698,330.8,     -4.73520,0.54551,4
588.515,330.84,     -4.73520,0.54501,4
589.352,330.88,     -4.70471,0.54450,4
590.166,330.92,     -4.68946,0.54400,4
590.989,330.96,     -4.67422,0.54350,4
591.804,331,     -4.67422,0.54301,4
592.625,331.04,     -4.67422,0.54251,4
593.446,331.08,     -4.64395,0.54202,4
594.27,331.12,     -4.64395,0.54152,4
595.093,331.16,     -4.64395,0.54103,4
595.902,331.2,     -4.64395,0.54054,4
596.728,331.24,     -4.61345,0.54005,4
597.542,331.28,     -4.61345,0.53957,4
598.366,331.32,     -4.61345,0.53908,4
599.185,331.36,     -4.58296,0.53859,4
599.994,331.4,     -4.58296,0.53811,4
600.817,331.44,     -4.57534,0.53763,4
601.633,331.48,     -4.55247,0.53715,4
602.453,331.52,     -4.55247,0.53667,4
603.273,331.56,     -4.55247,0.53619,4
604.091,331.6,     -4.55247,0.53571,4
604.902,331.64,     -4.52982,0.53524,4
605.722,331.68,     -4.52220,0.53476,4
606.541,331.72,     -4.52220,0.53429,4
607.356,331.76,     -4.49170,0.53381,4
608.172,331.8,     -4.49170,0.53334,4
608.988,331.84,     -4.46883,0.53287,4
609.805,331.88,     -4.46121,0.53240,4
610.624,331.92,     -4.46121,0.53194,4
611.433,331.96,     -4.46121,0.53147,4
612.258,332,     -4.45359,0.53100,4
613.073,332.04,     -4.43072,0.53054,4
613.89,332.08,     -4.43072,0.53008,4
614.706,332.12,     -4.43072,0.52961,4
615.52,332.16,     -4.43072,0.52916,4
616.331,332.2,     -4.43072,0.52870,4
617.147,332.24,     -4.40045,0.52824,4
617.963,332.28,     -4.36996,0.52778,4
618.784,332.32,     -4.36996,0.52732,4
619.602,332.36,     -4.36996,0.52687,4
620.428,332.4,     -4.36996,0.52641,4
621.226,332.44,     -4.36996,0.52596,4
622.042,332.48,     -4.36233,0.52551,4
622.858,332.52,     -4.33946,0.52506,4
623.682,332.56,     -4.30897,0.52461,4
624.499,332.6,     -4.30897,0.52416,4
625.299,332.64,     -4.30897,0.52372,4
626.131,332.68,     -4.30897,0.52326,4
626.945,332.72,     -4.29372,0.52282,4
627.75,332.76,     -4.27870,0.52238,4
628.566,332.8,     -4.27870,0.52194,4
629.382,332.84,     -4.27870,0.52150,4
630.189,332.88,     -4.27870,0.52106,4
631.018,332.92,     -4.27870,0.52061,4
631.822,332.96,     -4.27870,0.52018,4
632.628,333,     -4.24552,0.51975,4
633.446,333.04,     -4.21525,0.51931,4
634.257,333.08,     -4.21525,0.51887,4
635.076,333.12,     -4.21525,0.51844,4
635.882,333.16,     -4.21525,0.51801,4
636.693,333.2,     -4.21525,0.51758,4
637.509,333.24,     -4.21525,0.51715,4
638.326,333.28,     -4.20762,0.51672,4
639.142,333.32,     -4.18475,0.51629,4
639.95,333.36,     -4.18475,0.51586,4
640.769,333.4,     -4.20762,0.51543,4
641.572,333.44,     -4.20762,0.51501,4
642.386,333.48,     -4.17713,0.51458,4
643.192,333.52,     -4.17713,0.51416,4
644.005,333.56,     -4.17713,0.51374,4
644.811,333.6,     -4.15426,0.51332,4
645.633,333.64,     -4.15426,0.51290,4
646.442,333.68,     -4.14664,0.51248,4
647.248,333.72,     -4.11614,0.51207,4
648.065,333.76,     -4.13139,0.51165,4
648.879,333.8,     -4.14664,0.51123,4
649.689,333.84,     -4.13901,0.51081,4
650.496,333.88,     -4.11614,0.51040,4
651.307,333.92,     -4.11614,0.50999,4
652.13,333.96,     -4.11614,0.50957,4
652.932,334,     -4.11614,0.50916,4
653.745,334.04,     -4.10112,0.50875,4
654.555,334.08,     -4.08587,0.50834,4
655.373,334.12,     -4.10874,0.50793,4
656.19,334.16,     -4.10874,0.50752,4
656.999,334.2,     -4.10874,0.50711,4
657.803,334.24,     -4.10874,0.50671,4
658.617,334.28,     -4.07825,0.50631,4
659.436,334.32,     -4.07825,0.50590,4
660.236,334.36,     -4.07825,0.50550,4
661.049,334.4,     -4.07825,0.50510,4
661.863,334.44,     -4.07825,0.50469,4
662.669,334.48,     -4.06300,0.50430,4
663.473,334.52,     -4.06300,0.50390,4
664.289,334.56,     -4.06300,0.50350,4
665.092,334.6,     -4.06300,0.50310,4
665.918,334.64,     -4.06300,0.50270,4
666.73,334.68,     -4.04776,0.50230,4
667.532,334.72,     -4.04776,0.50191,4
668.34,334.76,     -4.07825,0.50152,4
669.149,334.8,     -4.07825,0.50112,4
669.961,334.84,     -4.04776,0.50073,4
670.775,334.88,     -4.04776,0.50034,4
671.585,334.92,     -4.04776,0.49995,4
672.391,334.96,     -4.04776,0.49956,4
673.201,335,     -4.04776,0.49917,4
674.014,335.04,     -4.04776,0.49878,4
674.825,335.08,     -4.04013,0.49839,4
675.627,335.12,     -4.04013,0.49801,4
676.446,335.16,     -4.04013,0.49762,4
677.254,335.2,     -4.01726,0.49723,4
678.06,335.24,     -4.01726,0.49685,4
678.868,335.28,     -4.01726,0.49647,4
679.684,335.32,     -4.01726,0.49608,4
680.487,335.36,     -4.01726,0.49570,4
681.294,335.4,     -4.01726,0.49532,4
682.106,335.44,     -4.01726,0.49494,4
682.913,335.48,     -4.01726,0.49456,4
683.726,335.52,     -4.01726,0.49418,4
684.529,335.56,     -3.98677,0.49380,4
685.33,335.6,     -3.98677,0.49343,4
686.155,335.64,     -3.98677,0.49305,4
686.968,335.68,     -3.95650,0.49267,4
687.775,335.72,     -3.95650,0.49229,4
688.577,335.76,     -3.95650,0.49192,4
689.401,335.8,     -3.95650,0.49154,4
690.201,335.84,     -3.98677,0.49117,4
691.008,335.88,     -3.98677,0.49080,4
691.821,335.92,     -3.98677,0.49043,4
692.623,335.96,     -3.95650,0.49006,4
693.441,336,     -3.95650,0.48969,4
694.253,336.04,     -3.92601,0.48931,4
695.062,336.08,     -3.92601,0.48894,4
695.866,336.12,     -3.92601,0.48858,4
696.683,336.16,     -3.92601,0.48821,4
697.49,336.2,     -3.92601,0.48784,4
698.313,336.24,     -3.89552,0.48747,4
699.121,336.28,     -3.89552,0.48710,4
699.933,336.32,     -3.89552,0.48674,4
700.732,336.36,     -3.86502,0.48638,4
701.541,336.4,     -3.86502,0.48601,4
702.355,336.44,     -3.86502,0.48565,4
703.164,336.48,     -3.86502,0.48528,4
703.984,336.52,     -3.86502,0.48492,4
704.786,336.56,     -3.83475,0.48456,4
705.596,336.6,     -3.83475,0.48420,4
706.406,336.64,     -3.83475,0.48384,4
707.22,336.68,     -3.80426,0.48348,4
708.036,336.72,     -3.80426,0.48311,4
708.843,336.76,     -3.79664,0.48276,4
709.652,336.8,     -3.77377,0.48240,4
710.46,336.84,     -3.77377,0.48204,4
711.266,336.88,     -3.77377,0.48169,4
712.07,336.92,     -3.77377,0.48133,4
712.884,336.96,     -3.77377,0.48097,4
713.685,337,     -3.77377,0.48062,4
714.503,337.04,     -3.77377,0.48026,4
715.303,337.08,     -3.77377,0.47991,4
716.117,337.12,     -3.77377,0.47956,4
716.927,337.16,     -3.74327,0.47920,4
717.74,337.2,     -3.72825,0.47885,4
718.54,337.24,     -3.71300,0.47850,4
719.352,337.28,     -3.68251,0.47815,4
720.161,337.32,     -3.68251,0.47780,4
720.974,337.36,     -3.68251,0.47745,4
721.777,337.4,     -3.68251,0.47710,4
722.589,337.44,     -3.68251,0.47675,4
723.395,337.48,     -3.65202,0.47640,4
724.207,337.52,     -3.62152,0.47605,4
725.02,337.56,     -3.62152,0.47570,4
725.834,337.6,     -3.62152,0.47535,4
726.639,337.64,     -3.62152,0.47501,4
727.439,337.68,     -3.62152,0.47467,4
728.253,337.72,     -3.62152,0.47432,4
729.065,337.76,     -3.62152,0.47397,4
729.87,337.8,     -3.59126,0.47363,4
730.675,337.84,     -3.59126,0.47329,4
731.487,337.88,     -3.57601,0.47294,4
732.299,337.92,     -3.56076,0.47259,4
733.108,337.96,     -3.56076,0.47225,4
733.913,338,     -3.56076,0.47191,4
734.729,338.04,     -3.56076,0.47156,4
735.54,338.08,     -3.54552,0.47122,4
736.349,338.12,     -3.53027,0.47088,4
737.132,338.16,     -3.49978,0.47055,4
737.953,338.2,     -3.49978,0.47020,4
738.753,338.24,     -3.49978,0.46987,4
739.563,338.28,     -3.49978,0.46953,4
740.384,338.32,     -3.47691,0.46918,4
741.182,338.36,     -3.46951,0.46885,4
741.988,338.4,     -3.46951,0.46851,4
742.799,338.44,     -3.46951,0.46817,4
743.608,338.48,     -3.43901,0.46783,4
744.415,338.52,     -3.43901,0.46750,4
745.229,338.56,     -3.43901,0.46716,4
746.031,338.6,     -3.43901,0.46682,4
746.844,338.64,     -3.43901,0.46648,4
747.652,338.68,     -3.40852,0.46615,4
748.468,338.72,     -3.40852,0.46581,4
749.261,338.76,     -3.39327,0.46548,4
750.082,338.8,     -3.37803,0.46514,4
750.876,338.84,     -3.37803,0.46481,4
751.685,338.88,     -3.37803,0.46448,4
752.501,338.92,     -3.34753,0.46414,4
753.293,338.96,     -3.34753,0.46381,4
754.109,339,     -3.34753,0.46348,4
754.913,339.04,     -3.34753,0.46314,4
755.726,339.08,     -3.31726,0.46281,4
756.541,339.12,     -3.31726,0.46247,4
757.342,339.16,     -3.31726,0.46215,4
758.152,339.2,     -3.31726,0.46181,4
758.954,339.24,     -3.30202,0.46148,4
759.772,339.28,     -3.28677,0.46115,4
760.571,339.32,     -3.28677,0.46082,4
761.385,339.36,     -3.28677,0.46049,4
762.191,339.4,     -3.25381,0.46016,4
762.997,339.44,     -3.25381,0.45983,4
763.808,339.48,     -3.23857,0.45950,4
764.617,339.52,     -3.23857,0.45917,4
765.428,339.56,     -3.23857,0.45884,4
766.239,339.6,     -3.22332,0.45851,4
767.045,339.64,     -3.22332,0.45818,4
767.853,339.68,     -3.19283,0.45785,4
768.662,339.72,     -3.19283,0.45752,4
769.456,339.76,     -3.19283,0.45720,4
770.272,339.8,     -3.15740,0.45686,4
771.084,339.84,     -3.14978,0.45653,4
771.889,339.88,     -3.12691,0.45621,4
772.7,339.92,     -3.12691,0.45588,4
773.511,339.96,     -3.12691,0.45555,4
774.323,340,     -3.12691,0.45522,4
775.128,340.04,     -3.09641,0.45490,4
775.937,340.08,     -3.09641,0.45457,4
776.742,340.12,     -3.09641,0.45424,4
777.554,340.16,     -3.09641,0.45391,4
778.358,340.2,     -3.09641,0.45359,4
779.171,340.24,     -3.06614,0.45326,4
779.979,340.28,     -3.06614,0.45293,4
780.788,340.32,     -3.06614,0.45261,4
781.59,340.36,     -3.05852,0.45228,4
782.404,340.4,     -3.03565,0.45196,4
783.208,340.44,     -3.03565,0.45163,4
784.012,340.48,     -3.03565,0.45131,4
784.817,340.52,     -3.00516,0.45098,4
785.632,340.56,     -3.00516,0.45066,4
786.436,340.6,     -3.00516,0.45033,4
787.241,340.64,     -3.00516,0.45001,4
788.057,340.68,     -2.97466,0.44968,4
788.854,340.72,     -2.97466,0.44936,4
789.655,340.76,     -2.97466,0.44904,4
790.461,340.8,     -2.97466,0.44871,4
791.277,340.84,     -2.94439,0.44839,4
792.076,340.88,     -2.94439,0.44806,4
792.883,340.92,     -2.94439,0.44774,4
793.683,340.96,     -2.94439,0.44742,4
794.487,341,     -2.94439,0.44710,4