File: data/TGA/commercial_samples/ExpDat_2025_08_27_SL_PS_Blue_Cup_SCF3_Isothermal.csv
#EXPORTTYPE:                 ,DATA ALL
#FILE:                       ,2025_08_27_SL_PS_Blue_Cup_SCF3_Isothermal.ngb-ss5
#FORMAT:                     ,NETZSCH5
#FTYPE:                      ,ASCII
#IDENTITY:                   ,250821-P5EER3-V3+4
#DECIMAL:                    ,POINT
#SEPARATOR:                  ,COMMA
#MTYPE:                      ,DSC
#INSTRUMENT:                 ,NETZSCH STA 449F5
#PROJECT:                    ,Polystyrene
#DATE/TIME:                  ,8/27/2025 12:05:40 PM (UTC-4)
#CORR. FILE:                 ,
#TEMPCAL:                    ,05-05-2025 14:38
#SENSITIVITY:                ,28-06-2023 13:53
#LABORATORY:                 ,Tran/AAG
#OPERATOR:                   ,Stanley
#REMARK:                     ,2025_03_29_SL_005d_M1_isothermal
#SAMPLE:                     ,250821-P5EER3-V3+4
#SAMPLE MASS /mg:            ,5.35
#MATERIAL:                   ,Polystyrene
#REFERENCE:                  ,
#REFERENCE MASS /mg:         ,0
#TYPE OF CRUCIBLE:           ,Al2O3 85 ‘l, open
#SAMPLE CRUCIBLE MASS /mg:   ,0
#REFERENCE CRUCIBLE MASS /mg:,0
#DSC RANGE /‘V:              ,5000
#TG RANGE /mg:               ,35000
#TAU-R:                      ,---
#CORR. CODE:                 ,000
#EXO:                        ,-1
#RANGE:                      ,30›C....800›C/0.0....20.0K/min
#SEGMENT:                    ,S1-5/5
#SEG. 1:                     ,30›C/10.0(K/min)/100›C
#SEG. 2:                     ,100›C/00:10/100›C
#SEG. 3:                     ,100›C/5.0(K/min)/300›C
#SEG. 4:                     ,300›C/20:00/300›C
#SEG. 5:                     ,300›C/20.0(K/min)/800›C

##Temp./›C,Time/min,DSC/(mW/mg),Mass/%,Gas Flow(purge2)/(ml/min),Gas Flow(protective)/(ml/min),TIC(scan:1)/A,Sensit./(uV/mW),Segment
 26.41200,   0.00000,      0.69924,    100,50.00000,50.00000,            ,0.92285,1
 32.55700,   1.28000,      0.82893,    100.203,50.00000,50.00000,8.242137e-09,0.92310,1
 39.75800,   2.56000,      1.00358,     92.36187,50.00000,50.00000,8.207951e-09,0.92339,1
 49.02100,   3.84000,      1.37615,     94.48299,50.00000,50.00000,8.194688e-09,0.92364,1
 61.12900,   5.12000,      1.84488,     95.30131,50.00000,50.00000,8.181771e-09,0.92393,1
 75.21200,   6.40000,      2.24920,     95.96748,50.00000,50.00000,8.178306e-09,0.92418,1
 86.29900,   7.33917,      2.48499,     96.27607,50.00000,50.00000,8.169564e-09,0.92439,2
 92.99600,   7.97917,      2.30273,     95.79402,50.00000,50.00000,8.164271e-09,0.92452,2
 97.91100,   8.61917,      1.84058,     95.05607,50.00000,50.00000,8.153306e-09,0.92465,2
101.399,   9.25917,      1.39356,     94.45121,50.00000,50.00000,8.168143e-09,0.92475,2
104.18,   9.89917,      1.11270,     94.07065,50.00000,50.00000,8.165746e-09,0.92487,2
106.487,  10.53917,      0.90793,     93.73850,50.00000,50.00000,8.154920e-09,0.92499,2
108.184,  11.17917,      0.69315,     93.31570,50.00000,50.00000,8.155735e-09,0.92511,2
109.252,  11.81917,      0.47136,     92.86318,50.00000,50.00000,8.154494e-09,0.92520,2
109.809,  12.45917,      0.27734,     92.44860,50.00000,50.00000,8.152331e-09,0.92532,2
109.999,  13.09917,      0.12331,     92.04467,50.00000,50.00000,8.144332e-09,0.92543,2
109.882,  13.73917, 2.795227e-03,     91.71907,50.00000,50.00000,8.143552e-09,0.92554,2
109.525,  14.37917,-8.928154e-02,     91.41664,50.00000,50.00000,8.150193e-09,0.92562,2
109.002,  15.01917,     -0.16177,     91.10168,50.00000,50.00000,8.147454e-09,0.92572,2
108.366,  15.65917,     -0.21373,     90.87327,50.00000,50.00000,8.134720e-09,0.92581,2
107.645,  16.29917,     -0.24860,     90.64056,50.00000,50.00000,8.151384e-09,0.92590,2
106.866,  16.93917,     -0.26932,     90.41009,50.00000,50.00000,8.137206e-09,0.92596,2
106.173,  18.15917,-7.476191e-02,     90.61738,50.00000,50.00000,8.130032e-09,0.92609,3
108.142,  19.43917,      0.40555,     91.24748,50.00000,50.00000,8.136211e-09,0.92617,3
111.715,  20.71917,      0.72441,     91.71065,50.00000,50.00000,8.127832e-09,0.92620,3
116.905,  21.99917,      1.04954,     92.21383,50.00000,50.00000,8.123576e-09,0.92618,3
123.303,  23.27917,      1.29515,     92.58822,50.00000,50.00000,8.127825e-09,0.92608,3
130.424,  24.55917,      1.45645,     92.87364,50.00000,50.00000,8.130020e-09,0.92594,3
137.917,  25.83917,      1.54895,     93.02374,50.00000,50.00000,8.125529e-09,0.92570,3
145.49,  27.11917,      1.58828,     93.11477,50.00000,50.00000,8.124081e-09,0.92541,3
152.961,  28.39917,      1.59046,     93.11682,50.00000,50.00000,8.128457e-09,0.92500,3
160.281,  29.67917,      1.57022,     93.11682,50.00000,50.00000,8.106404e-09,0.92457,3
167.333,  30.95917,      1.54132,     93.09776,50.00000,50.00000,8.124469e-09,0.92425,3
174.199,  32.23917,      1.51216,     93.04710,50.00000,50.00000,8.118875e-09,0.92399,3
180.891,  33.51917,      1.48352,     93.01963,50.00000,50.00000,8.121940e-09,0.92367,3
187.497,  34.79917,      1.46144,     92.94991,50.00000,50.00000,8.117982e-09,0.92340,3
194.011,  36.07917,      1.44469,     92.93720,50.00000,50.00000,8.106872e-09,0.92308,3
200.467,  37.35917,      1.42796,     92.87364,50.00000,50.00000,8.120224e-09,0.92281,3
206.87,  38.63917,      1.41418,     92.80598,50.00000,50.00000,8.113194e-09,0.92250,3
213.249,  39.91917,      1.40177,     92.72991,50.00000,50.00000,8.122038e-09,0.92225,3
219.602,  41.19917,      1.39007,     92.64112,50.00000,50.00000,8.099597e-09,0.92197,3
225.963,  42.47917,      1.37726,     92.53963,50.00000,50.00000,8.112115e-09,0.92175,3
232.338,  43.75917,      1.36367,     92.42542,50.00000,50.00000,8.107676e-09,0.92150,3
238.711,  45.03917,      1.34720,     92.29850,50.00000,50.00000,8.122409e-09,0.92130,3
245.056,  46.31917,      1.33201,     92.11869,50.00000,50.00000,8.111950e-09,0.92108,3
251.435,  47.59917,      1.31236,     91.91570,50.00000,50.00000,8.103139e-09,0.92090,3
257.798,  48.87917,      1.29378,     91.66206,50.00000,50.00000,8.113199e-09,0.92070,3
264.175,  50.15917,      1.27928,     91.35327,50.00000,50.00000,8.098078e-09,0.92053,3
270.577,  51.43917,      1.25299,     91.07196,50.00000,50.00000,8.114556e-09,0.92035,3
276.948,  52.71917,      1.21969,     90.72093,50.00000,50.00000,8.110519e-09,0.92019,3
283.324,  53.99917,      1.18602,     90.31495,50.00000,50.00000,8.114792e-09,0.92001,3
289.684,  55.27917,      1.15335,     89.94916,50.00000,50.00000,8.116584e-09,0.91986,3
296.072,  56.55917,      1.12067,     89.53047,50.00000,50.00000,8.114979e-09,0.91969,3
302.66,  59.09917,     -0.31130,     89.04187,50.00000,37.00000,8.116760e-09,0.91940,4
302.994,  62.29917,     -0.77010,     87.82187,50.00000,37.00000,8.117841e-09,0.91909,4
301.749,  65.49917,     -0.81816,     86.99925,50.00000,37.00000,8.106670e-09,0.91882,4
300.874,  68.69917,     -0.78013,     86.38598,50.00000,37.00000,8.104414e-09,0.91861,4
300.405,  71.89917,     -0.75124,     85.95458,50.00000,37.00000,8.136295e-09,0.91847,4
300.178,  75.09917,     -0.73800,     85.53364,50.00000,37.00000,8.110598e-09,0.91837,4
300.093,  78.29917,     -0.73031,     85.16374,50.00000,37.00000,8.113830e-09,0.91830,4
300.036,  81.49917,     -0.72954,     84.83383,50.00000,37.00000,8.127722e-09,0.91828,4
300.013,  84.69917,     -0.73097,     84.54617,50.00000,37.00000,8.123275e-09,0.91829,4
300.023,  87.89917,     -0.73170,     84.24374,50.00000,37.00000,8.117318e-09,0.91832,4
300.012,  91.09917,     -0.73350,     84.01327,50.00000,37.00000,8.124537e-09,0.91839,4
300.017,  94.29917,     -0.73496,     83.80393,50.00000,37.00000,8.137393e-09,0.91846,4
300.008,  97.49917,     -0.73495,     83.60523,50.00000,37.00000,8.138417e-09,0.91856,4
300.002, 100.699,     -0.73730,     83.42748,50.00000,37.00000,8.137576e-09,0.91866,4
300.012, 103.899,     -0.73695,     83.24561,50.00000,37.00000,8.129170e-09,0.91877,4
300.021, 107.099,     -0.73967,     83.05738,50.00000,37.00000,8.141685e-09,0.91890,4
300.015, 110.299,     -0.73785,     82.92636,50.00000,37.00000,8.150301e-09,0.91903,4
300.008, 113.499,     -0.73839,     82.79308,50.00000,37.00000,8.159644e-09,0.91916,4
300.019, 116.699,     -0.73586,     82.63458,50.00000,37.00000,8.160786e-09,0.91935,4
300.033, 119.899,     -0.73823,     82.51402,50.00000,37.00000,8.165618e-09,0.91940,4
300.015, 123.099,     -0.73604,     82.39981,50.00000,37.00000,8.168300e-09,0.91916,4
300.007, 126.299,     -0.73640,     82.29196,50.00000,37.00000,8.156042e-09,0.91870,4
300.007, 129.499,     -0.73676,     82.17776,50.00000,37.00000,8.163963e-09,0.91808,4
300.016, 132.699,     -0.73568,     82.07626,50.00000,37.00000,8.175393e-09,0.91724,4
300.013, 135.899,     -0.73477,     81.96411,50.00000,37.00000,8.173338e-09,0.91624,4
300.027, 139.099,     -0.73551,     81.85009,50.00000,37.00000,8.183036e-09,0.91498,4
300.011, 142.299,     -0.73386,     81.76112,50.00000,37.00000,8.174951e-09,0.91353,4
300.017, 145.499,     -0.73532,     81.67234,50.00000,37.00000,8.191721e-09,0.91200,4
300.011, 148.699,     -0.73694,     81.55178,50.00000,37.00000,8.186674e-09,0.91021,4
300.007, 151.899,     -0.73585,     81.48411,50.00000,37.00000,8.190868e-09,0.90829,4
300.02, 155.099,     -0.73532,     81.40598,50.00000,37.00000,8.211019e-09,0.90637,4
300.012, 158.299,     -0.73604,     81.33402,50.00000,37.00000,8.196665e-09,0.90424,4
300.018, 161.499,     -0.73496,     81.21981,50.00000,37.00000,8.204598e-09,0.90203,4
300.022, 164.699,     -0.73460,     81.13944,50.00000,37.00000,8.223783e-09,0.89975,4
300.012, 167.899,     -0.73513,     81.05271,50.00000,37.00000,8.236340e-09,0.89743,4
300.013, 171.099,     -0.73477,     80.94486,50.00000,37.00000,8.239130e-09,0.89520,4
300.025, 174.299,     -0.73460,     80.91103,50.00000,37.00000,8.246568e-09,0.89281,4
300.01, 177.499,     -0.73404,     80.80953,50.00000,37.00000,8.253330e-09,0.89039,4
300.007, 180.699,     -0.73603,     80.71439,50.00000,37.00000,8.266004e-09,0.88794,4
300.007, 183.899,     -0.73459,     80.63626,50.00000,37.00000,8.265244e-09,0.88545,4
300.014, 187.099,     -0.73532,     80.55364,50.00000,37.00000,8.254307e-09,0.88293,4
300.025, 190.299,     -0.73279,     80.49234,50.00000,37.00000,8.267314e-09,0.88051,4
300.005, 193.499,     -0.73404,     80.41626,50.00000,37.00000,8.276039e-09,0.87791,4
300.013, 196.699,     -0.73314,     80.32953,50.00000,37.00000,8.246992e-09,0.87528,4
300.012, 199.899,     -0.73423,     80.24916,50.00000,37.00000,8.291278e-09,0.87261,4
300.019, 203.099,     -0.73351,     80.18150,50.00000,37.00000,8.276325e-09,0.87005,4
300.015, 206.299,     -0.73206,     80.10336,50.00000,37.00000,8.294705e-09,0.86729,4
300.012, 209.499,     -0.73640,     79.97645,50.00000,37.00000,8.301127e-09,0.86452,4
300.012, 212.699,     -0.73350,     79.90879,50.00000,37.00000,8.310121e-09,0.86167,4
300.011, 215.899,     -0.73314,     79.83047,50.00000,37.00000,8.316668e-09,0.85881,4
300.01, 219.099,     -0.73350,     79.76505,50.00000,37.00000,8.319409e-09,0.85605,4
300.025, 222.299,     -0.73116,     79.68879,50.00000,37.00000,8.339692e-09,0.85310,4
300.011, 225.499,     -0.73223,     79.59159,50.00000,37.00000,8.338183e-09,0.85010,4
300.017, 228.699,     -0.73333,     79.53439,50.00000,37.00000,8.324333e-09,0.84707,4
300.028, 231.899,     -0.73171,     79.45626,50.00000,37.00000,8.334164e-09,0.84416,4
300.016, 235.099,     -0.73387,     79.35047,50.00000,37.00000,8.343977e-09,0.84106,4
300.02, 238.299,     -0.73260,     79.29981,50.00000,37.00000,8.357711e-09,0.83791,4
300.017, 241.499,     -0.73188,     79.17065,50.00000,37.00000,8.356172e-09,0.83473,4
300, 244.699,     -0.73259,     79.10729,50.00000,37.00000,8.356333e-09,0.83152,4
300.016, 247.899,     -0.73115,     79.03757,50.00000,37.00000,8.362860e-09,0.82829,4
300.016, 251.099,     -0.73333,     78.99308,50.00000,37.00000,8.377415e-09,0.82518,4
300.014, 254.299,     -0.73532,     78.92112,50.00000,37.00000,8.359303e-09,0.82187,4
300.026, 257.499,     -0.73297,     78.83028,50.00000,37.00000,8.349974e-09,0.81854,4
300.024, 260.699,     -0.73514,     78.72243,50.00000,37.00000,8.355594e-09,0.81518,4
300.017, 263.899,     -0.73369,     78.67589,50.00000,37.00000,8.372917e-09,0.81180,4
300.006, 267.099,     -0.73096,     78.59551,50.00000,37.00000,8.379072e-09,0.80856,4
300.017, 270.299,     -0.73387,     78.53850,50.00000,37.00000,8.379815e-09,0.80513,4
300.003, 273.499,     -0.73313,     78.44748,50.00000,37.00000,8.393784e-09,0.80168,4
300.013, 276.699,     -0.73369,     78.36075,50.00000,37.00000,8.393662e-09,0.79821,4
300.014, 279.899,     -0.73169,     78.30168,50.00000,37.00000,8.420892e-09,0.79491,4
300.028, 283.099,     -0.73279,     78.22542,50.00000,37.00000,8.414913e-09,0.79141,4
300.029, 286.299,     -0.73261,     78.15140,50.00000,37.00000,8.405752e-09,0.78672,4
300.015, 289.499,     -0.73532,     78.09234,50.00000,37.00000,8.427918e-09,0.78450,4
300.018, 292.699,     -0.73496,     78.01196,50.00000,37.00000,8.435862e-09,0.78413,4
300.021, 295.899,     -0.73242,     77.92935,50.00000,37.00000,8.436495e-09,0.78468,4
300.01, 299.099,     -0.73513,     77.85327,50.00000,37.00000,8.440627e-09,0.78540,4
300.013, 302.299,     -0.73441,     77.77720,50.00000,37.00000,8.454119e-09,0.78598,4
300.013, 305.499,     -0.73658,     77.72224,50.00000,37.00000,8.465903e-09,0.78641,4
300.009, 308.699,     -0.73259,     77.63981,50.00000,37.00000,8.474133e-09,0.78670,4
300.014, 311.899,     -0.73640,     77.56150,50.00000,37.00000,8.469928e-09,0.78689,4
300.029, 315.099,     -0.73297,     77.48953,50.00000,37.00000,8.464777e-09,0.78701,4
300.018, 318.299,     -0.73405,     77.40916,50.00000,37.00000,8.481591e-09,0.78709,4
300.015, 321.499,     -0.73369,     77.33308,50.00000,37.00000,8.478117e-09,0.78713,4
300.02, 324.699,     -0.73423,     77.25065,50.00000,37.00000,8.487215e-09,0.78715,4
300.008, 327.899,     -0.73441,     77.16822,50.00000,37.00000,8.472211e-09,0.78716,4
300.025, 331.099,     -0.73351,     77.12168,50.00000,37.00000,8.506056e-09,0.78719,4
300.027, 334.299,     -0.73370,     77.01589,50.00000,37.00000,8.502781e-09,0.78719,4
299.999, 337.499,     -0.73530,     76.96935,50.00000,37.00000,8.496814e-09,0.78720,4
300.016, 340.699,     -0.73242,     76.85738,50.00000,37.00000,8.503574e-09,0.78720,4
300.032, 343.899,     -0.73117,     76.79383,50.00000,37.00000,8.497906e-09,0.78720,4
300.018, 347.099,     -0.73387,     76.74523,50.00000,37.00000,8.513357e-09,0.78720,4
300.003, 350.299,     -0.73295,     76.65009,50.00000,37.00000,8.517777e-09,0.78720,4
300.022, 353.499,     -0.73315,     76.59084,50.00000,37.00000,8.529805e-09,0.78720,4
300.014, 356.699,     -0.73387,     76.50841,50.00000,37.00000,8.511959e-09,0.78720,4
300.019, 359.899,     -0.73242,     76.42598,50.00000,37.00000,8.517636e-09,0.78720,4
300.007, 363.099,     -0.73223,     76.37103,50.00000,37.00000,8.518036e-09,0.78719,4
299.998, 366.299,     -0.73422,     76.30112,50.00000,37.00000,8.511126e-09,0.78719,4
300.028, 369.499,     -0.73370,     76.19757,50.00000,38.00000,8.529902e-09,0.78720,4
300.017, 372.699,     -0.73387,     76.12766,50.00000,38.00000,8.542513e-09,0.78720,4
300.012, 375.899,     -0.73350,     76.03682,50.00000,38.00000,8.533062e-09,0.78719,4
300.013, 379.099,     -0.73296,     75.98598,50.00000,38.00000,8.540978e-09,0.78719,4
300.017, 382.299,     -0.73260,     75.90355,50.00000,38.00000,8.544736e-09,0.78720,4
300.012, 385.499,     -0.73405,     75.81477,50.00000,38.00000,8.540387e-09,0.78719,4
300.028, 388.699,     -0.73352,     75.77458,50.00000,38.00000,8.543500e-09,0.78720,4
300.027, 391.899,     -0.73406,     75.68150,50.00000,38.00000,8.556350e-09,0.78719,4
300.016, 395.099,     -0.73459,     75.63290,50.00000,38.00000,8.557741e-09,0.78721,4
300.025, 398.299,     -0.73406,     75.54206,50.00000,38.00000,8.563387e-09,0.78719,4
300.018, 401.499,     -0.73460,     75.47645,50.00000,38.00000,8.579562e-09,0.78718,4
300.015, 404.699,     -0.73532,     75.38336,50.00000,38.00000,8.560131e-09,0.78719,4
300.001, 407.899,     -0.73331,     75.32206,50.00000,38.00000,8.564393e-09,0.78719,4
300.025, 411.099,     -0.73388,     75.20579,50.00000,38.00000,8.561691e-09,0.78719,4
300.019, 414.299,     -0.73387,     75.15925,50.00000,38.00000,8.563972e-09,0.78719,4
300.002, 417.499,     -0.73440,     75.08318,50.00000,38.00000,8.589950e-09,0.78720,4
300.01, 420.699,     -0.73368,     74.99439,50.00000,38.00000,8.580203e-09,0.78719,4
300.017, 423.899,     -0.73405,     74.96262,50.00000,38.00000,8.570030e-09,0.78719,4
300.015, 427.099,     -0.73441,     74.84841,50.00000,38.00000,8.584671e-09,0.78721,4
300.015, 430.299,     -0.73568,     74.76598,50.00000,38.00000,8.574149e-09,0.78720,4
300.025, 433.499,     -0.73460,     74.70243,50.00000,38.00000,8.588433e-09,0.78720,4
300.02, 436.699,     -0.73496,     74.63065,50.00000,38.00000,8.586987e-09,0.78720,4
300.023, 439.899,     -0.73442,     74.53551,50.00000,38.00000,8.609314e-09,0.78720,4
300.018, 443.099,     -0.73478,     74.47832,50.00000,38.00000,8.577927e-09,0.78719,4
300.014, 446.299,     -0.73332,     74.41271,50.00000,38.00000,8.582672e-09,0.78719,4
300.002, 449.499,     -0.73295,     74.31981,50.00000,38.00000,8.574061e-09,0.78719,4
300.018, 452.699,     -0.73369,     74.26897,50.00000,38.00000,8.583783e-09,0.78719,4
300.014, 455.899,     -0.73278,     74.18224,50.00000,38.00000,8.596869e-09,0.78719,4
300.034, 459.099,     -0.73624,     74.09776,50.00000,38.00000,8.590779e-09,0.78719,4
300.014, 462.299,     -0.73532,     74.03645,50.00000,38.00000,8.560074e-09,0.78719,4
300.03, 465.499,     -0.73642,     73.93477,50.00000,38.00000,8.572614e-09,0.78719,4
300.027, 468.699,     -0.73569,     73.86935,50.00000,38.00000,8.569756e-09,0.78718,4
300.03, 471.899,     -0.73696,     73.79327,50.00000,38.00000,8.585593e-09,0.78718,4
300.034, 475.099,     -0.73660,     73.71925,50.00000,38.00000,8.583531e-09,0.78719,4
300.005, 478.299,     -0.73839,     73.63458,50.00000,38.00000,8.578382e-09,0.78720,4
299.998, 481.499,     -0.73693,     73.55850,50.00000,38.00000,8.577478e-09,0.78719,4
300.017, 484.699,     -0.73604,     73.51402,50.00000,38.00000,8.597510e-09,0.78719,4
300.008, 487.899,     -0.73622,     73.43159,50.00000,38.00000,8.592115e-09,0.78719,4
300.014, 491.099,     -0.73604,     73.30673,50.00000,38.00000,8.590538e-09,0.78719,4
300.013, 494.299,     -0.73695,     73.25607,50.00000,38.00000,8.599240e-09,0.78720,4
300.009, 497.499,     -0.73749,     73.16299,50.00000,39.00000,8.596067e-09,0.78721,4
300.025, 500.699,     -0.73659,     73.08692,50.00000,39.00000,8.573808e-09,0.78720,4
300.015, 503.899,     -0.73622,     73.02766,50.00000,39.00000,8.602920e-09,0.78718,4
300.027, 507.099,     -0.73750,     72.92617,50.00000,39.00000,8.579016e-09,0.78720,4
300.031, 510.299,     -0.73859,     72.85421,50.00000,39.00000,8.581025e-09,0.78719,4
300.023, 513.499,     -0.73913,     72.79084,50.00000,39.00000,8.580883e-09,0.78719,4
300.015, 516.699,     -0.73840,     72.70841,50.00000,39.00000,8.582019e-09,0.78720,4
300.011, 519.899,     -0.73731,     72.61963,50.00000,39.00000,8.588705e-09,0.78719,4
300.01, 523.099,     -0.73894,     72.53925,50.00000,39.00000,8.577960e-09,0.78720,4
300.015, 526.299,     -0.74039,     72.50112,50.00000,39.00000,8.584391e-09,0.78720,4
300.011, 529.499,     -0.73839,     72.40393,50.00000,39.00000,8.581637e-09,0.78719,4
300.019, 532.699,     -0.73894,     72.32131,50.00000,39.00000,8.589168e-09,0.78719,4
300.018, 535.899,     -0.73967,     72.23682,50.00000,39.00000,8.587369e-09,0.78719,4
300.025, 539.099,     -0.74040,     72.16710,50.00000,39.00000,8.602177e-09,0.78720,4
300.016, 542.299,     -0.74112,     72.07607,50.00000,39.00000,8.592959e-09,0.78719,4
300.02, 545.499,     -0.74058,     72.01477,50.00000,39.00000,8.583376e-09,0.78720,4
300.013, 548.699,     -0.74075,     71.94280,50.00000,39.00000,8.593110e-09,0.78719,4
300.03, 551.899,     -0.74113,     71.87738,50.00000,39.00000,8.593242e-09,0.78720,4
300.018, 555.099,     -0.74365,     71.80542,50.00000,39.00000,8.586921e-09,0.78720,4
300.022, 558.299,     -0.74021,     71.70393,50.00000,39.00000,8.593487e-09,0.78719,4
300.022, 561.499,     -0.74311,     71.62150,50.00000,40.00000,8.600615e-09,0.78720,4
300.019, 564.699,     -0.74220,     71.54523,50.00000,40.00000,8.606380e-09,0.78719,4
300.022, 567.899,     -0.74384,     71.49252,50.00000,40.00000,8.596643e-09,0.78719,4
300.021, 571.099,     -0.74347,     71.40355,50.00000,40.00000,8.613626e-09,0.78719,4
300.018, 574.299,     -0.74456,     71.32112,50.00000,40.00000,8.609388e-09,0.78719,4
300.014, 577.499,     -0.74293,     71.22598,50.00000,40.00000,8.611071e-09,0.78719,4
300.023, 580.699,     -0.74348,     71.15196,50.00000,40.00000,8.593299e-09,0.78719,4
300.014, 583.899,     -0.74437,     71.07794,50.00000,40.00000,8.608524e-09,0.78718,4
300.015, 587.099,     -0.74401,     70.99981,50.00000,40.00000,8.609515e-09,0.78718,4
300.027, 590.299,     -0.74439,     70.91514,50.00000,40.00000,8.616946e-09,0.78718,4
300.011, 593.499,     -0.74437,     70.83907,50.00000,40.00000,8.613212e-09,0.78720,4
300.015, 596.699,     -0.74383,     70.73757,50.00000,40.00000,8.615410e-09,0.78719,4
300.015, 599.899,     -0.74582,     70.67402,50.00000,40.00000,8.628727e-09,0.78718,4
300.013, 603.099,     -0.74401,     70.59364,50.00000,40.00000,8.614756e-09,0.78719,4
300.025, 606.299,     -0.74493,     70.52187,50.00000,40.00000,8.629157e-09,0.78720,4
300.016, 609.499,     -0.74456,     70.42243,50.00000,40.00000,8.642584e-09,0.78719,4
300.016, 612.699,     -0.74546,     70.35271,50.00000,40.00000,8.632350e-09,0.78720,4
300.02, 615.899,     -0.74547,     70.25963,50.00000,40.00000,8.628532e-09,0.78720,4
300.014, 619.099,     -0.74854,     70.18355,50.00000,40.00000,8.635499e-09,0.78719,4
300.02, 622.299,     -0.74619,     70.13271,50.00000,40.00000,8.662611e-09,0.78720,4
300.024, 625.499,     -0.74511,     70.04393,50.00000,40.00000,8.646521e-09,0.78718,4
300.023, 628.699,     -0.74873,     69.95514,50.00000,40.00000,8.640789e-09,0.78718,4
300.018, 631.899,     -0.74728,     69.89794,50.00000,40.00000,8.653088e-09,0.78718,4
300.012, 635.099,     -0.74763,     69.82822,50.00000,40.00000,8.649915e-09,0.78720,4
300.018, 638.299,     -0.74601,     69.72243,50.00000,40.00000,8.648640e-09,0.78720,4
300.032, 641.499,     -0.74693,     69.64430,50.00000,40.00000,8.645163e-09,0.78719,4
300.016, 644.699,     -0.74909,     69.55121,50.00000,40.00000,8.676637e-09,0.78720,4
300.017, 647.899,     -0.74746,     69.47925,50.00000,40.00000,8.682992e-09,0.78720,4
300.016, 651.099,     -0.74854,     69.40318,50.00000,40.00000,8.687087e-09,0.78720,4
300, 654.299,     -0.74708,     69.31009,50.00000,40.00000,8.658736e-09,0.78720,4
300.015, 657.499,     -0.74981,     69.21925,50.00000,40.00000,8.651497e-09,0.78719,4
300.014, 660.699,     -0.75126,     69.15794,50.00000,40.00000,8.678028e-09,0.78719,4
300.021, 663.899,     -0.74855,     69.06897,50.00000,40.00000,8.671582e-09,0.78719,4
300.027, 667.099,     -0.74728,     69.00561,50.00000,40.00000,8.674729e-09,0.78720,4
300.011, 670.299,     -0.74981,     68.92953,50.00000,40.00000,8.674196e-09,0.78719,4
300.017, 673.499,     -0.74945,     68.84692,50.00000,40.00000,8.673219e-09,0.78719,4
300.017, 676.699,     -0.75108,     68.75813,50.00000,40.00000,8.681294e-09,0.78718,4
300.017, 679.899,     -0.75090,     68.67364,50.00000,40.00000,8.678686e-09,0.78719,4
300.026, 683.099,     -0.75091,     68.58486,50.00000,40.00000,8.691791e-09,0.78719,4
300.023, 686.299,     -0.75235,     68.51925,50.00000,40.00000,8.687588e-09,0.78718,4
300.014, 689.499,     -0.75198,     68.41570,50.00000,40.00000,8.702823e-09,0.78719,4
300.02, 692.699,     -0.75398,     68.35645,50.00000,40.00000,8.702874e-09,0.78719,4
300.022, 695.899,     -0.75108,     68.24860,50.00000,40.00000,8.709784e-09,0.78720,4
300.022, 699.099,     -0.75163,     68.17252,50.00000,40.00000,8.702139e-09,0.78719,4
300.001, 702.299,     -0.75360,     68.10897,50.00000,40.00000,8.689925e-09,0.78721,4
300.002, 705.499,     -0.75306,     68.02654,50.00000,40.00000,8.688357e-09,0.78719,4
300.017, 708.699,     -0.75434,     67.92916,50.00000,40.00000,8.716689e-09,0.78719,4
300.014, 711.899,     -0.75307,     67.83402,50.00000,40.00000,8.705218e-09,0.78719,4
300.011, 715.099,     -0.75361,     67.74953,50.00000,40.00000,8.710138e-09,0.78719,4
300.012, 718.299,     -0.75379,     67.69664,50.00000,40.00000,8.706640e-09,0.78719,4
300.009, 721.499,     -0.75524,     67.60355,50.00000,40.00000,8.707191e-09,0.78719,4
300.016, 724.699,     -0.75343,     67.56336,50.00000,40.00000,8.702132e-09,0.78719,4
300.026, 727.899,     -0.75362,     67.45776,50.00000,40.00000,8.699134e-09,0.78719,4
300.004, 731.099,     -0.75397,     67.39421,50.00000,40.00000,8.714158e-09,0.78721,4
300.021, 734.299,     -0.75344,     67.28636,50.00000,40.00000,8.719276e-09,0.78719,4
300.027, 737.499,     -0.75435,     67.22935,50.00000,40.00000,8.700677e-09,0.78718,4
300.023, 740.699,     -0.75489,     67.15308,50.00000,40.00000,8.700610e-09,0.78720,4
300.024, 743.899,     -0.75453,     67.05383,50.00000,40.00000,8.704358e-09,0.78719,4
300.013, 747.099,     -0.75579,     66.97981,50.00000,40.00000,8.708811e-09,0.78719,4
300.019, 750.299,     -0.75543,     66.89738,50.00000,40.00000,8.701869e-09,0.78719,4
300.01, 753.499,     -0.75415,     66.82748,50.00000,40.00000,8.718730e-09,0.78720,4
300.012, 756.699,     -0.75488,     66.71551,50.00000,40.00000,8.710694e-09,0.78719,4
300.008, 759.899,     -0.75397,     66.66467,50.00000,40.00000,8.706002e-09,0.78721,4
300.012, 763.099,     -0.75597,     66.55888,50.00000,40.00000,8.719235e-09,0.78721,4
300.019, 766.299,     -0.75398,     66.48280,50.00000,40.00000,8.721594e-09,0.78719,4
300.02, 769.499,     -0.75579,     66.40243,50.00000,40.00000,8.719784e-09,0.78719,4
300.016, 772.699,     -0.75289,     66.33271,50.00000,40.00000,8.734010e-09,0.78719,4
300.003, 775.899,     -0.75560,     66.25664,50.00000,40.00000,8.728413e-09,0.78718,4
300.013, 779.099,     -0.75615,     66.15290,50.00000,40.00000,8.729002e-09,0.78719,4
300.021, 782.299,     -0.75362,     66.04505,50.00000,40.00000,8.735977e-09,0.78720,4
300.023, 785.499,     -0.75525,     66.00916,50.00000,40.00000,8.725671e-09,0.78720,4
300.02, 788.699,     -0.75561,     65.87589,50.00000,40.00000,8.713800e-09,0.78719,4
300.032, 791.899,     -0.75562,     65.81028,50.00000,40.00000,8.735365e-09,0.78719,4
300.01, 795.099,     -0.75415,     65.69196,50.00000,40.00000,8.744392e-09,0.78719,4
300.021, 798.299,     -0.75289,     65.62860,50.00000,40.00000,8.744031e-09,0.78718,4
300.016, 801.499,     -0.75814,     65.52280,50.00000,40.00000,8.729504e-09,0.78718,4
300.019, 804.699,     -0.75706,     65.45514,50.00000,40.00000,8.749702e-09,0.78720,4
300.021, 807.899,     -0.75652,     65.33028,50.00000,40.00000,8.722488e-09,0.78719,4
300.022, 811.099,     -0.75598,     65.26056,50.00000,40.00000,8.737780e-09,0.78719,4
300.011, 814.299,     -0.75705,     65.18019,50.00000,40.00000,8.750249e-09,0.78720,4
300.003, 817.499,     -0.75723,     65.09981,50.00000,40.00000,8.766897e-09,0.78718,4
300.009, 820.699,     -0.75633,     65.00897,50.00000,40.00000,8.745335e-09,0.78720,4
300.022, 823.899,     -0.75634,     64.92860,50.00000,40.00000,8.755392e-09,0.78719,4
300.012, 827.099,     -0.75633,     64.83551,50.00000,40.00000,8.747184e-09,0.78720,4
300.013, 830.299,     -0.75724,     64.78467,50.00000,40.00000,8.752671e-09,0.78719,4
300.012, 833.499,     -0.75941,     64.66000,50.00000,40.00000,8.760624e-09,0.78720,4
300.029, 836.699,     -0.75689,     64.57757,50.00000,40.00000,8.752399e-09,0.78719,4
300.027, 839.899,     -0.75942,     64.49514,50.00000,40.00000,8.754832e-09,0.78720,4
300.014, 843.099,     -0.76177,     64.42953,50.00000,40.00000,8.756271e-09,0.78719,4
300.012, 846.299,     -0.75959,     64.32168,50.00000,40.00000,8.758041e-09,0.78719,4
300.018, 849.499,     -0.75869,     64.26243,50.00000,40.00000,8.751063e-09,0.78719,4
300.026, 852.699,     -0.75833,     64.17364,50.00000,40.00000,8.767921e-09,0.78718,4
300.015, 855.899,     -0.75977,     64.08486,50.00000,40.00000,8.759577e-09,0.78718,4
300.01, 859.099,     -0.76031,     64.00860,50.00000,40.00000,8.754321e-09,0.78719,4
300.019, 862.299,     -0.75887,     63.92617,50.00000,40.00000,8.746321e-09,0.78720,4
300.024, 865.499,     -0.75833,     63.82467,50.00000,40.00000,8.764736e-09,0.78719,4
300.013, 868.699,     -0.75796,     63.76766,50.00000,40.00000,8.755703e-09,0.78718,4
300.006, 871.899,     -0.75886,     63.67888,50.00000,40.00000,8.764999e-09,0.78719,4
300.011, 875.099,     -0.75868,     63.57738,50.00000,40.00000,8.752948e-09,0.78719,4
300.023, 878.299,     -0.75869,     63.50112,50.00000,40.00000,8.758790e-09,0.78719,4
300.014, 881.499,     -0.75977,     63.43776,50.00000,40.00000,8.756319e-09,0.78719,4
300.021, 884.699,     -0.75905,     63.34262,50.00000,40.00000,8.770350e-09,0.78720,4
300.01, 887.899,     -0.75977,     63.25383,50.00000,40.00000,8.760125e-09,0.78718,4
300.012, 891.099,     -0.75868,     63.19028,50.00000,40.00000,8.760629e-09,0.78719,4
300.007, 894.299,     -0.76031,     63.10150,50.00000,40.00000,8.759767e-09,0.78720,4
300.02, 897.499,     -0.76086,     63.01907,50.00000,40.00000,8.766524e-09,0.78719,4
300.007, 900.699,     -0.76013,     62.94280,50.00000,40.00000,8.763492e-09,0.78720,4
300.018, 903.899,     -0.75887,     62.84131,50.00000,40.00000,8.758846e-09,0.78721,4
300.024, 907.099,     -0.76014,     62.73981,50.00000,40.00000,8.777188e-09,0.78719,4
300.014, 910.299,     -0.75977,     62.66374,50.00000,40.00000,8.780544e-09,0.78719,4
300.02, 913.499,     -0.76032,     62.58131,50.00000,40.00000,8.760638e-09,0.78720,4
300.007, 916.699,     -0.75959,     62.50523,50.00000,40.00000,8.771141e-09,0.78719,4
300, 919.899,     -0.76012,     62.39738,50.00000,40.00000,8.756448e-09,0.78720,4
300.015, 923.099,     -0.76068,     62.32112,50.00000,40.00000,8.750471e-09,0.78718,4
300.012, 926.299,     -0.75778,     62.25140,50.00000,40.00000,8.770844e-09,0.78720,4
300.015, 929.499,     -0.76032,     62.16673,50.00000,40.00000,8.759463e-09,0.78719,4
300.025, 932.699,     -0.76159,     62.05271,50.00000,40.00000,8.773523e-09,0.78719,4
300.004, 935.899,     -0.76013,     61.98280,50.00000,40.00000,8.768404e-09,0.78720,4
300.017, 939.099,     -0.75814,     61.89402,50.00000,40.00000,8.765121e-09,0.78719,4
300.022, 942.299,     -0.76105,     61.83065,50.00000,40.00000,8.768835e-09,0.78719,4
300.021, 945.499,     -0.76177,     61.72916,50.00000,40.00000,8.762230e-09,0.78719,4
300.008, 948.699,     -0.76067,     61.67196,50.00000,40.00000,8.761338e-09,0.78720,4
300.009, 951.899,     -0.76104,     61.57682,50.00000,40.00000,8.767072e-09,0.78720,4
300.017, 955.099,     -0.75978,     61.50075,50.00000,40.00000,8.774759e-09,0.78719,4
300.027, 958.299,     -0.76196,     61.41832,50.00000,40.00000,8.775794e-09,0.78720,4
300.018, 961.499,     -0.76213,     61.33570,50.00000,40.00000,8.778434e-09,0.78719,4
300.027, 964.699,     -0.76160,     61.25327,50.00000,40.00000,8.774720e-09,0.78719,4
300.014, 967.899,     -0.76158,     61.17084,50.00000,40.00000,8.796297e-09,0.78719,4
300.027, 971.099,     -0.75997,     61.08206,50.00000,40.00000,8.785085e-09,0.78719,4
300.021, 974.299,     -0.76304,     60.98056,50.00000,40.00000,8.770692e-09,0.78719,4
300.019, 977.499,     -0.76394,     60.89794,50.00000,40.00000,8.774374e-09,0.78719,4
300.017, 980.699,     -0.76231,     60.81551,50.00000,40.00000,8.776696e-09,0.78719,4
300.025, 983.899,     -0.76359,     60.74579,50.00000,40.00000,8.778835e-09,0.78719,4
300, 987.099,     -0.76248,     60.65907,50.00000,40.00000,8.784010e-09,0.78718,4
300.017, 990.299,     -0.76503,     60.55963,50.00000,40.00000,8.790523e-09,0.78719,4
300.029, 993.499,     -0.76395,     60.48991,50.00000,40.00000,8.768737e-09,0.78720,4
300.009, 996.699,     -0.76194,     60.40748,50.00000,40.00000,8.786127e-09,0.78718,4
300.008, 999.899,     -0.76321,     60.33121,50.00000,40.00000,8.783555e-09,0.78718,4
300.012,1003.1,     -0.76557,     60.22336,50.00000,40.00000,8.759833e-09,0.78720,4
300.032,1006.3,     -0.76305,     60.12822,50.00000,40.00000,8.804699e-09,0.78719,4
300.015,1009.5,     -0.76593,     60.05215,50.00000,40.00000,8.780169e-09,0.78720,4
300.014,1012.7,     -0.76303,     59.99514,50.00000,40.00000,8.798388e-09,0.78720,4
300.021,1015.9,     -0.76485,     59.88729,50.00000,40.00000,8.794713e-09,0.78719,4
300.02,1019.1,     -0.76612,     59.81103,50.00000,40.00000,8.794006e-09,0.78720,4
300.024,1022.3,     -0.76540,     59.70953,50.00000,40.00000,8.786245e-09,0.78719,4
300.006,1025.5,     -0.76466,     59.64617,50.00000,40.00000,8.802988e-09,0.78719,4
300.022,1028.7,     -0.76612,     59.53832,50.00000,40.00000,8.778109e-09,0.78718,4
300.025,1031.9,     -0.76612,     59.47271,50.00000,40.00000,8.776569e-09,0.78720,4
300.011,1035.1,     -0.76629,     59.39664,50.00000,40.00000,8.785844e-09,0.78718,4
300.013,1038.3,     -0.76629,     59.29514,50.00000,40.00000,8.789132e-09,0.78719,4
300.025,1041.5,     -0.76612,     59.22542,50.00000,40.00000,8.778771e-09,0.78719,4
300.005,1044.7,     -0.76683,     59.14710,50.00000,40.00000,8.783037e-09,0.78719,4
300.022,1047.9,     -0.76540,     59.05832,50.00000,40.00000,8.795803e-09,0.78719,4
300.018,1051.1,     -0.76521,     58.95682,50.00000,40.00000,8.791938e-09,0.78719,4
300.011,1054.3,     -0.76665,     58.88692,50.00000,40.00000,8.781857e-09,0.78718,4
300.017,1057.5,     -0.76630,     58.79813,50.00000,40.00000,8.775618e-09,0.78718,4
300.027,1060.7,     -0.76594,     58.70505,50.00000,40.00000,8.795461e-09,0.78719,4
300.015,1063.9,     -0.76630,     58.61626,50.00000,40.00000,8.782072e-09,0.78719,4
300.012,1067.1,     -0.76665,     58.54019,50.00000,40.00000,8.779906e-09,0.78719,4
300.022,1070.3,     -0.76594,     58.47682,50.00000,40.00000,8.785946e-09,0.78718,4
300.014,1073.5,     -0.76756,     58.39009,50.00000,40.00000,8.778992e-09,0.78719,4
300.024,1076.7,     -0.76630,     58.29495,50.00000,40.00000,8.795065e-09,0.78719,4
300.022,1079.9,     -0.76848,     58.19757,50.00000,40.00000,8.782137e-09,0.78719,4
300.01,1083.1,     -0.76557,     58.11308,50.00000,40.00000,8.783585e-09,0.78719,4
300.02,1086.3,     -0.76847,     58.03682,50.00000,40.00000,8.776176e-09,0.78719,4
300.02,1089.5,     -0.76666,     57.96710,50.00000,40.00000,8.781188e-09,0.78720,4
300.023,1092.7,     -0.76793,     57.87832,50.00000,40.00000,8.789200e-09,0.78719,4
300.02,1095.9,     -0.76721,     57.79589,50.00000,40.00000,8.800231e-09,0.78719,4
300.022,1099.1,     -0.76739,     57.71327,50.00000,40.00000,8.793731e-09,0.78719,4
300.014,1102.3,     -0.76720,     57.64150,50.00000,40.00000,8.795618e-09,0.78718,4
300.02,1105.5,     -0.76829,     57.54411,50.00000,40.00000,8.790157e-09,0.78718,4
300.014,1108.7,     -0.76575,     57.43850,50.00000,40.00000,8.783585e-09,0.78718,4
300.014,1111.9,     -0.76811,     57.36654,50.00000,40.00000,8.788075e-09,0.78719,4
300.016,1115.1,     -0.76756,     57.28822,50.00000,40.00000,8.788817e-09,0.78719,4
300.025,1118.3,     -0.76757,     57.19944,50.00000,40.00000,8.783617e-09,0.78719,4
300.009,1121.5,     -0.76756,     57.12766,50.00000,40.00000,8.774427e-09,0.78720,4
300.007,1124.7,     -0.76774,     57.02822,50.00000,40.00000,8.793129e-09,0.78718,4
300.013,1127.9,     -0.76738,     56.96262,50.00000,40.00000,8.788640e-09,0.78718,4
300.014,1131.1,     -0.76829,     56.87813,50.00000,40.00000,8.791312e-09,0.78719,4
300.012,1134.3,     -0.76466,     56.79551,50.00000,40.00000,8.789836e-09,0.78720,4
300.011,1137.5,     -0.76883,     56.68766,50.00000,40.00000,8.791886e-09,0.78721,4
300.014,1140.7,     -0.76919,     56.59252,50.00000,40.00000,8.803498e-09,0.78718,4
300.014,1143.9,     -0.77064,     56.51850,50.00000,40.00000,8.793661e-09,0.78719,4
300.026,1147.1,     -0.76957,     56.42972,50.00000,40.00000,8.797320e-09,0.78720,4
300.022,1150.3,     -0.76811,     56.35364,50.00000,40.00000,8.778519e-09,0.78719,4
300.001,1153.5,     -0.77063,     56.26056,50.00000,40.00000,8.791631e-09,0.78718,4
300.005,1156.7,     -0.76882,     56.18879,50.00000,40.00000,8.789386e-09,0.78717,4
300.006,1159.9,     -0.76955,     56.10411,50.00000,40.00000,8.794039e-09,0.78717,4
300.009,1163.1,     -0.77064,     56.00262,50.00000,40.00000,8.790060e-09,0.78718,4
300.023,1166.3,     -0.77029,     55.96037,50.00000,40.00000,8.772514e-09,0.78718,4
300.013,1169.5,     -0.77028,     55.84393,50.00000,40.00000,8.788096e-09,0.78720,4
300.009,1172.7,     -0.76919,     55.76991,50.00000,40.00000,8.785722e-09,0.78719,4
300.027,1175.9,     -0.76884,     55.71720,50.00000,40.00000,8.775401e-09,0.78718,4
300.012,1179.1,     -0.76720,     55.61776,50.00000,40.00000,8.786936e-09,0.78718,4
300.013,1182.3,     -0.76883,     55.54374,50.00000,40.00000,8.793155e-09,0.78719,4
300.025,1185.5,     -0.76957,     55.43159,50.00000,40.00000,8.798609e-09,0.78719,4
300.015,1188.7,     -0.77046,     55.35346,50.00000,40.00000,8.775148e-09,0.78718,4
300.027,1191.9,     -0.76794,     55.27944,50.00000,40.00000,8.791761e-09,0.78719,4
300.019,1195.1,     -0.76956,     55.19907,50.00000,40.00000,8.786810e-09,0.78719,4
300.022,1198.3,     -0.77065,     55.12935,50.00000,40.00000,8.786986e-09,0.78719,4
300.004,1201.5,     -0.77009,     55.04262,50.00000,40.00000,8.812048e-09,0.78720,4
300.013,1204.7,     -0.77028,     54.95794,50.00000,40.00000,8.804111e-09,0.78719,4
300.016,1207.9,     -0.76938,     54.89664,50.00000,40.00000,8.797532e-09,0.78720,4
300.017,1211.1,     -0.77119,     54.81421,50.00000,40.00000,8.804827e-09,0.78719,4
300.016,1214.3,     -0.77155,     54.73178,50.00000,40.00000,8.795169e-09,0.78719,4
300.011,1217.5,     -0.77245,     54.62804,50.00000,40.00000,8.798553e-09,0.78719,4
300.018,1220.7,     -0.77137,     54.57103,50.00000,40.00000,8.811562e-09,0.78718,4
300.007,1223.9,     -0.76991,     54.49065,50.00000,40.00000,8.805420e-09,0.78719,4
300.018,1227.1,     -0.77065,     54.42710,50.00000,40.00000,8.809562e-09,0.78719,4
300.01,1230.3,     -0.77100,     54.31514,50.00000,40.00000,8.795242e-09,0.78719,4
300.016,1233.5,     -0.77101,     54.24318,50.00000,40.00000,8.816012e-09,0.78718,4
300.017,1236.7,     -0.77155,     54.15645,50.00000,40.00000,8.790918e-09,0.78719,4
300.019,1239.9,     -0.77246,     54.05495,50.00000,40.00000,8.797122e-09,0.78719,4
300.017,1243.1,     -0.77137,     53.96617,50.00000,40.00000,8.825683e-09,0.78720,4
300.024,1246.3,     -0.77101,     53.88374,50.00000,40.00000,8.810697e-09,0.78719,4
300.017,1249.5,     -0.77264,     53.81402,50.00000,40.00000,8.803399e-09,0.78720,4
300.014,1252.7,     -0.77191,     53.73140,50.00000,40.00000,8.797807e-09,0.78720,4
299.99,1255.9,     -0.77116,     53.66168,50.00000,40.00000,8.804912e-09,0.78718,4
300.017,1257.1,     -0.76956,     53.60467,50.00000,50.00000,8.805622e-09,0.78718,5
300.163,1257.26,     -0.69921,     53.57925,50.00000,50.00000,8.799733e-09,0.78718,5
300.664,1257.42,     -0.46104,     53.68916,50.00000,50.00000,8.810462e-09,0.78718,5
301.646,1257.58,-1.270557e-02,     53.86037,50.00000,50.00000,8.808771e-09,0.78718,5
303.155,1257.74,      0.62315,     54.07832,50.00000,50.00000,8.808771e-09,0.78718,5
305.188,1257.9,      1.38056,     54.31720,50.00000,50.00000,8.810561e-09,0.78719,5
307.638,1258.06,      2.17439,     54.54991,50.00000,50.00000,8.805376e-09,0.78719,5
310.355,1258.22,      2.91703,     54.70430,50.00000,50.00000,8.809939e-09,0.78718,5
313.246,1258.38,      3.54296,     54.82692,50.00000,50.00000,8.811197e-09,0.78717,5
316.151,1258.54,      4.01216,     54.93047,50.00000,50.00000,8.809452e-09,0.78718,5
319.04,1258.7,      4.31857,     54.98336,50.00000,50.00000,8.793546e-09,0.78718,5
321.837,1258.86,      4.48287,     55.00879,50.00000,50.00000,8.810078e-09,0.78719,5
324.567,1259.02,      4.54361,     55.00879,50.00000,50.00000,8.787232e-09,0.78718,5
327.235,1259.18,      4.54620,     55.00879,50.00000,50.00000,8.789392e-09,0.78718,5
329.888,1259.34,      4.53614,     55.00879,50.00000,50.00000,8.803281e-09,0.78719,5
332.575,1259.5,      4.54112,     55.05944,50.00000,50.00000,8.827477e-09,0.78719,5
335.344,1259.66,      4.59240,     55.09121,50.00000,50.00000,8.818539e-09,0.78719,5
338.232,1259.82,      4.69677,     55.16093,50.00000,50.00000,8.811364e-09,0.78718,5
341.236,1259.98,      4.84819,     55.24131,50.00000,50.00000,8.801167e-09,0.78719,5
344.361,1260.14,      5.03868,     55.31103,50.00000,50.00000,8.800231e-09,0.78719,5
347.608,1260.3,      5.24555,     55.35551,50.00000,50.00000,8.795594e-09,0.78718,5
350.954,1260.46,      5.45138,     55.42112,50.00000,50.00000,8.821022e-09,0.78719,5
354.359,1260.62,      5.64178,     55.44654,50.00000,50.00000,8.821022e-09,0.78719,5
357.803,1260.78,      5.80280,     55.47178,50.00000,50.00000,8.804980e-09,0.78719,5
361.268,1260.94,      5.92591,     55.42112,50.00000,50.00000,8.814294e-09,0.78718,5
364.749,1261.1,      6.01584,     55.42112,50.00000,50.00000,8.796356e-09,0.78719,5
368.211,1261.26,      6.07562,     55.36822,50.00000,50.00000,8.815820e-09,0.78719,5
371.678,1261.42,      6.11790,     55.28991,50.00000,50.00000,8.820932e-09,0.78719,5
375.148,1261.58,      6.15058,     55.17364,50.00000,50.00000,8.797380e-09,0.78718,5
378.589,1261.74,      6.18047,     55.00019,50.00000,50.00000,8.811817e-09,0.78718,5
382.049,1261.9,      6.22500,     54.81421,50.00000,50.00000,8.826233e-09,0.78720,5
385.537,1262.06,      6.28808,     54.46729,50.00000,50.00000,8.793400e-09,0.78719,5
389.026,1262.22,      6.34945,     54.02972,50.00000,50.00000,8.811370e-09,0.78719,5
392.529,1262.38,      6.41448,     53.53271,50.00000,50.00000,8.790181e-09,0.78720,5
396.041,1262.54,      6.48072,     52.89832,50.00000,50.00000,8.795140e-09,0.78720,5
399.548,1262.7,      6.54251,     52.19421,50.00000,50.00000,8.815945e-09,0.78719,5
403.063,1262.86,      6.63255,     51.32505,50.00000,50.00000,8.808228e-09,0.78719,5
406.582,1263.02,      6.72896,     50.21701,50.00000,50.00000,8.798011e-09,0.78719,5
410.106,1263.18,      6.83081,     48.87421,50.00000,50.00000,8.781822e-09,0.78719,5
413.602,1263.34,      6.96237,     47.29439,50.00000,50.00000,8.781822e-09,0.78719,5
417.093,1263.5,      7.11206,     45.37645,50.00000,50.00000,8.807623e-09,0.78720,5
420.567,1263.66,      7.27681,     43.02710,50.00000,50.00000,8.810581e-09,0.78720,5
424.043,1263.82,      7.45849,     40.38598,50.00000,50.00000,8.806280e-09,0.78720,5
427.498,1263.98,      7.64768,     37.24766,50.00000,50.00000,8.822483e-09,0.78720,5
430.962,1264.14,      7.84092,     33.71626,50.00000,50.00000,8.819646e-09,0.78719,5
434.399,1264.3,      8.01219,     29.77252,50.00000,50.00000,8.823546e-09,0.78720,5
437.848,1264.46,      8.13537,     25.56000,50.00000,50.00000,8.821543e-09,0.78719,5
441.287,1264.62,      8.18973,     21.25458,50.00000,50.00000,8.789715e-09,0.78719,5
444.691,1264.78,      8.17817,     17.02953,50.00000,50.00000,8.798120e-09,0.78720,5
448.107,1264.94,      8.07263,     13.02019,50.00000,50.00000,8.793827e-09,0.78719,5
451.525,1265.1,      7.86730,      9.42318,50.00000,50.00000,8.788606e-09,0.78720,5
454.923,1265.26,      7.56789,      6.34206,50.00000,50.00000,8.801225e-09,0.78719,5
458.31,1265.42,      7.20064,      3.88486,50.00000,50.00000,8.794560e-09,0.78718,5
461.686,1265.58,      6.80427,      1.94355,50.00000,50.00000,8.794560e-09,0.78718,5
465.065,1265.74,      6.40931,      0.53944,50.00000,50.00000,8.802989e-09,0.78719,5
468.452,1265.9,      6.04792,     -0.49028,50.00000,50.00000,8.817594e-09,0.78720,5
471.823,1266.06,      5.73918,     -1.23252,50.00000,50.00000,8.800343e-09,0.78719,5
475.185,1266.22,      5.47343,     -1.75495,50.00000,50.00000,8.801176e-09,0.78718,5
478.563,1266.38,      5.25192,     -2.08486,50.00000,50.00000,8.802551e-09,0.78718,5
481.902,1266.54,      5.06407,     -2.28355,50.00000,50.00000,8.798022e-09,0.78718,5
485.25,1266.7,      4.90676,     -2.40411,50.00000,50.00000,8.789106e-09,0.78719,5
488.581,1266.86,      4.77075,     -2.52467,50.00000,50.00000,8.808666e-09,0.78718,5
491.905,1267.02,      4.65244,     -2.56897,50.00000,50.00000,8.801292e-09,0.78719,5
495.221,1267.18,      4.55020,     -2.58804,50.00000,50.00000,8.806956e-09,0.78719,5
498.535,1267.34,      4.45678,     -2.58804,50.00000,50.00000,8.808889e-09,0.78719,5
501.839,1267.5,      4.37531,     -2.58804,50.00000,50.00000,8.803386e-09,0.78719,5
505.126,1267.66,      4.29670,     -2.60075,50.00000,50.00000,8.805277e-09,0.78718,5
508.418,1267.82,      4.22396,     -2.57533,50.00000,50.00000,8.795213e-09,0.78719,5
511.697,1267.98,      4.15421,     -2.55009,50.00000,50.00000,8.808406e-09,0.78719,5
514.979,1268.14,      4.08903,     -2.52467,50.00000,50.00000,8.797440e-09,0.78720,5
518.249,1268.3,      4.02262,     -2.52467,50.00000,50.00000,8.797440e-09,0.78720,5
521.519,1268.46,      3.95819,     -2.49925,50.00000,50.00000,8.797515e-09,0.78719,5
524.807,1268.62,      3.89875,     -2.49720,50.00000,50.00000,8.798025e-09,0.78718,5
528.067,1268.78,      3.83929,     -2.47178,50.00000,50.00000,8.801544e-09,0.78719,5
531.33,1268.94,      3.77702,     -2.44636,50.00000,50.00000,8.799931e-09,0.78718,5
534.594,1269.1,      3.71854,     -2.42093,50.00000,50.00000,8.788527e-09,0.78719,5
537.85,1269.26,      3.65794,     -2.39570,50.00000,50.00000,8.799581e-09,0.78719,5
541.104,1269.42,      3.59672,     -2.37028,50.00000,50.00000,8.811030e-09,0.78718,5
544.351,1269.58,      3.53659,     -2.34486,50.00000,50.00000,8.798626e-09,0.78720,5
547.603,1269.74,      3.47963,     -2.31944,50.00000,50.00000,8.802501e-09,0.78719,5
550.845,1269.9,      3.41679,     -2.29421,50.00000,50.00000,8.794451e-09,0.78720,5
554.095,1270.06,      3.35891,     -2.26879,50.00000,50.00000,8.789868e-09,0.78719,5
557.332,1270.22,      3.29890,     -2.23065,50.00000,50.00000,8.798613e-09,0.78720,5
560.57,1270.38,      3.24388,     -2.19271,50.00000,50.00000,8.807970e-09,0.78720,5
563.824,1270.54,      3.18482,     -2.19888,50.00000,50.00000,8.821653e-09,0.78720,5
567.059,1270.7,      3.12743,     -2.15458,50.00000,50.00000,8.804649e-09,0.78719,5
570.289,1270.86,      3.07306,     -2.12916,50.00000,50.00000,8.804763e-09,0.78720,5
573.529,1271.02,      3.01770,     -2.10374,50.00000,50.00000,8.804763e-09,0.78720,5
576.774,1271.18,      2.96493,     -2.07850,50.00000,50.00000,8.795285e-09,0.78719,5
580.01,1271.34,      2.90619,     -2.05308,50.00000,50.00000,8.813365e-09,0.78720,5
583.24,1271.5,      2.85001,     -2.02766,50.00000,50.00000,8.786144e-09,0.78720,5
586.475,1271.66,      2.79517,     -2.02766,50.00000,50.00000,8.797103e-09,0.78720,5
589.723,1271.82,      2.73882,     -1.97701,50.00000,50.00000,8.789072e-09,0.78720,5
592.953,1271.98,      2.68532,     -1.95159,50.00000,50.00000,8.799087e-09,0.78719,5
596.175,1272.14,      2.62684,     -1.92617,50.00000,50.00000,8.809593e-09,0.78720,5
599.421,1272.3,      2.57296,     -1.90075,50.00000,50.00000,8.792051e-09,0.78720,5
602.647,1272.46,      2.51561,     -1.87551,50.00000,50.00000,8.817845e-09,0.78720,5
605.885,1272.62,      2.45648,     -1.85009,50.00000,50.00000,8.820085e-09,0.78720,5
609.107,1272.78,      2.40002,     -1.83738,50.00000,50.00000,8.804514e-09,0.78720,5
612.347,1272.94,      2.34286,     -1.79925,50.00000,50.00000,8.800718e-09,0.78720,5
615.571,1273.1,      2.28357,     -1.77383,50.00000,50.00000,8.790146e-09,0.78720,5
618.794,1273.26,      2.22812,     -1.74860,50.00000,50.00000,8.790034e-09,0.78719,5
622.017,1273.42,      2.17222,     -1.72318,50.00000,50.00000,8.799453e-09,0.78720,5
625.246,1273.58,      2.11860,     -1.72318,50.00000,50.00000,8.808398e-09,0.78720,5
628.476,1273.74,      2.06373,     -1.67234,50.00000,50.00000,8.800494e-09,0.78721,5
631.697,1273.9,      2.00458,     -1.64710,50.00000,50.00000,8.810098e-09,0.78720,5
634.925,1274.06,      1.94278,     -1.64075,50.00000,50.00000,8.810098e-09,0.78720,5
638.14,1274.22,      1.88048,     -1.62168,50.00000,50.00000,8.796069e-09,0.78721,5
641.362,1274.38,      1.81634,     -1.59626,50.00000,50.00000,8.807394e-09,0.78720,5
644.587,1274.54,      1.75063,     -1.57084,50.00000,50.00000,8.799842e-09,0.78720,5
647.802,1274.7,      1.68441,     -1.53290,50.00000,50.00000,8.803450e-09,0.78719,5
651.018,1274.86,      1.61549,     -1.52019,50.00000,50.00000,8.798745e-09,0.78719,5
654.246,1275.02,      1.54356,     -1.49271,50.00000,50.00000,8.795137e-09,0.78719,5
657.458,1275.18,      1.47280,     -1.48000,50.00000,50.00000,8.807679e-09,0.78719,5
660.678,1275.34,      1.39761,     -1.44187,50.00000,50.00000,8.797934e-09,0.78719,5
663.897,1275.5,      1.32161,     -1.44187,50.00000,50.00000,8.798636e-09,0.78719,5
667.118,1275.66,      1.24283,     -1.41664,50.00000,50.00000,8.812178e-09,0.78719,5
670.35,1275.82,      1.15442,     -1.39121,50.00000,50.00000,8.807927e-09,0.78719,5
673.574,1275.98,      1.06456,     -1.36579,50.00000,50.00000,8.794832e-09,0.78719,5
676.784,1276.14,      0.97324,     -1.34673,50.00000,50.00000,8.806779e-09,0.78719,5
680.012,1276.3,      0.87733,     -1.31495,50.00000,50.00000,8.788106e-09,0.78720,5
683.233,1276.46,      0.77647,     -1.31495,50.00000,50.00000,8.789007e-09,0.78719,5
686.463,1276.62,      0.67266,     -1.28972,50.00000,50.00000,8.796361e-09,0.78719,5
689.684,1276.78,      0.56066,     -1.23888,50.00000,50.00000,8.784298e-09,0.78719,5
692.904,1276.94,      0.44709,     -1.23888,50.00000,50.00000,8.784298e-09,0.78719,5
696.138,1277.1,      0.32728,     -1.21346,50.00000,50.00000,8.799946e-09,0.78720,5
699.36,1277.26,      0.20205,     -1.18822,50.00000,50.00000,8.807795e-09,0.78720,5
702.573,1277.42, 7.694925e-02,     -1.18822,50.00000,50.00000,8.799702e-09,0.78720,5
705.811,1277.58,-5.390767e-02,     -1.16280,50.00000,50.00000,8.797698e-09,0.78719,5
709.026,1277.74,     -0.19027,     -1.16280,50.00000,50.00000,8.792010e-09,0.78719,5
712.259,1277.9,     -0.32744,     -1.13738,50.00000,50.00000,8.782201e-09,0.78719,5
715.489,1278.06,     -0.46720,     -1.08673,50.00000,50.00000,8.803733e-09,0.78719,5
718.712,1278.22,     -0.60866,     -1.08673,50.00000,50.00000,8.794057e-09,0.78720,5
721.934,1278.38,     -0.75543,     -1.06131,50.00000,50.00000,8.809422e-09,0.78719,5
725.163,1278.54,     -0.90275,     -1.06131,50.00000,50.00000,8.790069e-09,0.78719,5
728.383,1278.7,     -1.05542,     -1.02953,50.00000,50.00000,8.781163e-09,0.78720,5
731.627,1278.86,     -1.20899,     -0.98523,50.00000,50.00000,8.785731e-09,0.78719,5
734.86,1279.02,     -1.36524,     -0.98523,50.00000,50.00000,8.802369e-09,0.78719,5
738.074,1279.18,     -1.52417,     -0.95981,50.00000,50.00000,8.807878e-09,0.78719,5
741.31,1279.34,     -1.67977,     -0.93439,50.00000,50.00000,8.801355e-09,0.78719,5
744.531,1279.5,     -1.84172,     -0.93439,50.00000,50.00000,8.811632e-09,0.78719,5
747.761,1279.66,     -2.00399,     -0.90897,50.00000,50.00000,8.811632e-09,0.78719,5
750.98,1279.82,     -2.16500,     -0.88374,50.00000,50.00000,8.793902e-09,0.78719,5
754.215,1279.98,     -2.32418,     -0.85832,50.00000,50.00000,8.810044e-09,0.78719,5
757.439,1280.14,     -2.48299,     -0.83290,50.00000,50.00000,8.793912e-09,0.78720,5
760.653,1280.3,     -2.64205,     -0.85832,50.00000,50.00000,8.802080e-09,0.78719,5
763.889,1280.46,     -2.79802,     -0.80748,50.00000,50.00000,8.785308e-09,0.78719,5
767.113,1280.62,     -2.95110,     -0.78000,50.00000,50.00000,8.799980e-09,0.78719,5
770.335,1280.78,     -3.10035,     -0.76729,50.00000,50.00000,8.791892e-09,0.78719,5
773.567,1280.94,     -3.25641,     -0.73570,50.00000,50.00000,8.809105e-09,0.78718,5
776.789,1281.1,     -3.40578,     -0.72935,50.00000,50.00000,8.811539e-09,0.78719,5
780.017,1281.26,     -3.55444,     -0.70393,50.00000,50.00000,8.796156e-09,0.78720,5
783.243,1281.42,     -3.69825,     -0.67850,50.00000,50.00000,8.811528e-09,0.78719,5
786.459,1281.58,     -3.84094,     -0.63421,50.00000,50.00000,8.790201e-09,0.78720,5
789.689,1281.74,     -3.99052,     -0.62785,50.00000,50.00000,8.795805e-09,0.78719,5
792.916,1281.9,     -4.12247,     -0.61514,50.00000,50.00000,            ,0.44773,5
794.83,1282,     -4.20103,     -0.60243,50.00000,50.00000,            ,0.44696,5