File: data/TGA/commercial_samples/ExpDat_2025_08_06_SL_PS_Blue_Cup_SCF3_isothermal.csv
#EXPORTTYPE:                 ,DATA ALL
#FILE:                       ,2025_08_06_SL_PS_Blue_Cup_Functionalized_250721_P5EER2_V3_4_Isothermal.ngb-ss5
#FORMAT:                     ,NETZSCH5
#FTYPE:                      ,ASCII
#IDENTITY:                   ,250721-P5EER2-V3+4
#DECIMAL:                    ,POINT
#SEPARATOR:                  ,COMMA
#MTYPE:                      ,DSC
#INSTRUMENT:                 ,NETZSCH STA 449F5
#PROJECT:                    ,
#DATE/TIME:                  ,8/6/2025 12:56:57 PM (UTC-4)
#CORR. FILE:                 ,
#TEMPCAL:                    ,05-05-2025 14:38
#SENSITIVITY:                ,28-06-2023 13:53
#LABORATORY:                 ,Tran/AAG
#OPERATOR:                   ,Stanley
#REMARK:                     ,2025_03_29_SL_005d_M1_isothermal
#SAMPLE:                     ,250721-P5EER2-V3+4
#SAMPLE MASS /mg:            ,4.97
#MATERIAL:                   ,Polystyrene
#REFERENCE:                  ,
#REFERENCE MASS /mg:         ,0
#TYPE OF CRUCIBLE:           ,Al2O3 85 ‘l, open
#SAMPLE CRUCIBLE MASS /mg:   ,0
#REFERENCE CRUCIBLE MASS /mg:,0
#DSC RANGE /‘V:              ,5000
#TG RANGE /mg:               ,35000
#TAU-R:                      ,---
#CORR. CODE:                 ,000
#EXO:                        ,-1
#RANGE:                      ,30›C....800›C/0.0....20.0K/min
#SEGMENT:                    ,S1-5/5
#SEG. 1:                     ,30›C/10.0(K/min)/100›C
#SEG. 2:                     ,100›C/00:10/100›C
#SEG. 3:                     ,100›C/5.0(K/min)/300›C
#SEG. 4:                     ,300›C/20:00/300›C
#SEG. 5:                     ,300›C/20.0(K/min)/800›C

##Temp./›C,Time/min,DSC/(mW/mg),Mass/%,Gas Flow(purge2)/(ml/min),Gas Flow(protective)/(ml/min),TIC(scan:1)/A,Sensit./(uV/mW),Segment
 29.01400,   0.00000,      0.64854,    100,50.00000,50.00000,            ,0.92337,1
 33.04900,   1.28000,      0.61946,     94.21569,50.00000,50.00000,1.328491e-08,0.92352,1
 39.59700,   2.56000,      1.04997,     93.09577,50.00000,50.00000,1.329923e-08,0.92368,1
 48.55900,   3.84000,      1.53249,     94.41610,50.00000,50.00000,1.333276e-08,0.92385,1
 60.47200,   5.12000,      2.14702,     95.47686,50.00000,50.00000,1.333815e-08,0.92403,1
 74.61400,   6.40000,      2.70268,     96.25775,50.00000,50.00000,1.331473e-08,0.92426,1
 85.80200,   7.34000,      3.01501,     96.60362,50.00000,50.00000,1.335127e-08,0.92440,2
 92.52100,   7.98000,      2.75304,     96.10966,50.00000,50.00000,1.336199e-08,0.92452,2
 97.50200,   8.62000,      2.17015,     95.27425,50.00000,50.00000,1.335367e-08,0.92464,2
101.072,   9.26000,      1.63569,     94.70744,50.00000,50.00000,1.335549e-08,0.92476,2
103.917,   9.90000,      1.29663,     94.20221,50.00000,50.00000,1.335223e-08,0.92485,2
106.27,  10.54000,      1.04908,     93.78551,50.00000,50.00000,1.338363e-08,0.92497,2
108.017,  11.18000,      0.79021,     93.34386,50.00000,50.00000,1.334058e-08,0.92509,2
109.119,  11.82000,      0.52359,     92.87284,50.00000,50.00000,1.336175e-08,0.92521,2
109.711,  12.46000,      0.28985,     92.40161,50.00000,50.00000,1.336441e-08,0.92532,2
109.924,  13.10000,      0.10214,     92.01006,50.00000,50.00000,1.335709e-08,0.92540,2
109.826,  13.74000,-4.028572e-02,     91.65714,50.00000,50.00000,1.337622e-08,0.92551,2
109.483,  14.38000,     -0.15845,     91.28833,50.00000,50.00000,1.338283e-08,0.92561,2
108.985,  15.02000,     -0.24800,     91.00161,50.00000,50.00000,1.337874e-08,0.92571,2
108.325,  15.66000,     -0.31327,     90.72153,50.00000,50.00000,1.336335e-08,0.92578,2
107.615,  16.30000,     -0.35697,     90.49859,50.00000,50.00000,1.336647e-08,0.92587,2
106.841,  16.94000,     -0.38093,     90.27545,50.00000,50.00000,1.338717e-08,0.92595,2
106.173,  18.16000,     -0.10703,     90.54406,50.00000,50.00000,1.334177e-08,0.92607,3
108.138,  19.44000,      0.48049,     91.22696,50.00000,50.00000,1.335594e-08,0.92616,3
111.774,  20.72000,      0.88084,     91.75513,50.00000,50.00000,1.336173e-08,0.92620,3
117.033,  22.00000,      1.30044,     92.28773,50.00000,50.00000,1.335527e-08,0.92618,3
123.464,  23.28000,      1.61554,     92.73159,50.00000,50.00000,1.337562e-08,0.92609,3
130.608,  24.56000,      1.83622,     93.00483,50.00000,50.00000,1.337165e-08,0.92595,3
138.119,  25.84000,      1.97417,     93.19598,50.00000,50.00000,1.337949e-08,0.92571,3
145.712,  27.12000,      2.04168,     93.27787,50.00000,50.00000,1.336100e-08,0.92542,3
153.203,  28.40000,      2.06626,     93.33260,50.00000,50.00000,1.335643e-08,0.92501,3
160.489,  29.68000,      2.05610,     93.32575,50.00000,50.00000,1.336148e-08,0.92454,3
167.545,  30.96000,      2.03266,     93.32575,50.00000,50.00000,1.338600e-08,0.92429,3
174.415,  32.24000,      2.00872,     93.30523,50.00000,50.00000,1.335026e-08,0.92399,3
181.111,  33.52000,      1.98873,     93.29618,50.00000,50.00000,1.337451e-08,0.92372,3
187.697,  34.80000,      1.97315,     93.26881,50.00000,50.00000,1.335405e-08,0.92341,3
194.189,  36.08000,      1.96324,     93.23461,50.00000,50.00000,1.334293e-08,0.92313,3
200.618,  37.36000,      1.95964,     93.15272,50.00000,50.00000,1.335300e-08,0.92282,3
207.019,  38.64000,      1.96444,     93.09819,50.00000,50.00000,1.337064e-08,0.92253,3
213.398,  39.92000,      1.97365,     92.98431,50.00000,50.00000,1.336313e-08,0.92228,3
219.77,  41.20000,      1.98307,     92.87505,50.00000,50.00000,1.334689e-08,0.92201,3
226.139,  42.48000,      1.98801,     92.73159,50.00000,50.00000,1.334993e-08,0.92178,3
232.5,  43.76000,      1.99109,     92.54044,50.00000,50.00000,1.333865e-08,0.92154,3
238.862,  45.04000,      1.98661,     92.32193,50.00000,50.00000,1.336477e-08,0.92134,3
245.241,  46.32000,      1.96859,     92.10342,50.00000,50.00000,1.334113e-08,0.92112,3
251.601,  47.60000,      1.95310,     91.85513,50.00000,50.00000,1.338470e-08,0.92094,3
257.979,  48.88000,      1.93747,     91.65030,50.00000,50.00000,1.336429e-08,0.92074,3
264.345,  50.16000,      1.91674,     91.45915,50.00000,50.00000,1.334690e-08,0.92054,3
270.734,  51.44000,      1.89802,     91.26801,50.00000,50.00000,1.335915e-08,0.92038,3
277.121,  52.72000,      1.87370,     91.04708,50.00000,50.00000,1.336432e-08,0.92019,3
283.484,  54.00000,      1.85294,     90.79678,50.00000,50.00000,1.333865e-08,0.92004,3
289.86,  55.28000,      1.82645,     90.52354,50.00000,50.00000,1.333029e-08,0.91986,3
296.235,  56.56000,      1.79289,     90.26861,50.00000,50.00000,1.331742e-08,0.91971,3
302.69,  59.10000,     -0.28014,     89.65634,50.00000,44.00000,1.333438e-08,0.91942,4
302.95,  62.30000,     -0.92091,     88.68873,50.00000,43.00000,1.329949e-08,0.91908,4
301.712,  65.50000,     -0.98834,     88.01509,50.00000,43.00000,1.331150e-08,0.91883,4
300.861,  68.70000,     -0.93073,     87.52334,50.00000,43.00000,1.331373e-08,0.91863,4
300.411,  71.90000,     -0.88985,     87.07726,50.00000,43.00000,1.330061e-08,0.91848,4
300.183,  75.10000,     -0.87323,     86.66740,50.00000,43.00000,1.327244e-08,0.91838,4
300.085,  78.30000,     -0.86259,     86.32374,50.00000,43.00000,1.329674e-08,0.91832,4
300.04,  81.50000,     -0.86040,     85.99819,50.00000,43.00000,1.330793e-08,0.91831,4
300.023,  84.70000,     -0.86116,     85.72736,50.00000,43.00000,1.331475e-08,0.91831,4
300.028,  87.90000,     -0.86137,     85.47465,50.00000,43.00000,1.329989e-08,0.91835,4
300.015,  91.10000,     -0.86057,     85.21751,50.00000,43.00000,1.332536e-08,0.91842,4
300.021,  94.30000,     -0.86272,     84.99658,50.00000,43.00000,1.329423e-08,0.91850,4
300.004,  97.50000,     -0.86836,     84.83280,50.00000,43.00000,1.330228e-08,0.91859,4
300, 100.7,     -0.86504,     84.61429,50.00000,43.00000,1.330617e-08,0.91870,4
300.01, 103.9,     -0.86856,     84.45030,50.00000,43.00000,1.329243e-08,0.91882,4
300.012, 107.1,     -0.87110,     84.28189,50.00000,43.00000,1.330362e-08,0.91895,4
300.01, 110.3,     -0.86856,     84.15211,50.00000,43.00000,1.330336e-08,0.91907,4
300.006, 113.5,     -0.86934,     84.00181,50.00000,43.00000,1.326266e-08,0.91920,4
300.014, 116.7,     -0.87032,     83.87887,50.00000,43.00000,1.329807e-08,0.91940,4
300.015, 119.9,     -0.87169,     83.74225,50.00000,43.00000,1.328950e-08,0.91936,4
300.018, 123.1,     -0.87013,     83.63300,50.00000,43.00000,1.329489e-08,0.91903,4
300.026, 126.3,     -0.87267,     83.48974,50.00000,43.00000,1.328467e-08,0.91852,4
300.015, 129.5,     -0.87344,     83.39638,50.00000,43.00000,1.328357e-08,0.91782,4
300.005, 132.7,     -0.87382,     83.26660,50.00000,43.00000,1.327807e-08,0.91690,4
300.004, 135.9,     -0.87382,     83.19155,50.00000,43.00000,1.326229e-08,0.91576,4
300.004, 139.1,     -0.86817,     83.07767,50.00000,43.00000,1.326276e-08,0.91442,4
300.017, 142.3,     -0.87344,     83.00483,50.00000,43.00000,1.328841e-08,0.91289,4
300.009, 145.5,     -0.87461,     82.88873,50.00000,43.00000,1.329012e-08,0.91119,4
300.008, 148.7,     -0.87383,     82.78632,50.00000,43.00000,1.325021e-08,0.90934,4
300.016, 151.9,     -0.87637,     82.66117,50.00000,43.00000,1.326893e-08,0.90736,4
300.016, 155.1,     -0.87578,     82.61107,50.00000,43.00000,1.325523e-08,0.90526,4
300.03, 158.3,     -0.87814,     82.50865,50.00000,43.00000,1.327061e-08,0.90309,4
300.008, 161.5,     -0.87831,     82.38571,50.00000,43.00000,1.326199e-08,0.90096,4
300.017, 164.7,     -0.88066,     82.29014,50.00000,43.00000,1.324371e-08,0.89866,4
300.018, 167.9,     -0.87891,     82.22857,50.00000,43.00000,1.326289e-08,0.89631,4
300.008, 171.1,     -0.88026,     82.13078,50.00000,43.00000,1.328055e-08,0.89395,4
300.011, 174.3,     -0.87968,     82.04869,50.00000,43.00000,1.326363e-08,0.89154,4
300.011, 177.5,     -0.88260,     81.94628,50.00000,43.00000,1.325105e-08,0.88910,4
300.005, 180.7,     -0.88357,     81.86439,50.00000,43.00000,1.325954e-08,0.88664,4
300.026, 183.9,     -0.88320,     81.79376,50.00000,43.00000,1.322965e-08,0.88413,4
300.019, 187.1,     -0.88554,     81.69819,50.00000,43.00000,1.326081e-08,0.88173,4
300.017, 190.3,     -0.88514,     81.59577,50.00000,43.00000,1.323806e-08,0.87915,4
300.017, 193.5,     -0.88319,     81.54105,50.00000,43.00000,1.327851e-08,0.87654,4
300.011, 196.7,     -0.88670,     81.43863,50.00000,44.00000,1.324192e-08,0.87388,4
300.013, 199.9,     -0.88846,     81.34527,50.00000,44.00000,1.327377e-08,0.87121,4
300.011, 203.1,     -0.88514,     81.24527,50.00000,44.00000,1.323121e-08,0.86849,4
300.012, 206.3,     -0.88670,     81.16781,50.00000,43.00000,1.327221e-08,0.86572,4
300.018, 209.5,     -0.88632,     81.09960,50.00000,43.00000,1.325562e-08,0.86291,4
300.011, 212.7,     -0.88787,     81.00382,50.00000,43.00000,1.322685e-08,0.86005,4
300.024, 215.9,     -0.88983,     80.94024,50.00000,43.00000,1.321645e-08,0.85715,4
300.016, 219.1,     -0.88690,     80.83783,50.00000,43.00000,1.325521e-08,0.85422,4
300.016, 222.3,     -0.88573,     80.77626,50.00000,43.00000,1.324775e-08,0.85124,4
300.01, 225.5,     -0.88377,     80.67163,50.00000,43.00000,1.322836e-08,0.84823,4
300.019, 228.7,     -0.88222,     80.58290,50.00000,43.00000,1.326744e-08,0.84532,4
300.022, 231.9,     -0.88242,     80.50765,50.00000,43.00000,1.326010e-08,0.84223,4
300.018, 235.1,     -0.88671,     80.41207,50.00000,43.00000,1.323053e-08,0.83911,4
300.02, 238.3,     -0.88476,     80.32334,50.00000,43.00000,1.327771e-08,0.83593,4
300.027, 241.5,     -0.88613,     80.26861,50.00000,43.00000,1.326735e-08,0.83274,4
300.029, 244.7,     -0.88321,     80.18893,50.00000,43.00000,1.326571e-08,0.82950,4
300.01, 247.9,     -0.88611,     80.11610,50.00000,43.00000,1.325037e-08,0.82623,4
300.013, 251.1,     -0.88768,     80.00684,50.00000,43.00000,1.326143e-08,0.82293,4
300.014, 254.3,     -0.88573,     79.95674,50.00000,43.00000,1.324557e-08,0.81963,4
300.009, 257.5,     -0.88709,     79.86117,50.00000,43.00000,1.323835e-08,0.81626,4
300.028, 260.7,     -0.88457,     79.77928,50.00000,43.00000,1.324082e-08,0.81289,4
300.011, 263.9,     -0.88748,     79.69054,50.00000,43.00000,1.325465e-08,0.80950,4
300.036, 267.1,     -0.88614,     79.61992,50.00000,43.00000,1.323482e-08,0.80607,4
300.013, 270.3,     -0.88729,     79.53340,50.00000,43.00000,1.323576e-08,0.80262,4
300.025, 273.5,     -0.88652,     79.45372,50.00000,44.00000,1.322276e-08,0.79935,4
300.02, 276.7,     -0.88807,     79.36499,50.00000,44.00000,1.322991e-08,0.79587,4
300.015, 279.9,     -0.88748,     79.26942,50.00000,44.00000,1.325551e-08,0.79237,4
300, 283.1,     -0.88630,     79.17827,50.00000,44.00000,1.323791e-08,0.78887,4
300.01, 286.3,     -0.88572,     79.07586,50.00000,44.00000,1.323888e-08,0.78489,4
300.016, 289.5,     -0.88612,     79.00765,50.00000,44.00000,1.325055e-08,0.78404,4
299.997, 292.7,     -0.89019,     78.92555,50.00000,44.00000,1.322474e-08,0.78455,4
300.021, 295.9,     -0.88710,     78.81408,50.00000,44.00000,1.322821e-08,0.78526,4
300.007, 299.1,     -0.89235,     78.72535,50.00000,44.00000,1.324125e-08,0.78588,4
300.014, 302.3,     -0.88553,     78.63883,50.00000,44.00000,1.324015e-08,0.78633,4
300.018, 305.5,     -0.88632,     78.54326,50.00000,44.00000,1.323864e-08,0.78665,4
300.018, 308.7,     -0.88807,     78.46801,50.00000,44.00000,1.322312e-08,0.78684,4
300.014, 311.9,     -0.88787,     78.37928,50.00000,44.00000,1.324769e-08,0.78698,4
300.009, 315.1,     -0.88748,     78.27002,50.00000,44.00000,1.322351e-08,0.78707,4
300.021, 318.3,     -0.88710,     78.21087,50.00000,44.00000,1.324479e-08,0.78711,4
300.006, 321.5,     -0.88669,     78.13581,50.00000,44.00000,1.322370e-08,0.78715,4
300.003, 324.7,     -0.88923,     78.04688,50.00000,44.00000,1.322876e-08,0.78717,4
300.013, 327.9,     -0.88631,     77.96720,50.00000,44.00000,1.324079e-08,0.78718,4
300.01, 331.1,     -0.88631,     77.85795,50.00000,44.00000,1.321061e-08,0.78718,4
300.019, 334.3,     -0.88554,     77.79437,50.00000,44.00000,1.325608e-08,0.78718,4
300.008, 337.5,     -0.88806,     77.72596,50.00000,44.00000,1.325817e-08,0.78719,4
300.008, 340.7,     -0.88338,     77.64869,50.00000,44.00000,1.324490e-08,0.78719,4
300.02, 343.9,     -0.88554,     77.56660,50.00000,44.00000,1.323108e-08,0.78719,4
300.014, 347.1,     -0.88553,     77.48471,50.00000,44.00000,1.326881e-08,0.78719,4
300.004, 350.3,     -0.88747,     77.38451,50.00000,44.00000,1.323777e-08,0.78719,4
300.021, 353.5,     -0.88359,     77.32072,50.00000,44.00000,1.324544e-08,0.78720,4
300.02, 356.7,     -0.88573,     77.22515,50.00000,44.00000,1.325024e-08,0.78719,4
300.024, 359.9,     -0.88496,     77.15694,50.00000,44.00000,1.323242e-08,0.78719,4
300.017, 363.1,     -0.88222,     77.07505,50.00000,44.00000,1.324756e-08,0.78720,4
300.022, 366.3,     -0.88613,     76.96801,50.00000,44.00000,1.322812e-08,0.78719,4
300.019, 369.5,     -0.88534,     76.89296,50.00000,44.00000,1.324157e-08,0.78720,4
300.007, 372.7,     -0.88923,     76.81549,50.00000,44.00000,1.323868e-08,0.78720,4
300.003, 375.9,     -0.88591,     76.76539,50.00000,44.00000,1.323881e-08,0.78719,4
300.017, 379.1,     -0.88417,     76.68350,50.00000,45.00000,1.322194e-08,0.78720,4
300.016, 382.3,     -0.88573,     76.56278,50.00000,45.00000,1.323843e-08,0.78719,4
300.026, 385.5,     -0.88515,     76.47404,50.00000,45.00000,1.323953e-08,0.78719,4
300.013, 388.7,     -0.88280,     76.41710,50.00000,45.00000,1.322952e-08,0.78719,4
300.017, 391.9,     -0.88358,     76.34205,50.00000,45.00000,1.324439e-08,0.78719,4
300.011, 395.1,     -0.88182,     76.23280,50.00000,45.00000,1.323708e-08,0.78719,4
300.016, 398.3,     -0.88319,     76.16901,50.00000,45.00000,1.323071e-08,0.78720,4
300.011, 401.5,     -0.88416,     76.11429,50.00000,45.00000,1.321505e-08,0.78719,4
300.018, 404.7,     -0.88320,     76.03461,50.00000,45.00000,1.321199e-08,0.78719,4
300.018, 407.9,     -0.88378,     75.94809,50.00000,45.00000,1.322735e-08,0.78718,4
300.018, 411.1,     -0.88008,     75.85936,50.00000,45.00000,1.322076e-08,0.78720,4
300.023, 414.3,     -0.88008,     75.79799,50.00000,45.00000,1.321110e-08,0.78720,4
300.023, 417.5,     -0.88184,     75.71831,50.00000,45.00000,1.322735e-08,0.78719,4
300.008, 420.7,     -0.88124,     75.62495,50.00000,45.00000,1.322505e-08,0.78719,4
300.001, 423.9,     -0.87908,     75.53380,50.00000,45.00000,1.320835e-08,0.78718,4
300.017, 427.1,     -0.88105,     75.43823,50.00000,45.00000,1.319489e-08,0.78720,4
300.019, 430.3,     -0.87657,     75.39738,50.00000,45.00000,1.322035e-08,0.78719,4
300.019, 433.5,     -0.87891,     75.28350,50.00000,45.00000,1.324355e-08,0.78719,4
300.009, 436.7,     -0.87831,     75.19477,50.00000,45.00000,1.326051e-08,0.78720,4
300.021, 439.9,     -0.87540,     75.11730,50.00000,44.00000,1.322266e-08,0.78719,4
300.011, 443.1,     -0.87617,     75.05352,50.00000,44.00000,1.324581e-08,0.78719,4
300.023, 446.3,     -0.87189,     74.97163,50.00000,44.00000,1.324668e-08,0.78719,4
300.017, 449.5,     -0.87266,     74.86016,50.00000,44.00000,1.322045e-08,0.78718,4
300.024, 452.7,     -0.87150,     74.77364,50.00000,44.00000,1.321783e-08,0.78719,4
300.012, 455.9,     -0.87168,     74.69839,50.00000,44.00000,1.322088e-08,0.78719,4
300.024, 459.1,     -0.87033,     74.65070,50.00000,44.00000,1.321593e-08,0.78719,4
300.013, 462.3,     -0.86681,     74.54366,50.00000,44.00000,1.320273e-08,0.78720,4
300.028, 465.5,     -0.86702,     74.44125,50.00000,44.00000,1.323909e-08,0.78721,4
300.025, 468.7,     -0.86858,     74.37304,50.00000,44.00000,1.323092e-08,0.78720,4
300.019, 471.9,     -0.86662,     74.27726,50.00000,44.00000,1.321279e-08,0.78719,4
300.027, 475.1,     -0.86117,     74.18853,50.00000,44.00000,1.320869e-08,0.78719,4
300.008, 478.3,     -0.86271,     74.12716,50.00000,44.00000,1.322383e-08,0.78721,4
300.024, 481.5,     -0.86000,     74.02012,50.00000,44.00000,1.319033e-08,0.78720,4
300.011, 484.7,     -0.86076,     73.95634,50.00000,44.00000,1.322171e-08,0.78719,4
300.012, 487.9,     -0.86057,     73.84708,50.00000,44.00000,1.324544e-08,0.78719,4
300.019, 491.1,     -0.85882,     73.75835,50.00000,44.00000,1.321147e-08,0.78719,4
300.02, 494.3,     -0.85882,     73.68330,50.00000,44.00000,1.321416e-08,0.78719,4
300.004, 497.5,     -0.85627,     73.58753,50.00000,44.00000,1.323069e-08,0.78718,4
300.009, 500.7,     -0.85589,     73.53300,50.00000,44.00000,1.320540e-08,0.78720,4
300.017, 503.9,     -0.85570,     73.42374,50.00000,44.00000,1.321261e-08,0.78719,4
300.017, 507.1,     -0.85336,     73.34628,50.00000,44.00000,1.323181e-08,0.78720,4
300.011, 510.3,     -0.85257,     73.26660,50.00000,44.00000,1.323667e-08,0.78719,4
300.027, 513.5,     -0.84908,     73.16419,50.00000,44.00000,1.320821e-08,0.78719,4
300.02, 516.7,     -0.85024,     73.09598,50.00000,44.00000,1.320926e-08,0.78719,4
300.018, 519.9,     -0.84790,     73.00040,50.00000,44.00000,1.320757e-08,0.78718,4
300.015, 523.1,     -0.84341,     72.90463,50.00000,44.00000,1.320293e-08,0.78719,4
300.007, 526.3,     -0.84184,     72.81590,50.00000,44.00000,1.321923e-08,0.78720,4
300.018, 529.5,     -0.84322,     72.73400,50.00000,44.00000,1.322973e-08,0.78720,4
300.024, 532.7,     -0.84303,     72.63380,50.00000,44.00000,1.322013e-08,0.78719,4
300.016, 535.9,     -0.84029,     72.53823,50.00000,44.00000,1.321108e-08,0.78719,4
300.019, 539.1,     -0.83815,     72.46318,50.00000,44.00000,1.321334e-08,0.78719,4
300.026, 542.3,     -0.83796,     72.38793,50.00000,44.00000,1.322418e-08,0.78719,4
300.014, 545.5,     -0.83405,     72.26962,50.00000,44.00000,1.322935e-08,0.78719,4
300.013, 548.7,     -0.82098,     72.20825,50.00000,44.00000,1.320466e-08,0.78719,4
300.013, 551.9,     -0.82001,     72.07847,50.00000,44.00000,1.319971e-08,0.78720,4
300.021, 555.1,     -0.81924,     72.01690,50.00000,44.00000,1.320863e-08,0.78720,4
300.022, 558.3,     -0.82236,     71.97606,50.00000,44.00000,1.319007e-08,0.78717,4
300.029, 561.5,     -0.82412,     71.86680,50.00000,44.00000,1.321153e-08,0.78719,4
300.01, 564.7,     -0.81786,     71.77787,50.00000,44.00000,1.316300e-08,0.78719,4
300.024, 567.9,     -0.81709,     71.66861,50.00000,44.00000,1.319939e-08,0.78720,4
300.013, 571.1,     -0.81689,     71.59356,50.00000,44.00000,1.320834e-08,0.78719,4
300.008, 574.3,     -0.81240,     71.50483,50.00000,44.00000,1.319811e-08,0.78720,4
300.019, 577.5,     -0.80792,     71.40241,50.00000,44.00000,1.319207e-08,0.78718,4
300.02, 580.7,     -0.80929,     71.35453,50.00000,44.00000,1.322899e-08,0.78719,4
300.016, 583.9,     -0.81553,     71.25895,50.00000,44.00000,1.319395e-08,0.78718,4
300.014, 587.1,     -0.81104,     71.17022,50.00000,44.00000,1.320151e-08,0.78718,4
300.026, 590.3,     -0.80949,     71.06097,50.00000,44.00000,1.320953e-08,0.78718,4
300.014, 593.5,     -0.80519,     70.97887,50.00000,44.00000,1.320568e-08,0.78718,4
300.015, 596.7,     -0.80051,     70.88793,50.00000,44.00000,1.320595e-08,0.78719,4
300.027, 599.9,     -0.80072,     70.80604,50.00000,44.00000,1.319393e-08,0.78720,4
300.022, 603.1,     -0.80325,     70.73763,50.00000,44.00000,1.317997e-08,0.78718,4
299.999, 606.3,     -0.80439,     70.63300,50.00000,44.00000,1.315825e-08,0.78719,4
300.011, 609.5,     -0.80070,     70.55775,50.00000,44.00000,1.316866e-08,0.78719,4
300.019, 612.7,     -0.79817,     70.45996,50.00000,44.00000,1.317751e-08,0.78720,4
300.012, 615.9,     -0.79407,     70.38249,50.00000,44.00000,1.318845e-08,0.78720,4
300.025, 619.1,     -0.79662,     70.30744,50.00000,44.00000,1.316891e-08,0.78720,4
300.019, 622.3,     -0.79291,     70.21408,50.00000,44.00000,1.320615e-08,0.78719,4
300.02, 625.5,     -0.79466,     70.11851,50.00000,44.00000,1.317758e-08,0.78719,4
300.007, 628.7,     -0.79270,     70.02978,50.00000,44.00000,1.318948e-08,0.78718,4
300.011, 631.9,     -0.79349,     69.94769,50.00000,44.00000,1.316020e-08,0.78720,4
300.031, 635.1,     -0.79701,     69.85211,50.00000,44.00000,1.319457e-08,0.78719,4
300.023, 638.3,     -0.79311,     69.79759,50.00000,44.00000,1.317773e-08,0.78719,4
300.026, 641.5,     -0.78706,     69.69517,50.00000,44.00000,1.316359e-08,0.78719,4
300.008, 644.7,     -0.79075,     69.59256,50.00000,44.00000,1.317707e-08,0.78719,4
300.008, 647.9,     -0.78880,     69.49698,50.00000,44.00000,1.316153e-08,0.78719,4
300.019, 651.1,     -0.78686,     69.40141,50.00000,44.00000,1.317563e-08,0.78719,4
300.009, 654.3,     -0.78744,     69.30805,50.00000,45.00000,1.316953e-08,0.78718,4
300.014, 657.5,     -0.79076,     69.24205,50.00000,45.00000,1.316775e-08,0.78719,4
300.013, 660.7,     -0.78549,     69.13280,50.00000,45.00000,1.317666e-08,0.78720,4
300.021, 663.9,     -0.78335,     69.05091,50.00000,44.00000,1.318974e-08,0.78720,4
300.003, 667.1,     -0.78392,     68.97344,50.00000,44.00000,1.317727e-08,0.78720,4
300.015, 670.3,     -0.78549,     68.87324,50.00000,44.00000,1.317149e-08,0.78719,4
300.02, 673.5,     -0.78569,     68.80503,50.00000,44.00000,1.317124e-08,0.78720,4
300.015, 676.7,     -0.78218,     68.71851,50.00000,44.00000,1.315781e-08,0.78719,4
300.01, 679.9,     -0.77964,     68.61831,50.00000,44.00000,1.316821e-08,0.78720,4
300.015, 683.1,     -0.78549,     68.52958,50.00000,44.00000,1.316684e-08,0.78720,4
300.014, 686.3,     -0.78237,     68.45453,50.00000,44.00000,1.317919e-08,0.78719,4
300.011, 689.5,     -0.78373,     68.38169,50.00000,44.00000,1.316180e-08,0.78719,4
300.023, 692.7,     -0.78043,     68.27465,50.00000,44.00000,1.316593e-08,0.78719,4
300.006, 695.9,     -0.77905,     68.19960,50.00000,44.00000,1.316896e-08,0.78719,4
300.015, 699.1,     -0.78276,     68.06740,50.00000,44.00000,1.316423e-08,0.78719,4
300.016, 702.3,     -0.77789,     68.01509,50.00000,44.00000,1.316585e-08,0.78718,4
300.022, 705.5,     -0.77867,     67.89899,50.00000,44.00000,1.316743e-08,0.78719,4
300.012, 708.7,     -0.77925,     67.81932,50.00000,44.00000,1.317054e-08,0.78719,4
300.018, 711.9,     -0.77770,     67.74205,50.00000,44.00000,1.316525e-08,0.78719,4
300.006, 715.1,     -0.78022,     67.65312,50.00000,44.00000,1.316907e-08,0.78720,4
300.016, 718.3,     -0.77399,     67.53944,50.00000,44.00000,1.317082e-08,0.78720,4
300.016, 721.5,     -0.77418,     67.45755,50.00000,44.00000,1.315841e-08,0.78720,4
300.001, 724.7,     -0.77476,     67.38692,50.00000,44.00000,1.316184e-08,0.78718,4
300.024, 727.9,     -0.78043,     67.28451,50.00000,44.00000,1.316306e-08,0.78719,4
300.012, 731.1,     -0.77750,     67.20241,50.00000,44.00000,1.315215e-08,0.78719,4
300.021, 734.3,     -0.77672,     67.08189,50.00000,44.00000,1.316342e-08,0.78720,4
300.031, 737.5,     -0.77946,     67.00664,50.00000,44.00000,1.317567e-08,0.78719,4
300.026, 740.7,     -0.77731,     66.90885,50.00000,44.00000,1.315580e-08,0.78719,4
300.024, 743.9,     -0.77497,     66.84748,50.00000,44.00000,1.315686e-08,0.78719,4
300.026, 747.1,     -0.77458,     66.75855,50.00000,44.00000,1.313506e-08,0.78718,4
300.026, 750.3,     -0.77751,     66.64930,50.00000,44.00000,1.315809e-08,0.78720,4
300.011, 753.5,     -0.77632,     66.56056,50.00000,44.00000,1.317634e-08,0.78719,4
300.007, 756.7,     -0.77418,     66.47626,50.00000,44.00000,1.313633e-08,0.78719,4
300.019, 759.9,     -0.77516,     66.38068,50.00000,44.00000,1.317708e-08,0.78719,4
300.023, 763.1,     -0.77419,     66.29879,50.00000,44.00000,1.317261e-08,0.78719,4
300.023, 766.3,     -0.77653,     66.17123,50.00000,44.00000,1.316709e-08,0.78719,4
300.021, 769.5,     -0.77146,     66.09839,50.00000,44.00000,1.313746e-08,0.78719,4
300.017, 772.7,     -0.77184,     66.00966,50.00000,44.00000,1.313125e-08,0.78719,4
300.012, 775.9,     -0.77223,     65.92777,50.00000,44.00000,1.316584e-08,0.78719,4
300.013, 779.1,     -0.77672,     65.79799,50.00000,44.00000,1.317305e-08,0.78720,4
300.009, 782.3,     -0.77242,     65.74567,50.00000,44.00000,1.317921e-08,0.78720,4
300.017, 785.5,     -0.77204,     65.68189,50.00000,44.00000,1.314276e-08,0.78719,4
300.014, 788.7,     -0.77184,     65.57948,50.00000,44.00000,1.318086e-08,0.78719,4
300.021, 791.9,     -0.77458,     65.48612,50.00000,44.00000,1.312805e-08,0.78719,4
300.008, 795.1,     -0.77223,     65.37686,50.00000,44.00000,1.316839e-08,0.78719,4
300.003, 798.3,     -0.77320,     65.29718,50.00000,44.00000,1.315444e-08,0.78720,4
300.014, 801.5,     -0.77243,     65.20845,50.00000,44.00000,1.315462e-08,0.78720,4
300.024, 804.7,     -0.77029,     65.11288,50.00000,44.00000,1.316756e-08,0.78720,4
300.033, 807.9,     -0.76991,     65.00362,50.00000,44.00000,1.314374e-08,0.78720,4
300.027, 811.1,     -0.77224,     64.91469,50.00000,44.00000,1.315876e-08,0.78719,4
300.013, 814.3,     -0.77477,     64.82596,50.00000,44.00000,1.317126e-08,0.78719,4
300.007, 817.5,     -0.77398,     64.74406,50.00000,45.00000,1.316424e-08,0.78720,4
300.019, 820.7,     -0.77165,     64.65533,50.00000,45.00000,1.316027e-08,0.78719,4
300.017, 823.9,     -0.77340,     64.55292,50.00000,45.00000,1.316314e-08,0.78719,4
300.019, 827.1,     -0.77536,     64.46398,50.00000,45.00000,1.314260e-08,0.78719,4
300.002, 830.3,     -0.77144,     64.38209,50.00000,45.00000,1.316135e-08,0.78719,4
300.013, 833.5,     -0.77184,     64.28652,50.00000,45.00000,1.315780e-08,0.78719,4
300.026, 836.7,     -0.77302,     64.21147,50.00000,45.00000,1.316498e-08,0.78719,4
300.014, 839.9,     -0.77321,     64.12254,50.00000,45.00000,1.312549e-08,0.78718,4
300.016, 843.1,     -0.77418,     64.02696,50.00000,45.00000,1.314948e-08,0.78720,4
300.016, 846.3,     -0.77496,     63.93139,50.00000,45.00000,1.313891e-08,0.78720,4
300.022, 849.5,     -0.77575,     63.82213,50.00000,45.00000,1.314490e-08,0.78719,4
300.015, 852.7,     -0.77399,     63.71972,50.00000,45.00000,1.312689e-08,0.78719,4
300.02, 855.9,     -0.77360,     63.64467,50.00000,45.00000,1.313189e-08,0.78719,4
300.018, 859.1,     -0.77302,     63.56258,50.00000,45.00000,1.312842e-08,0.78718,4
300.011, 862.3,     -0.77574,     63.47384,50.00000,45.00000,1.314335e-08,0.78719,4
300.024, 865.5,     -0.77829,     63.37143,50.00000,45.00000,1.315238e-08,0.78718,4
300.019, 868.7,     -0.77321,     63.28270,50.00000,44.00000,1.315722e-08,0.78719,4
300.013, 871.9,     -0.77555,     63.21429,50.00000,44.00000,1.314959e-08,0.78720,4
300.013, 875.1,     -0.77496,     63.10503,50.00000,44.00000,1.314445e-08,0.78720,4
300.015, 878.3,     -0.77340,     63.00946,50.00000,44.00000,1.316618e-08,0.78719,4
300.008, 881.5,     -0.77710,     62.92757,50.00000,45.00000,1.314057e-08,0.78719,4
300.014, 884.7,     -0.77691,     62.83883,50.00000,45.00000,1.315058e-08,0.78719,4
300.006, 887.9,     -0.77690,     62.74990,50.00000,45.00000,1.314003e-08,0.78718,4
300.013, 891.1,     -0.77418,     62.65433,50.00000,45.00000,1.313753e-08,0.78718,4
300.018, 894.3,     -0.78043,     62.55875,50.00000,45.00000,1.313900e-08,0.78719,4
300.018, 897.5,     -0.78082,     62.47002,50.00000,45.00000,1.314976e-08,0.78720,4
300.017, 900.7,     -0.78842,     62.36076,50.00000,45.00000,1.314188e-08,0.78719,4
300.02, 903.9,     -0.78628,     62.27887,50.00000,45.00000,1.314362e-08,0.78719,4
300.032, 907.1,     -0.78824,     62.18994,50.00000,45.00000,1.312449e-08,0.78719,4
300.011, 910.3,     -0.79232,     62.08753,50.00000,45.00000,1.316992e-08,0.78719,4
300.026, 913.5,     -0.79486,     62.00563,50.00000,44.00000,1.314587e-08,0.78719,4
300.01, 916.7,     -0.80070,     61.92133,50.00000,44.00000,1.313370e-08,0.78719,4
300.021, 919.9,     -0.79661,     61.81891,50.00000,44.00000,1.314002e-08,0.78719,4
300.015, 923.1,     -0.79797,     61.73702,50.00000,44.00000,1.313888e-08,0.78719,4
300.019, 926.3,     -0.80266,     61.66197,50.00000,44.00000,1.316770e-08,0.78720,4
300.028, 929.5,     -0.80306,     61.58672,50.00000,44.00000,1.314171e-08,0.78719,4
300.004, 932.7,     -0.80225,     61.48431,50.00000,44.00000,1.314947e-08,0.78719,4
300.016, 935.9,     -0.80071,     61.37505,50.00000,44.00000,1.314635e-08,0.78719,4
300.011, 939.1,     -0.80363,     61.30000,50.00000,44.00000,1.318139e-08,0.78720,4
300.008, 942.3,     -0.80050,     61.21811,50.00000,44.00000,1.315791e-08,0.78718,4
300.007, 945.5,     -0.80304,     61.10201,50.00000,44.00000,1.313276e-08,0.78719,4
300.023, 948.7,     -0.79935,     61.04728,50.00000,44.00000,1.314490e-08,0.78719,4
300.012, 951.9,     -0.80519,     60.95855,50.00000,44.00000,1.311105e-08,0.78719,4
300.014, 955.1,     -0.80012,     60.84245,50.00000,44.00000,1.312206e-08,0.78719,4
300.023, 958.3,     -0.80130,     60.76720,50.00000,44.00000,1.313821e-08,0.78718,4
300.015, 961.5,     -0.80090,     60.68531,50.00000,44.00000,1.309750e-08,0.78719,4
300.007, 964.7,     -0.80109,     60.58974,50.00000,44.00000,1.314724e-08,0.78720,4
300.012, 967.9,     -0.80558,     60.48048,50.00000,44.00000,1.311953e-08,0.78718,4
300.024, 971.1,     -0.80422,     60.39859,50.00000,44.00000,1.313296e-08,0.78719,4
300.002, 974.3,     -0.80147,     60.31650,50.00000,44.00000,1.311599e-08,0.78719,4
300.028, 977.5,     -0.80462,     60.22777,50.00000,44.00000,1.312927e-08,0.78719,4
300.015, 980.7,     -0.80441,     60.15956,50.00000,44.00000,1.308630e-08,0.78719,4
300.02, 983.9,     -0.80110,     60.05030,50.00000,44.00000,1.310418e-08,0.78718,4
300.022, 987.1,     -0.80442,     59.97968,50.00000,44.00000,1.312107e-08,0.78720,4
300.007, 990.3,     -0.80635,     59.87264,50.00000,44.00000,1.313365e-08,0.78718,4
300.012, 993.5,     -0.80246,     59.81127,50.00000,44.00000,1.310717e-08,0.78718,4
300.004, 996.7,     -0.80420,     59.70201,50.00000,44.00000,1.311902e-08,0.78719,4
300.034, 999.9,     -0.79955,     59.62455,50.00000,44.00000,1.309676e-08,0.78719,4
300.019,1003.1,     -0.80344,     59.51529,50.00000,45.00000,1.312376e-08,0.78719,4
300.019,1006.3,     -0.80519,     59.42656,50.00000,45.00000,1.310479e-08,0.78720,4
300.017,1009.5,     -0.80675,     59.32414,50.00000,45.00000,1.312946e-08,0.78719,4
300.004,1012.7,     -0.80654,     59.23300,50.00000,45.00000,1.310650e-08,0.78719,4
300.008,1015.9,     -0.80460,     59.15795,50.00000,45.00000,1.311042e-08,0.78719,4
300.022,1019.1,     -0.80344,     59.06237,50.00000,45.00000,1.310622e-08,0.78719,4
300.01,1022.3,     -0.80440,     58.97364,50.00000,45.00000,1.312298e-08,0.78719,4
300.02,1025.5,     -0.80227,     58.91891,50.00000,45.00000,1.312956e-08,0.78719,4
300.021,1028.7,     -0.80637,     58.80282,50.00000,45.00000,1.312332e-08,0.78719,4
300.013,1031.9,     -0.80714,     58.72998,50.00000,45.00000,1.311173e-08,0.78720,4
300.014,1035.1,     -0.80441,     58.64809,50.00000,45.00000,1.310876e-08,0.78719,4
300.017,1038.3,     -0.80812,     58.55252,50.00000,45.00000,1.309697e-08,0.78719,4
300.016,1041.5,     -0.80324,     58.46600,50.00000,45.00000,1.308101e-08,0.78718,4
300.011,1044.7,     -0.80753,     58.36358,50.00000,45.00000,1.308592e-08,0.78719,4
300.006,1047.9,     -0.80577,     58.29517,50.00000,45.00000,1.310175e-08,0.78719,4
300.009,1051.1,     -0.80752,     58.18592,50.00000,45.00000,1.309954e-08,0.78719,4
300.01,1054.3,     -0.80362,     58.10402,50.00000,45.00000,1.311880e-08,0.78719,4
300.026,1057.5,     -0.80403,     58.02877,50.00000,45.00000,1.306701e-08,0.78720,4
300.018,1060.7,     -0.80617,     57.91952,50.00000,45.00000,1.304956e-08,0.78719,4
300.015,1063.9,     -0.80733,     57.83763,50.00000,45.00000,1.309536e-08,0.78719,4
300.015,1067.1,     -0.80675,     57.75573,50.00000,45.00000,1.307064e-08,0.78718,4
300.012,1070.3,     -0.80558,     57.65553,50.00000,45.00000,1.307600e-08,0.78719,4
300.023,1073.5,     -0.80539,     57.61449,50.00000,45.00000,1.310588e-08,0.78719,4
300.022,1076.7,     -0.80812,     57.50523,50.00000,45.00000,1.308900e-08,0.78719,4
300.012,1079.9,     -0.80928,     57.41207,50.00000,45.00000,1.308330e-08,0.78718,4
300.016,1083.1,     -0.80792,     57.34366,50.00000,45.00000,1.308848e-08,0.78719,4
300.014,1086.3,     -0.80636,     57.23441,50.00000,45.00000,1.307315e-08,0.78717,4
300.019,1089.5,     -0.80558,     57.09095,50.00000,45.00000,1.306719e-08,0.78719,4
300.017,1092.7,     -0.80695,     57.05694,50.00000,45.00000,1.306878e-08,0.78720,4
300.01,1095.9,     -0.80694,     56.96579,50.00000,45.00000,1.308612e-08,0.78719,4
300.016,1099.1,     -0.80656,     56.89074,50.00000,45.00000,1.306357e-08,0.78720,4
300.006,1102.3,     -0.80986,     56.79054,50.00000,45.00000,1.307607e-08,0.78719,4
300.004,1105.5,     -0.80713,     56.71549,50.00000,45.00000,1.308434e-08,0.78719,4
300.016,1108.7,     -0.80851,     56.61066,50.00000,45.00000,1.308266e-08,0.78719,4
300.026,1111.9,     -0.80969,     56.54688,50.00000,45.00000,1.307870e-08,0.78720,4
300.013,1115.1,     -0.80967,     56.41730,50.00000,45.00000,1.308411e-08,0.78720,4
300.019,1118.3,     -0.80929,     56.35573,50.00000,44.00000,1.305730e-08,0.78720,4
300.03,1121.5,     -0.80676,     56.23964,50.00000,45.00000,1.305151e-08,0.78719,4
300.018,1124.7,     -0.80773,     56.15091,50.00000,45.00000,1.305865e-08,0.78719,4
300.022,1127.9,     -0.81007,     56.07807,50.00000,45.00000,1.303723e-08,0.78719,4
300.016,1131.1,     -0.81046,     55.98934,50.00000,45.00000,1.306141e-08,0.78719,4
300.016,1134.3,     -0.80870,     55.90040,50.00000,45.00000,1.305692e-08,0.78720,4
300.019,1137.5,     -0.80870,     55.81167,50.00000,45.00000,1.307574e-08,0.78720,4
300.022,1140.7,     -0.80871,     55.69557,50.00000,45.00000,1.306894e-08,0.78719,4
300.021,1143.9,     -0.80793,     55.64105,50.00000,45.00000,1.303674e-08,0.78720,4
300.015,1147.1,     -0.81006,     55.56137,50.00000,45.00000,1.308358e-08,0.78719,4
300.01,1150.3,     -0.80889,     55.46338,50.00000,45.00000,1.306949e-08,0.78719,4
300.01,1153.5,     -0.81045,     55.37465,50.00000,44.00000,1.305065e-08,0.78719,4
300.019,1156.7,     -0.80870,     55.30181,50.00000,44.00000,1.301839e-08,0.78719,4
300.016,1159.9,     -0.80773,     55.23119,50.00000,44.00000,1.304070e-08,0.78719,4
300.02,1163.1,     -0.81065,     55.14245,50.00000,44.00000,1.305692e-08,0.78719,4
300.023,1166.3,     -0.80851,     55.02636,50.00000,44.00000,1.307276e-08,0.78719,4
300.008,1169.5,     -0.80889,     54.96499,50.00000,44.00000,1.305191e-08,0.78719,4
300.012,1172.7,     -0.81084,     54.88974,50.00000,44.00000,1.305695e-08,0.78719,4
300.004,1175.9,     -0.80830,     54.77364,50.00000,44.00000,1.307266e-08,0.78719,4
300.025,1179.1,     -0.81144,     54.67807,50.00000,44.00000,1.304944e-08,0.78719,4
300.015,1182.3,     -0.81240,     54.66217,50.00000,44.00000,1.302883e-08,0.78720,4
300.025,1185.5,     -0.81027,     54.52555,50.00000,44.00000,1.302493e-08,0.78719,4
300.022,1188.7,     -0.81339,     54.42314,50.00000,44.00000,1.303696e-08,0.78719,4
300.032,1191.9,     -0.81398,     54.35714,50.00000,45.00000,1.300693e-08,0.78719,4
300.01,1195.1,     -0.81298,     54.24105,50.00000,45.00000,1.301220e-08,0.78719,4
300.02,1198.3,     -0.81358,     54.14547,50.00000,45.00000,1.303810e-08,0.78719,4
300.02,1201.5,     -0.81572,     54.02938,50.00000,45.00000,1.300777e-08,0.78718,4
300.007,1204.7,     -0.81240,     53.96781,50.00000,45.00000,1.301436e-08,0.78719,4
300.02,1207.9,     -0.81514,     53.88592,50.00000,45.00000,1.299490e-08,0.78720,4
300.017,1211.1,     -0.81455,     53.82213,50.00000,45.00000,1.300446e-08,0.78719,4
300.013,1214.3,     -0.81474,     53.70604,50.00000,45.00000,1.300131e-08,0.78720,4
300.008,1217.5,     -0.81259,     53.64909,50.00000,45.00000,1.303142e-08,0.78719,4
300.022,1220.7,     -0.81202,     53.62877,50.00000,44.00000,1.302872e-08,0.78719,4
300.043,1223.9,     -0.73852,     53.53763,50.00000,44.00000,1.302301e-08,0.78720,4
300.029,1227.1,     -0.73422,     53.48994,50.00000,44.00000,1.306678e-08,0.78719,4
300.029,1230.3,     -0.72856,     53.40785,50.00000,44.00000,1.303448e-08,0.78719,4
300.015,1233.5,     -0.73323,     53.30543,50.00000,44.00000,1.301640e-08,0.78719,4
300.017,1236.7,     -0.73304,     53.25091,50.00000,44.00000,1.302924e-08,0.78720,4
300.01,1239.9,     -0.73674,     53.10744,50.00000,44.00000,1.301938e-08,0.78719,4
299.995,1243.1,     -0.73692,     53.01871,50.00000,44.00000,1.301193e-08,0.78719,4
300.023,1246.3,     -0.73850,     52.90020,50.00000,44.00000,1.299539e-08,0.78719,4
300.017,1249.5,     -0.73908,     52.80463,50.00000,44.00000,1.303019e-08,0.78719,4
300.008,1252.7,     -0.73557,     52.72274,50.00000,44.00000,1.300534e-08,0.78720,4
300.008,1255.9,     -0.73011,     52.72958,50.00000,44.00000,1.300822e-08,0.78718,4
300.019,1257.11,     -0.72602,     52.64769,50.00000,50.00000,1.302477e-08,0.78718,5
300.215,1257.27,     -0.53816,     52.63400,50.00000,50.00000,1.302640e-08,0.78719,5
300.758,1257.42,-3.493724e-02,     52.79779,50.00000,50.00000,1.300386e-08,0.78719,5
301.836,1257.59,      0.79501,     53.01408,50.00000,50.00000,1.301494e-08,0.78718,5
303.443,1257.74,      1.88109,     53.32133,50.00000,50.00000,1.301494e-08,0.78718,5
305.548,1257.9,      3.09052,     53.60604,50.00000,50.00000,1.303191e-08,0.78719,5
308.058,1258.07,      4.28849,     53.88370,50.00000,50.00000,1.302059e-08,0.78719,5
310.834,1258.22,      5.35013,     54.08853,50.00000,50.00000,1.299960e-08,0.78718,5
313.754,1258.38,      6.19567,     54.23199,50.00000,50.00000,1.299784e-08,0.78719,5
316.685,1258.55,      6.79213,     54.32978,50.00000,50.00000,1.302618e-08,0.78719,5
319.571,1258.7,      7.15531,     54.37304,50.00000,50.00000,1.299954e-08,0.78718,5
322.374,1258.87,      7.33080,     54.40724,50.00000,50.00000,1.301368e-08,0.78718,5
325.103,1259.03,      7.38363,     54.42093,50.00000,50.00000,1.302500e-08,0.78718,5
327.789,1259.18,      7.38259,     54.42777,50.00000,50.00000,1.301282e-08,0.78718,5
330.461,1259.35,      7.38791,     54.44809,50.00000,50.00000,1.300081e-08,0.78719,5
333.165,1259.51,      7.44456,     54.48229,50.00000,50.00000,1.298969e-08,0.78719,5
335.965,1259.66,      7.57795,     54.53924,50.00000,50.00000,1.300902e-08,0.78719,5
338.865,1259.83,      7.79121,     54.59396,50.00000,50.00000,1.300615e-08,0.78719,5
341.903,1259.98,      8.07011,     54.68028,50.00000,50.00000,1.302359e-08,0.78718,5
345.067,1260.14,      8.39934,     54.78954,50.00000,50.00000,1.303075e-08,0.78718,5
348.321,1260.31,      8.73952,     54.83742,50.00000,50.00000,1.303075e-08,0.78718,5
351.679,1260.46,      9.06818,     54.90342,50.00000,50.00000,1.303644e-08,0.78718,5
355.093,1260.62,      9.35171,     54.93078,50.00000,50.00000,1.302815e-08,0.78718,5
358.547,1260.79,      9.59648,     54.98773,50.00000,50.00000,1.301436e-08,0.78720,5
362.016,1260.94,      9.78356,     54.98773,50.00000,50.00000,1.304915e-08,0.78719,5
365.484,1261.11,      9.91701,     54.96036,50.00000,50.00000,1.300541e-08,0.78718,5
368.935,1261.27,     10.00610,     54.93300,50.00000,50.00000,1.301401e-08,0.78718,5
372.411,1261.42,     10.02020,     54.85795,50.00000,50.00000,1.300909e-08,0.78719,5
375.847,1261.59,     10.13427,     54.75775,50.00000,50.00000,1.298633e-08,0.78718,5
379.303,1261.74,     10.38065,     54.57344,50.00000,50.00000,1.299119e-08,0.78718,5
382.749,1261.9,     10.34551,     54.35493,50.00000,50.00000,1.299584e-08,0.78719,5
386.216,1262.07,     10.41664,     54.04064,50.00000,50.00000,1.301126e-08,0.78719,5
389.703,1262.22,     10.48201,     53.58310,50.00000,50.00000,1.304459e-08,0.78719,5
393.181,1262.38,     10.38409,     53.13239,50.00000,50.00000,1.300855e-08,0.78718,5
396.683,1262.55,     10.56724,     52.57022,50.00000,50.00000,1.302293e-08,0.78719,5
400.201,1262.7,     10.44089,     51.91227,50.00000,50.00000,1.301903e-08,0.78719,5
403.716,1262.87,     10.83215,     51.02455,50.00000,50.00000,1.302789e-08,0.78719,5
407.222,1263.03,     11.21964,     49.97746,50.00000,50.00000,1.300133e-08,0.78719,5
410.721,1263.18,     10.57721,     48.65956,50.00000,50.00000,1.304126e-08,0.78718,5
414.218,1263.35,     11.01788,     47.03642,50.00000,50.00000,1.304126e-08,0.78718,5
417.699,1263.51,     11.62681,     45.16076,50.00000,50.00000,1.298908e-08,0.78719,5
421.174,1263.66,     11.82242,     42.89577,50.00000,50.00000,1.303729e-08,0.78719,5
424.626,1263.83,     11.69574,     40.23239,50.00000,50.00000,1.302525e-08,0.78719,5
428.072,1263.98,     13.00931,     37.20724,50.00000,50.00000,1.301837e-08,0.78719,5
431.505,1264.14,     13.19039,     33.76761,50.00000,50.00000,1.303311e-08,0.78719,5
434.936,1264.31,     13.42739,     29.96157,50.00000,50.00000,1.300955e-08,0.78719,5
438.365,1264.46,     13.67601,     25.92334,50.00000,50.00000,1.301648e-08,0.78719,5
441.788,1264.62,     13.58253,     21.71911,50.00000,50.00000,1.301370e-08,0.78719,5
445.19,1264.79,     13.40973,     17.54648,50.00000,50.00000,1.301811e-08,0.78718,5
448.58,1264.94,     13.15127,     13.64708,50.00000,50.00000,1.301198e-08,0.78719,5
451.981,1265.11,     12.84822,     10.13018,50.00000,50.00000,1.299798e-08,0.78720,5
455.37,1265.27,     12.48216,      7.18471,50.00000,50.00000,1.301322e-08,0.78720,5
458.751,1265.42,     12.06649,      4.73984,50.00000,50.00000,1.300195e-08,0.78719,5
462.126,1265.59,     11.63867,      2.85050,50.00000,50.00000,1.301037e-08,0.78720,5
465.491,1265.74,     11.21909,      1.37304,50.00000,50.00000,1.300382e-08,0.78719,5
468.872,1265.9,     10.82895,      0.27586,50.00000,50.00000,1.303716e-08,0.78719,5
472.229,1266.07,     10.47078,     -0.55272,50.00000,50.00000,1.299645e-08,0.78719,5
475.594,1266.22,     10.16143,     -1.14004,50.00000,50.00000,1.302670e-08,0.78719,5
478.937,1266.38,      9.89233,     -1.53380,50.00000,50.00000,1.302670e-08,0.78719,5
482.263,1266.55,      9.65917,     -1.79095,50.00000,50.00000,1.302063e-08,0.78718,5
485.588,1266.7,      9.45993,     -2.00040,50.00000,50.00000,1.305306e-08,0.78719,5
488.907,1266.87,      9.28652,     -2.11429,50.00000,50.00000,1.301200e-08,0.78720,5
492.222,1267.03,      9.13657,     -2.20080,50.00000,50.00000,1.300330e-08,0.78719,5
495.535,1267.18,      9.00162,     -2.20080,50.00000,50.00000,1.300890e-08,0.78719,5
498.841,1267.35,      8.88282,     -2.22797,50.00000,50.00000,1.301377e-08,0.78719,5
502.123,1267.51,      8.77284,     -2.20080,50.00000,50.00000,1.301753e-08,0.78720,5
505.412,1267.66,      8.67166,     -2.22797,50.00000,50.00000,1.300024e-08,0.78720,5
508.692,1267.83,      8.57793,     -2.20080,50.00000,50.00000,1.298681e-08,0.78719,5
511.98,1267.98,      8.48810,     -2.18028,50.00000,50.00000,1.302865e-08,0.78719,5
515.242,1268.14,      8.39901,     -2.14608,50.00000,50.00000,1.303573e-08,0.78718,5
518.5,1268.31,      8.31300,     -2.14608,50.00000,50.00000,1.300945e-08,0.78719,5
521.777,1268.46,      8.23218,     -2.11871,50.00000,50.00000,1.301312e-08,0.78719,5
525.029,1268.62,      8.15016,     -2.09376,50.00000,50.00000,1.302843e-08,0.78718,5
528.294,1268.79,      8.06784,     -2.06640,50.00000,50.00000,1.300110e-08,0.78719,5
531.545,1268.94,      7.98785,     -2.06640,50.00000,50.00000,1.299298e-08,0.78719,5
534.788,1269.11,      7.90474,     -2.01187,50.00000,50.00000,1.298984e-08,0.78719,5
538.026,1269.27,      7.82702,     -2.01187,50.00000,50.00000,1.301567e-08,0.78719,5
541.275,1269.42,      7.74797,     -1.92978,50.00000,50.00000,1.301382e-08,0.78718,5
544.511,1269.59,      7.67567,     -1.94346,50.00000,50.00000,1.301382e-08,0.78718,5
547.759,1269.74,      7.60102,     -1.90241,50.00000,50.00000,1.302411e-08,0.78719,5
550.996,1269.9,      7.52838,     -1.84789,50.00000,50.00000,1.303086e-08,0.78720,5
554.231,1270.07,      7.45571,     -1.82052,50.00000,50.00000,1.298922e-08,0.78720,5
557.468,1270.22,      7.38331,     -1.80000,50.00000,50.00000,1.300395e-08,0.78719,5
560.716,1270.38,      7.31319,     -1.76600,50.00000,50.00000,1.300921e-08,0.78719,5
563.938,1270.55,      7.24424,     -1.73863,50.00000,50.00000,1.303515e-08,0.78720,5
567.176,1270.7,      7.17355,     -1.71127,50.00000,50.00000,1.299308e-08,0.78719,5
570.41,1270.87,      7.10728,     -1.68390,50.00000,50.00000,1.303113e-08,0.78719,5
573.64,1271.03,      7.03745,     -1.63622,50.00000,50.00000,1.301021e-08,0.78720,5
576.866,1271.18,      6.96794,     -1.62938,50.00000,50.00000,1.304211e-08,0.78719,5
580.092,1271.35,      6.90185,     -1.60201,50.00000,50.00000,1.303000e-08,0.78718,5
583.319,1271.51,      6.83532,     -1.57465,50.00000,50.00000,1.300722e-08,0.78719,5
586.55,1271.66,      6.76838,     -1.54748,50.00000,50.00000,1.298800e-08,0.78719,5
589.769,1271.83,      6.70260,     -1.49960,50.00000,50.00000,1.302246e-08,0.78718,5
593.007,1271.98,      6.63936,     -1.49276,50.00000,50.00000,1.301936e-08,0.78719,5
596.237,1272.14,      6.57595,     -1.46539,50.00000,50.00000,1.302848e-08,0.78719,5
599.443,1272.31,      6.51340,     -1.41771,50.00000,50.00000,1.298959e-08,0.78719,5
602.665,1272.46,      6.44915,     -1.37887,50.00000,50.00000,1.301824e-08,0.78718,5
605.892,1272.62,      6.38829,     -1.37203,50.00000,50.00000,1.301824e-08,0.78718,5
609.124,1272.79,      6.33114,     -1.34487,50.00000,50.00000,1.302082e-08,0.78719,5
612.34,1272.94,      6.27328,     -1.31751,50.00000,50.00000,1.302038e-08,0.78719,5
615.558,1273.11,      6.21627,     -1.29014,50.00000,50.00000,1.302230e-08,0.78719,5
618.781,1273.27,      6.15549,     -1.26278,50.00000,50.00000,1.303671e-08,0.78719,5
622.002,1273.42,      6.09789,     -1.22877,50.00000,50.00000,1.301031e-08,0.78720,5
625.227,1273.59,      6.03855,     -1.18089,50.00000,50.00000,1.301543e-08,0.78719,5
628.441,1273.74,      5.98002,     -1.17404,50.00000,50.00000,1.301910e-08,0.78719,5
631.663,1273.9,      5.92184,     -1.13320,50.00000,50.00000,1.299953e-08,0.78719,5
634.886,1274.07,      5.86369,     -1.09215,50.00000,50.00000,1.299742e-08,0.78719,5
638.096,1274.22,      5.80222,     -1.09215,50.00000,50.00000,1.298852e-08,0.78719,5
641.319,1274.38,      5.73846,     -1.08531,50.00000,50.00000,1.298884e-08,0.78720,5
644.532,1274.55,      5.67734,     -1.02616,50.00000,50.00000,1.301699e-08,0.78718,5
647.745,1274.7,      5.61326,     -1.02616,50.00000,50.00000,1.298556e-08,0.78719,5
650.964,1274.87,      5.54923,     -0.97143,50.00000,50.00000,1.301576e-08,0.78720,5
654.179,1275.03,      5.48854,     -0.97143,50.00000,50.00000,1.299187e-08,0.78719,5
657.384,1275.18,      5.42210,     -0.94427,50.00000,50.00000,1.300925e-08,0.78721,5
660.603,1275.35,      5.36063,     -0.88491,50.00000,50.00000,1.298149e-08,0.78720,5
663.816,1275.51,      5.29646,     -0.88491,50.00000,50.00000,1.303353e-08,0.78719,5
667.034,1275.66,      5.22811,     -0.85775,50.00000,50.00000,1.301500e-08,0.78720,5
670.249,1275.83,      5.15672,     -0.85775,50.00000,50.00000,1.301500e-08,0.78720,5
673.471,1275.98,      5.08601,     -0.83038,50.00000,50.00000,1.298623e-08,0.78719,5
676.682,1276.14,      5.01531,     -0.80302,50.00000,50.00000,1.299564e-08,0.78719,5
679.896,1276.31,      4.94220,     -0.77565,50.00000,50.00000,1.300414e-08,0.78719,5
683.115,1276.46,      4.86482,     -0.75533,50.00000,50.00000,1.302010e-08,0.78720,5
686.342,1276.62,      4.78222,     -0.74849,50.00000,50.00000,1.302124e-08,0.78720,5
689.57,1276.79,      4.69619,     -0.72113,50.00000,50.00000,1.298836e-08,0.78720,5
692.779,1276.94,      4.60914,     -0.69376,50.00000,50.00000,1.300599e-08,0.78719,5
696,1277.11,      4.52214,     -0.67324,50.00000,50.00000,1.301731e-08,0.78720,5
699.223,1277.27,      4.43454,     -0.67324,50.00000,50.00000,1.299390e-08,0.78720,5
702.44,1277.42,      4.34439,     -0.63924,50.00000,50.00000,1.299759e-08,0.78719,5
705.665,1277.59,      4.25460,     -0.61187,50.00000,50.00000,1.300086e-08,0.78719,5
708.887,1277.74,      4.16195,     -0.58451,50.00000,50.00000,1.299399e-08,0.78720,5
712.102,1277.9,      4.06196,     -0.58451,50.00000,50.00000,1.300397e-08,0.78719,5
715.324,1278.07,      3.96036,     -0.55714,50.00000,50.00000,1.298461e-08,0.78719,5
718.549,1278.22,      3.85875,     -0.52998,50.00000,50.00000,1.301279e-08,0.78720,5
721.759,1278.38,      3.75063,     -0.50262,50.00000,50.00000,1.301279e-08,0.78720,5
724.979,1278.55,      3.64411,     -0.47525,50.00000,50.00000,1.300743e-08,0.78721,5
728.209,1278.7,      3.53500,     -0.46841,50.00000,50.00000,1.296913e-08,0.78720,5
731.425,1278.87,      3.42353,     -0.42736,50.00000,50.00000,1.297869e-08,0.78720,5
734.645,1279.03,      3.30910,     -0.42736,50.00000,50.00000,1.299910e-08,0.78720,5
737.869,1279.18,      3.19527,     -0.40020,50.00000,50.00000,1.300727e-08,0.78721,5
741.086,1279.35,      3.08335,     -0.36600,50.00000,50.00000,1.299344e-08,0.78720,5
744.303,1279.51,      2.96713,     -0.33863,50.00000,50.00000,1.300283e-08,0.78720,5
747.526,1279.66,      2.84758,     -0.33863,50.00000,50.00000,1.301015e-08,0.78720,5
750.747,1279.83,      2.72764,     -0.29779,50.00000,50.00000,1.300442e-08,0.78720,5
753.964,1279.98,      2.60961,     -0.28410,50.00000,50.00000,1.301014e-08,0.78719,5
757.19,1280.14,      2.48958,     -0.25674,50.00000,50.00000,1.299417e-08,0.78720,5
760.41,1280.31,      2.36549,     -0.22938,50.00000,50.00000,1.300414e-08,0.78719,5
763.617,1280.46,      2.24397,     -0.22938,50.00000,50.00000,1.301875e-08,0.78719,5
766.84,1280.62,      2.12312,     -0.20201,50.00000,50.00000,1.300837e-08,0.78719,5
770.059,1280.79,      2.00356,     -0.14748,50.00000,50.00000,1.301224e-08,0.78719,5
773.269,1280.94,      1.88497,     -0.14748,50.00000,50.00000,1.300755e-08,0.78719,5
776.485,1281.11,      1.76604,     -0.14064,50.00000,50.00000,1.300755e-08,0.78719,5
779.707,1281.27,      1.65218,     -0.12012,50.00000,50.00000,1.298649e-08,0.78718,5
782.927,1281.42,      1.53562,-9.275654e-02,50.00000,50.00000,1.300048e-08,0.78719,5
786.14,1281.59,      1.41768,-7.907445e-02,50.00000,50.00000,1.302444e-08,0.78720,5
789.366,1281.74,      1.29737,-3.601610e-02,50.00000,50.00000,            ,0.44915,5
792.572,1281.9,      1.18423,-3.601610e-02,50.00000,50.00000,            ,0.44787,5
794.487,1282,      1.11553,-3.601610e-02,50.00000,50.00000,            ,0.44710,5