File: data/TGA/commercial_samples/ExpDat_2025_08_15_SL_PS_Container_Isothermal.csv
#EXPORTTYPE:                 ,DATA ALL
#FILE:                       ,2025_08_15_SL_PS_Container_Isothermal.ngb-ss5
#FORMAT:                     ,NETZSCH5
#FTYPE:                      ,ASCII
#IDENTITY:                   ,PS-Container
#DECIMAL:                    ,POINT
#SEPARATOR:                  ,COMMA
#MTYPE:                      ,TG
#INSTRUMENT:                 ,NETZSCH STA 449F5
#PROJECT:                    ,
#DATE/TIME:                  ,8/15/2025 9:51:52 AM (UTC-4)
#CORR. FILE:                 ,
#TEMPCAL:                    ,05-05-2025 14:38
#SENSITIVITY:                ,28-06-2023 13:53
#LABORATORY:                 ,Tran/AAG
#OPERATOR:                   ,Stanley
#REMARK:                     ,2025_03_29_SL_005d_M1_isothermal
#SAMPLE:                     ,PS-Container
#SAMPLE MASS /mg:            ,4.91
#MATERIAL:                   ,Polystyrene
#REFERENCE:                  ,
#REFERENCE MASS /mg:         ,0
#TYPE OF CRUCIBLE:           ,Al2O3 85 ‘l, open
#SAMPLE CRUCIBLE MASS /mg:   ,0
#REFERENCE CRUCIBLE MASS /mg:,0
#DSC RANGE /‘V:              ,5000
#TG RANGE /mg:               ,35000
#TAU-R:                      ,---
#CORR. CODE:                 ,000
#EXO:                        ,-1
#RANGE:                      ,30›C....800›C/0.0....20.0K/min
#SEGMENT:                    ,S1-5/5
#SEG. 1:                     ,30›C/10.0(K/min)/100›C
#SEG. 2:                     ,100›C/00:10/100›C
#SEG. 3:                     ,100›C/5.0(K/min)/300›C
#SEG. 4:                     ,300›C/20:00/300›C
#SEG. 5:                     ,300›C/20.0(K/min)/800›C

##Temp./›C,Time/min,Mass/%,Sensit./(uV/mW),Segment
 25.63600,   0.00000,    100,0.92268,1
 28.33700,   0.64000,     98.85255,0.92324,1
 31.04100,   1.28000,     99.14277,0.92374,1
 34.41300,   1.92000,     91.86171,0.92431,1
 38.28200,   2.56000,     91.46762,0.92486,1
 42.70400,   3.20000,     92.62200,0.92538,1
 47.76500,   3.84000,     93.32709,0.92582,1
 53.56400,   4.48000,     93.83177,0.92612,1
 60.03000,   5.12000,     94.28106,0.92620,1
 67.04800,   5.76000,     94.63585,0.92599,1
 74.42900,   6.40000,     94.99776,0.92544,1
 81.85400,   7.01917,     95.32709,0.92456,2
 85.71600,   7.33917,     95.37556,0.92397,2
 89.31200,   7.65917,     95.20733,0.92334,2
 92.50700,   7.97917,     94.83646,0.92272,2
 95.22300,   8.29917,     94.46762,0.92214,2
 97.48300,   8.61917,     94.02525,0.92163,2
 99.42700,   8.93917,     93.65438,0.92117,2
101.081,   9.25917,     93.36640,0.92076,2
102.587,   9.57917,     93.16130,0.92037,2
103.969,   9.89917,     92.94705,0.92000,2
105.216,  10.21917,     92.76965,0.91966,2
106.338,  10.53917,     92.56680,0.91935,2
107.299,  10.85917,     92.35947,0.91908,2
108.093,  11.17917,     92.11752,0.91885,2
108.721,  11.49917,     91.86640,0.91866,2
109.202,  11.81917,     91.64969,0.91852,2
109.55,  12.13917,     91.44929,0.91842,2
109.782,  12.45917,     91.20733,0.91835,2
109.935,  12.77917,     91.03462,0.91830,2
109.995,  13.09917,     90.85010,0.91828,2
109.969,  13.41917,     90.62444,0.91829,2
109.898,  13.73917,     90.45397,0.91831,2
109.75,  14.05917,     90.31324,0.91836,2
109.563,  14.37917,     90.14521,0.91841,2
109.314,  14.69917,     89.97699,0.91849,2
109.046,  15.01917,     89.83646,0.91857,2
108.727,  15.33917,     89.69572,0.91866,2
108.393,  15.65917,     89.43075,0.91876,2
108.026,  15.97917,     89.29491,0.91887,2
107.686,  16.29917,     89.19817,0.91896,2
107.295,  16.61917,     89.08513,0.91908,2
106.917,  16.93917,     89.01609,0.91919,2
106.264,  17.51917,     88.94705,0.91937,3
106.197,  18.15917,     89.32261,0.91939,3
106.928,  18.79917,     89.72118,0.91918,3
108.169,  19.43917,     90.01833,0.91882,3
109.775,  20.07917,     90.26029,0.91835,3
111.776,  20.71917,     90.53686,0.91773,3
114.2,  21.35917,     90.85010,0.91696,3
117.004,  21.99917,     91.14277,0.91603,3
120.113,  22.63917,     91.37332,0.91494,3
123.438,  23.27917,     91.57821,0.91373,3
126.951,  23.91917,     91.74644,0.91238,3
130.567,  24.55917,     92.00916,0.91093,3
134.299,  25.19917,     92.06456,0.90936,3
138.082,  25.83917,     92.14745,0.90769,3
141.871,  26.47917,     92.19572,0.90596,3
145.676,  27.11917,     92.25804,0.90415,3
149.445,  27.75917,     92.28574,0.90228,3
153.163,  28.39917,     92.34094,0.90038,3
156.838,  29.03917,     92.39633,0.89844,3
160.468,  29.67917,     92.38941,0.89646,3
164.021,  30.31917,     92.47230,0.89446,3
167.526,  30.95917,     92.46538,0.89244,3
170.975,  31.59917,     92.50000,0.89040,3
174.384,  32.23917,     92.50000,0.88834,3
177.74,  32.87917,     92.53910,0.88626,3
181.081,  33.51917,     92.56680,0.88415,3
184.385,  34.15917,     92.59450,0.88201,3
187.67,  34.79917,     92.63585,0.87985,3
190.925,  35.43917,     92.66354,0.87766,3
194.164,  36.07917,     92.66354,0.87545,3
197.376,  36.71917,     92.71894,0.87322,3
200.613,  37.35917,     92.71894,0.87093,3
203.81,  37.99917,     92.77413,0.86864,3
207.007,  38.63917,     92.80183,0.86631,3
210.186,  39.27917,     92.82953,0.86397,3
213.375,  39.91917,     92.82953,0.86158,3
216.573,  40.55917,     92.88473,0.85915,3
219.75,  41.19917,     92.91242,0.85671,3
222.922,  41.83917,     92.94012,0.85424,3
226.109,  42.47917,     92.96762,0.85173,3
229.286,  43.11917,     92.99084,0.84920,3
232.464,  43.75917,     93.02525,0.84664,3
235.647,  44.39917,     93.05295,0.84405,3
238.831,  45.03917,     93.08065,0.84144,3
242.005,  45.67917,     93.12200,0.83880,3
245.191,  46.31917,     93.12892,0.83614,3
248.366,  46.95917,     93.12892,0.83345,3
251.561,  47.59917,     93.14277,0.83073,3
254.751,  48.23917,     93.17047,0.82799,3
257.939,  48.87917,     93.18432,0.82523,3
261.132,  49.51917,     93.18432,0.82245,3
264.319,  50.15917,     93.19124,0.81965,3
267.522,  50.79917,     93.19124,0.81682,3
270.718,  51.43917,     93.15662,0.81397,3
273.888,  52.07917,     93.15662,0.81114,3
277.082,  52.71917,     93.12892,0.80826,3
280.278,  53.35917,     93.10835,0.80537,3
283.476,  53.99917,     93.07373,0.80245,3
286.642,  54.63917,     93.01833,0.79956,3
289.842,  55.27917,     92.99084,0.79662,3
293.018,  55.91917,     92.93544,0.79369,3
296.199,  56.55917,     92.85255,0.79074,3
300.633,  57.49917,     92.76965,0.78662,4
302.675,  59.09917,     92.21426,0.78471,4
303.37,  60.69917,     91.73035,0.78406,4
302.948,  62.29917,     91.29959,0.78445,4
302.318,  63.89917,     90.91711,0.78504,4
301.717,  65.49917,     90.62892,0.78560,4
301.219,  67.09917,     90.34094,0.78607,4
300.847,  68.69917,     90.07149,0.78642,4
300.591,  70.29917,     89.81568,0.78665,4
300.386,  71.89917,     89.56680,0.78685,4
300.256,  73.49917,     89.37088,0.78697,4
300.182,  75.09917,     89.16354,0.78704,4
300.124,  76.69917,     88.99756,0.78709,4
300.076,  78.29917,     88.77637,0.78714,4
300.048,  79.89917,     88.61752,0.78716,4
300.044,  81.49917,     88.45153,0.78716,4
300.027,  83.09917,     88.28574,0.78718,4
300.023,  84.69917,     88.11752,0.78718,4
300.011,  86.29917,     87.97923,0.78720,4
300.014,  87.89917,     87.83177,0.78719,4
300.014,  89.49917,     87.71894,0.78719,4
300.016,  91.09917,     87.58065,0.78719,4
300.006,  92.69917,     87.46314,0.78720,4
299.999,  94.29917,     87.35255,0.78721,4
300.013,  95.89917,     87.24196,0.78719,4
300.001,  97.49917,     87.15886,0.78721,4
300.012,  99.09917,     87.04827,0.78719,4
300.002, 100.699,     86.91018,0.78720,4
300.018, 102.299,     86.83401,0.78719,4
300.021, 103.899,     86.71894,0.78719,4
300.018, 105.499,     86.61507,0.78719,4
300.027, 107.099,     86.53218,0.78718,4
300.024, 108.699,     86.45621,0.78718,4
300.023, 110.299,     86.38248,0.78718,4
300.023, 111.899,     86.31324,0.78718,4
300.012, 113.499,     86.23503,0.78719,4
300.019, 115.099,     86.14277,0.78719,4
300.017, 116.699,     86.03218,0.78719,4
300.027, 118.299,     85.97006,0.78718,4
300.023, 119.899,     85.91466,0.78718,4
300.024, 121.499,     85.82485,0.78718,4
300.014, 123.099,     85.76945,0.78719,4
300.011, 124.699,     85.68656,0.78720,4
300, 126.299,     85.62444,0.78721,4
300.003, 127.899,     85.56212,0.78720,4
300.005, 129.499,     85.47923,0.78720,4
300.002, 131.099,     85.43768,0.78720,4
300.02, 132.699,     85.35479,0.78719,4
300.013, 134.299,     85.29715,0.78719,4
300.012, 135.899,     85.23503,0.78719,4
300.03, 137.499,     85.17963,0.78718,4
300.025, 139.099,     85.09674,0.78718,4
300.019, 140.699,     85.04134,0.78719,4
300.019, 142.299,     84.97006,0.78719,4
300.014, 143.899,     84.92159,0.78719,4
300.018, 145.499,     84.85947,0.78719,4
300.015, 147.099,     84.80407,0.78719,4
300.021, 148.699,     84.71894,0.78719,4
300.014, 150.299,     84.69124,0.78719,4
300.026, 151.899,     84.63585,0.78718,4
300.022, 153.499,     84.59450,0.78719,4
300.017, 155.099,     84.53910,0.78719,4
300.016, 156.699,     84.48615,0.78719,4
300.014, 158.299,     84.42383,0.78719,4
300.015, 159.899,     84.36864,0.78719,4
300.012, 161.499,     84.29939,0.78719,4
300.009, 163.099,     84.27189,0.78720,4
300.018, 164.699,     84.21650,0.78719,4
300.015, 166.299,     84.16823,0.78719,4
300.019, 167.899,     84.09898,0.78719,4
300.03, 169.499,     84.05071,0.78718,4
300.03, 171.099,     83.96762,0.78718,4
300.026, 172.699,     83.96069,0.78718,4
300.017, 174.299,     83.89165,0.78719,4
300.002, 175.899,     83.85010,0.78720,4
300.008, 177.499,     83.80876,0.78720,4
300.006, 179.099,     83.76029,0.78720,4
300.005, 180.699,     83.69124,0.78720,4
300.01, 182.299,     83.65662,0.78720,4
300.026, 183.899,     83.61507,0.78718,4
300.016, 185.499,     83.55988,0.78719,4
300.015, 187.099,     83.51833,0.78719,4
300.015, 188.699,     83.45845,0.78719,4
300.025, 190.299,     83.43075,0.78718,4
300.017, 191.899,     83.31324,0.78719,4
300.012, 193.499,     83.27882,0.78719,4
300.017, 195.099,     83.29939,0.78719,4
300.015, 196.699,     83.24196,0.78719,4
300.007, 198.299,     83.20041,0.78720,4
300.025, 199.899,     83.19348,0.78718,4
300.007, 201.499,     83.14501,0.78720,4
300.019, 203.099,     83.08982,0.78719,4
300.014, 204.699,     83.06212,0.78719,4
300.022, 206.299,     83.00692,0.78719,4
300.012, 207.899,     82.99308,0.78719,4
300.01, 209.499,     82.95153,0.78720,4
300.014, 211.099,     82.92383,0.78719,4
300.023, 212.699,     82.86864,0.78718,4
300.016, 214.299,     82.79267,0.78719,4
300.013, 215.899,     82.76497,0.78719,4
300.013, 217.499,     82.72342,0.78719,4
300.014, 219.099,     82.67515,0.78719,4
300.02, 220.699,     82.61059,0.78719,4
300.014, 222.299,     82.58289,0.78719,4
300.011, 223.899,     82.58289,0.78720,4
300.014, 225.499,     82.50692,0.78719,4
300.015, 227.099,     82.42383,0.78719,4
300.021, 228.699,     82.36864,0.78719,4
300.015, 230.299,     82.30876,0.78719,4
300.015, 231.899,     82.23951,0.78719,4
300.024, 233.499,     82.17739,0.78718,4
300.023, 235.099,     82.14277,0.78718,4
300, 236.699,     82.05988,0.78721,4
300.006, 238.299,     82.02525,0.78720,4
300.011, 239.899,     81.97006,0.78720,4
300.007, 241.499,     81.90081,0.78720,4
300.005, 243.099,     81.87312,0.78720,4
300.021, 244.699,     81.82485,0.78719,4
300.019, 246.299,     81.76721,0.78719,4
300.017, 247.899,     81.73951,0.78719,4
300.002, 249.499,     81.67047,0.78720,4
300.01, 251.099,     81.64969,0.78720,4
300.025, 252.699,     81.62200,0.78718,4
300.013, 254.299,     81.57597,0.78719,4
300.027, 255.899,     81.52077,0.78718,4
300.01, 257.499,     81.49308,0.78720,4
300.021, 259.099,     81.43768,0.78719,4
300.025, 260.699,     81.40998,0.78718,4
300.021, 262.299,     81.39389,0.78719,4
300.019, 263.899,     81.37312,0.78719,4
300.028, 265.499,     81.31792,0.78718,4
300.014, 267.099,     81.30183,0.78719,4
300.018, 268.699,     81.25336,0.78719,4
300.026, 270.299,     81.21874,0.78718,4
300.022, 271.899,     81.19124,0.78719,4
300.025, 273.499,     81.11976,0.78718,4
300.022, 275.099,     81.10591,0.78719,4
300.016, 276.699,     81.06436,0.78719,4
300.017, 278.299,     81.05295,0.78719,4
300.016, 279.899,     81.01141,0.78719,4
300.019, 281.499,     80.94236,0.78719,4
300.031, 283.099,     80.91242,0.78718,4
300.011, 284.699,     80.83177,0.78720,4
300.014, 286.299,     80.94460,0.78719,4
300.005, 287.899,     80.82953,0.78720,4
300.006, 289.499,     80.79715,0.78720,4
300.006, 291.099,     80.79715,0.78720,4
300.001, 292.699,     80.78330,0.78721,4
300.006, 294.299,     80.76253,0.78720,4
300.002, 295.899,     80.73503,0.78720,4
300.015, 297.499,     80.70733,0.78719,4
300.02, 299.099,     80.67963,0.78719,4
300.012, 300.699,     80.62444,0.78719,4
300.022, 302.299,     80.62444,0.78719,4
300.015, 303.899,     80.55519,0.78719,4
300.025, 305.499,     80.56436,0.78718,4
300.014, 307.099,     80.51609,0.78719,4
300.014, 308.699,     80.45377,0.78719,4
300.015, 310.299,     80.44012,0.78719,4
300.02, 311.899,     80.38004,0.78719,4
299.999, 313.499,     80.36640,0.78721,4
300.011, 315.099,     80.29715,0.78720,4
300.014, 316.699,     80.29715,0.78719,4
300.023, 318.299,     80.22342,0.78718,4
300.001, 319.899,     80.21426,0.78721,4
300.022, 321.499,     80.12444,0.78719,4
300.018, 323.099,     80.09674,0.78719,4
300.015, 324.699,     80.06212,0.78719,4
300.018, 326.299,     80.02077,0.78719,4
300.017, 327.899,     79.97230,0.78719,4
300.017, 329.499,     79.92159,0.78719,4
300.022, 331.099,     79.87312,0.78719,4
300.014, 332.699,     79.83870,0.78719,4
300.014, 334.299,     79.79939,0.78719,4
300.007, 335.899,     79.75804,0.78720,4
300.015, 337.499,     79.69817,0.78719,4
300.014, 339.099,     79.67739,0.78719,4
300.015, 340.699,     79.62892,0.78719,4
300.011, 342.299,     79.60122,0.78720,4
300.015, 343.899,     79.54603,0.78719,4
300.012, 345.499,     79.50916,0.78719,4
300.012, 347.099,     79.46762,0.78719,4
300.016, 348.699,     79.42851,0.78719,4
300, 350.299,     79.38004,0.78721,4
300.017, 351.899,     79.35255,0.78719,4
300.022, 353.499,     79.30631,0.78719,4
300.019, 355.099,     79.27189,0.78719,4
300.016, 356.699,     79.23727,0.78719,4
300.007, 358.299,     79.20957,0.78720,4
300.02, 359.899,     79.15438,0.78719,4
300.012, 361.499,     79.13360,0.78719,4
300.025, 363.099,     79.11283,0.78718,4
300.019, 364.699,     79.02749,0.78719,4
300.014, 366.299,     79.00000,0.78719,4
300.014, 367.899,     78.97230,0.78719,4
300.013, 369.499,     78.94460,0.78719,4
300.01, 371.099,     78.88941,0.78720,4
300.008, 372.699,     78.86864,0.78720,4
300.016, 374.299,     78.84094,0.78719,4
300.017, 375.899,     78.80631,0.78719,4
300.016, 377.499,     78.80631,0.78719,4
300.019, 379.099,     78.73035,0.78719,4
300.018, 380.699,     78.68880,0.78719,4
300.007, 382.299,     78.63360,0.78720,4
300.016, 383.899,     78.64053,0.78719,4
300.022, 385.499,     78.58513,0.78719,4
300.024, 387.099,     78.57128,0.78718,4
300.012, 388.699,     78.54379,0.78719,4
300.035, 390.299,     78.48147,0.78717,4
300.018, 391.899,     78.44929,0.78719,4
300.014, 393.499,     78.41466,0.78719,4
300.022, 395.099,     78.37312,0.78719,4
300.014, 396.699,     78.37312,0.78719,4
300.016, 398.299,     78.34562,0.78719,4
300.014, 399.899,     78.31100,0.78719,4
300.008, 401.499,     78.24888,0.78720,4
300.009, 403.099,     78.30876,0.78720,4
300.01, 404.699,     78.14745,0.78720,4
300.003, 406.299,     78.15438,0.78720,4
300.021, 407.899,     78.15438,0.78719,4
300.011, 409.499,     78.10367,0.78720,4
300.021, 411.099,     78.08289,0.78719,4
300.016, 412.699,     78.02077,0.78719,4
300.012, 414.299,     77.99756,0.78719,4
300.026, 415.899,     77.97454,0.78718,4
300.013, 417.499,     77.91935,0.78719,4
300.026, 419.099,     77.88697,0.78718,4
300.018, 420.699,     77.83177,0.78719,4
300.009, 422.299,     77.82485,0.78720,4
300.024, 423.899,     77.76029,0.78718,4
300.024, 425.499,     77.73259,0.78718,4
300.014, 427.099,     77.71874,0.78719,4
300.011, 428.699,     77.67047,0.78720,4
300.002, 430.299,     77.64053,0.78720,4
300.023, 431.899,     77.61283,0.78718,4
300.009, 433.499,     77.57128,0.78720,4
300.014, 435.099,     77.52301,0.78719,4
300.018, 436.699,     77.50224,0.78719,4
300.017, 438.299,     77.47454,0.78719,4
300.042, 439.899,     77.41242,0.78717,4
300.034, 441.499,     77.39165,0.78717,4
300.035, 443.099,     77.36395,0.78717,4
300.028, 444.699,     77.32933,0.78718,4
300.01, 446.299,     77.27882,0.78720,4
300.024, 447.899,     77.25112,0.78718,4
300.01, 449.499,     77.21650,0.78720,4
300.014, 451.099,     77.18880,0.78719,4
300.011, 452.699,     77.14745,0.78720,4
300.014, 454.299,     77.11976,0.78719,4
300.027, 455.899,     77.09206,0.78718,4
300.01, 457.499,     77.08513,0.78720,4
300.011, 459.099,     77.03686,0.78720,4
300.015, 460.699,     76.96762,0.78719,4
300.014, 462.299,     76.95377,0.78719,4
300.02, 463.899,     76.91242,0.78719,4
300.023, 465.499,     76.87088,0.78718,4
300.006, 467.099,     76.86864,0.78720,4
300.009, 468.699,     76.81324,0.78720,4
300.007, 470.299,     76.79939,0.78720,4
300.02, 471.899,     76.75112,0.78719,4
300.024, 473.499,     76.73727,0.78718,4
300.023, 475.099,     76.69572,0.78718,4
300.024, 476.699,     76.68656,0.78718,4
300.023, 478.299,     76.63809,0.78718,4
300.008, 479.899,     76.58289,0.78720,4
300.018, 481.499,     76.56212,0.78719,4
300.021, 483.099,     76.54134,0.78719,4
300.012, 484.699,     76.50692,0.78719,4
300.017, 486.299,     76.48615,0.78719,4
300.025, 487.899,     76.45153,0.78718,4
300.012, 489.499,     76.40326,0.78719,4
300.014, 491.099,     76.38248,0.78719,4
300.02, 492.699,     76.34094,0.78719,4
300.03, 494.299,     76.30876,0.78718,4
300.017, 495.899,     76.28106,0.78719,4
300.03, 497.499,     76.25336,0.78718,4
300.013, 499.099,     76.22566,0.78719,4
300.024, 500.699,     76.19817,0.78718,4
300.015, 502.299,     76.17739,0.78719,4
300.025, 503.899,     76.12892,0.78718,4
300.023, 505.499,     76.09450,0.78718,4
300.011, 507.099,     76.05988,0.78720,4
300.025, 508.699,     76.02525,0.78718,4
300.021, 510.299,     76.00448,0.78719,4
300.025, 511.899,     75.97699,0.78718,4
300.02, 513.499,     75.94236,0.78719,4
300.01, 515.099,     75.91466,0.78720,4
300.012, 516.699,     75.88004,0.78719,4
300.02, 518.299,     75.83870,0.78719,4
300.009, 519.899,     75.80407,0.78720,4
300.02, 521.499,     75.77637,0.78719,4
300.01, 523.099,     75.75560,0.78720,4
300.017, 524.699,     75.75112,0.78719,4
300.016, 526.299,     75.69572,0.78719,4
300.004, 527.899,     75.66130,0.78720,4
300.008, 529.499,     75.63360,0.78720,4
300.018, 531.099,     75.57821,0.78719,4
300.019, 532.699,     75.55071,0.78719,4
300.012, 534.299,     75.49532,0.78719,4
300.017, 535.899,     75.48839,0.78719,4
300.031, 537.499,     75.45845,0.78718,4
300.022, 539.099,     75.43075,0.78719,4
300.01, 540.699,     75.40998,0.78720,4
299.997, 542.299,     75.36619,0.78721,4
300.01, 543.899,     75.33177,0.78720,4
300.014, 545.499,     75.31100,0.78719,4
300.013, 547.099,     75.27637,0.78719,4
300.027, 548.699,     75.26945,0.78718,4
300.02, 550.299,     75.24420,0.78719,4
300.019, 551.899,     75.20265,0.78719,4
300.028, 553.499,     75.17495,0.78718,4
300.012, 555.099,     75.15886,0.78719,4
300.024, 556.699,     75.13136,0.78718,4
300.023, 558.299,     75.11752,0.78718,4
300.013, 559.899,     75.09674,0.78719,4
300.02, 561.499,     75.06212,0.78719,4
300.019, 563.099,     75.01385,0.78719,4
300.017, 564.699,     74.97230,0.78719,4
300.02, 566.299,     74.93768,0.78719,4
300.02, 567.899,     74.93544,0.78719,4
300.019, 569.499,     74.90774,0.78719,4
300.03, 571.099,     74.88004,0.78718,4
300.017, 572.699,     74.82485,0.78719,4
300.001, 574.299,     74.81792,0.78721,4
300.02, 575.899,     74.77189,0.78719,4
300.015, 577.499,     74.72118,0.78719,4
300.011, 579.099,     74.69348,0.78720,4
300.03, 580.699,     74.65193,0.78718,4
300.023, 582.299,     74.64745,0.78718,4
300.023, 583.899,     74.57821,0.78718,4
300.015, 585.499,     74.57821,0.78719,4
300.021, 587.099,     74.54379,0.78719,4
300.007, 588.699,     74.53686,0.78720,4
300.008, 590.299,     74.49756,0.78720,4
300.013, 591.899,     74.44929,0.78719,4
300.02, 593.499,     74.42159,0.78719,4
300.018, 595.099,     74.39389,0.78719,4
300.023, 596.699,     74.33870,0.78718,4
300.022, 598.299,     74.31792,0.78719,4
300.014, 599.899,     74.31100,0.78719,4
300.025, 601.499,     74.28330,0.78718,4
300.018, 603.099,     74.22811,0.78719,4
300.006, 604.699,     74.20041,0.78720,4
300.004, 606.299,     74.16354,0.78720,4
300.022, 607.899,     74.14277,0.78719,4
300.027, 609.499,     74.10815,0.78718,4
300.026, 611.099,     74.10815,0.78718,4
300.02, 612.699,     74.03910,0.78719,4
300.019, 614.299,     74.02525,0.78719,4
300.014, 615.899,     73.99756,0.78719,4
300.012, 617.499,     73.94236,0.78719,4
300.01, 619.099,     73.94236,0.78720,4
300.015, 620.699,     73.90081,0.78719,4
300.028, 622.299,     73.85255,0.78718,4
300.023, 623.899,     73.83870,0.78718,4
300.015, 625.499,     73.79715,0.78719,4
300.016, 627.099,     73.79715,0.78719,4
300.011, 628.699,     73.77637,0.78720,4
300.008, 630.299,     73.70509,0.78720,4
300.008, 631.899,     73.69817,0.78720,4
300.003, 633.499,     73.69124,0.78720,4
300.025, 635.099,     73.62892,0.78718,4
300.017, 636.699,     73.60122,0.78719,4
300.011, 638.299,     73.60122,0.78720,4
300.009, 639.899,     73.55295,0.78720,4
300.017, 641.499,     73.53686,0.78719,4
300.019, 643.099,     73.50224,0.78719,4
300.014, 644.699,     73.45377,0.78719,4
300.01, 646.299,     73.42627,0.78720,4
300.006, 647.899,     73.39165,0.78720,4
300.019, 649.499,     73.38697,0.78719,4
300.022, 651.099,     73.36619,0.78719,4
300.012, 652.699,     73.31792,0.78719,4
300.018, 654.299,     73.27413,0.78719,4
300.007, 655.899,     73.26029,0.78720,4
300.01, 657.499,     73.21181,0.78720,4
300.008, 659.099,     73.20509,0.78720,4
300.013, 660.699,     73.16354,0.78719,4
300.012, 662.299,     73.13585,0.78719,4
300.033, 663.899,     73.13585,0.78718,4
300.021, 665.499,     73.08758,0.78719,4
300.016, 667.099,     73.04603,0.78719,4
300.019, 668.699,     73.01141,0.78719,4
300.013, 670.299,     73.01833,0.78719,4
300.022, 671.899,     72.96314,0.78719,4
300.017, 673.499,     72.96314,0.78719,4
300.023, 675.099,     72.90774,0.78718,4
300.017, 676.699,     72.88004,0.78719,4
300.016, 678.299,     72.84318,0.78719,4
300.007, 679.899,     72.81568,0.78720,4
300.016, 681.499,     72.79022,0.78719,4
300.02, 683.099,     72.74196,0.78719,4
300.014, 684.699,     72.71426,0.78719,4
300.01, 686.299,     72.71426,0.78720,4
300.016, 687.899,     72.65886,0.78719,4
300.018, 689.499,     72.65886,0.78719,4
300.015, 691.099,     72.62444,0.78719,4
300.02, 692.699,     72.59674,0.78719,4
300.006, 694.299,     72.56212,0.78720,4
300.021, 695.899,     72.54134,0.78719,4
300.026, 697.499,     72.48615,0.78718,4
300.022, 699.099,     72.47678,0.78719,4
300.018, 700.699,     72.42159,0.78719,4
300.019, 702.299,     72.40081,0.78719,4
300.01, 703.899,     72.38004,0.78720,4
300.01, 705.499,     72.37088,0.78720,4
300.01, 707.099,     72.34318,0.78720,4
300.004, 708.699,     72.28798,0.78720,4
300.012, 710.299,     72.24196,0.78719,4
300.012, 711.899,     72.24196,0.78719,4
300.008, 713.499,     72.20957,0.78720,4
300.016, 715.099,     72.18880,0.78719,4
300.011, 716.699,     72.13360,0.78720,4
300.008, 718.299,     72.13585,0.78720,4
300.019, 719.899,     72.09430,0.78719,4
300.017, 721.499,     72.09430,0.78719,4
300.018, 723.099,     72.00916,0.78719,4
300.026, 724.699,     72.00916,0.78718,4
300.008, 726.299,     71.97230,0.78720,4
300.01, 727.899,     71.95153,0.78720,4
300.01, 729.499,     71.93075,0.78720,4
300.018, 731.099,     71.90774,0.78719,4
300.019, 732.699,     71.83401,0.78719,4
300.009, 734.299,     71.83870,0.78720,4
300.008, 735.899,     71.83870,0.78720,4
300.024, 737.499,     71.76945,0.78718,4
300.017, 739.099,     71.74868,0.78719,4
300.022, 740.699,     71.74196,0.78719,4
300.014, 742.299,     71.67963,0.78719,4
300.02, 743.899,     71.65662,0.78719,4
300.021, 745.499,     71.62200,0.78719,4
300.014, 747.099,     71.59430,0.78719,4
300.012, 748.699,     71.57373,0.78719,4
300.015, 750.299,     71.54379,0.78719,4
300.007, 751.899,     71.51609,0.78720,4
300.018, 753.499,     71.52301,0.78719,4
300.027, 755.099,     71.47454,0.78718,4
300.026, 756.699,     71.43320,0.78718,4
300.017, 758.299,     71.39857,0.78719,4
300.016, 759.899,     71.37088,0.78719,4
300.022, 761.499,     71.35703,0.78719,4
300.019, 763.099,     71.29491,0.78719,4
300.016, 764.699,     71.29491,0.78719,4
300.012, 766.299,     71.26029,0.78719,4
300.01, 767.899,     71.25804,0.78720,4
300.012, 769.499,     71.20265,0.78719,4
300.019, 771.099,     71.17963,0.78719,4
300.015, 772.699,     71.15193,0.78719,4
300.03, 774.299,     71.13809,0.78718,4
300.014, 775.899,     71.10367,0.78719,4
300.012, 777.499,     71.07597,0.78719,4
300.023, 779.099,     71.02749,0.78718,4
300.017, 780.699,     71.02057,0.78719,4
300.018, 782.299,     70.96538,0.78719,4
300.015, 783.899,     70.95845,0.78719,4
300.019, 785.499,     70.90305,0.78719,4
300.021, 787.099,     70.87556,0.78719,4
300.013, 788.699,     70.82016,0.78719,4
300.023, 790.299,     70.82709,0.78718,4
300.013, 791.899,     70.78554,0.78719,4
300.016, 793.499,     70.75804,0.78719,4
300.018, 795.099,     70.73727,0.78719,4
300.024, 796.699,     70.70265,0.78718,4
300.022, 798.299,     70.67495,0.78719,4
300.016, 799.899,     70.64745,0.78719,4
300.013, 801.499,     70.63360,0.78719,4
300.015, 803.099,     70.57821,0.78719,4
300.023, 804.699,     70.56436,0.78718,4
300.02, 806.299,     70.55743,0.78719,4
300.014, 807.899,     70.48839,0.78719,4
300.03, 809.499,     70.46069,0.78718,4
300.027, 811.099,     70.43992,0.78718,4
300.01, 812.699,     70.42627,0.78720,4
300.017, 814.299,     70.39857,0.78719,4
300.021, 815.899,     70.37088,0.78719,4
300.014, 817.499,     70.34094,0.78719,4
300.011, 819.099,     70.31100,0.78720,4
300.014, 820.699,     70.25336,0.78719,4
300.018, 822.299,     70.26029,0.78719,4
300.018, 823.899,     70.23259,0.78719,4
300.02, 825.499,     70.19124,0.78719,4
300.016, 827.099,     70.15886,0.78719,4
300.01, 828.699,     70.13116,0.78720,4
300.016, 830.299,     70.12444,0.78719,4
300.026, 831.899,     70.06904,0.78718,4
300.01, 833.499,     70.04134,0.78720,4
300.025, 835.099,     70.01365,0.78718,4
300.02, 836.699,     70.02525,0.78719,4
300.021, 838.299,     69.99063,0.78719,4
300.009, 839.899,     69.96314,0.78720,4
300.016, 841.499,     69.90774,0.78719,4
300.001, 843.099,     69.89389,0.78721,4
300.013, 844.699,     69.87312,0.78719,4
300.01, 846.299,     69.81792,0.78720,4
300.012, 847.899,     69.79715,0.78719,4
300.014, 849.499,     69.76945,0.78719,4
300.011, 851.099,     69.72118,0.78720,4
300.018, 852.699,     69.68656,0.78719,4
300.004, 854.299,     69.65886,0.78720,4
300.008, 855.899,     69.64501,0.78720,4
300.02, 857.499,     69.59898,0.78719,4
300, 859.099,     69.57128,0.78721,4
300.016, 860.699,     69.54379,0.78719,4
300.013, 862.299,     69.50224,0.78719,4
300.012, 863.899,     69.44460,0.78719,4
300.015, 865.499,     69.43544,0.78719,4
300.015, 867.099,     69.43544,0.78719,4
300.022, 868.699,     69.38004,0.78719,4
300.012, 870.299,     69.35927,0.78719,4
300.014, 871.899,     69.31792,0.78719,4
300.017, 873.499,     69.31100,0.78719,4
300.036, 875.099,     69.25560,0.78717,4
300.022, 876.699,     69.20041,0.78719,4
300.014, 878.299,     69.18656,0.78719,4
300.01, 879.899,     69.16578,0.78720,4
300.02, 881.499,     69.13809,0.78719,4
300.016, 883.099,     69.09674,0.78719,4
300.011, 884.699,     69.08289,0.78720,4
300.01, 886.299,     69.05519,0.78720,4
300.025, 887.899,     69.02057,0.78718,4
300.012, 889.499,     69.00000,0.78719,4
300.007, 891.099,     68.93768,0.78720,4
300.018, 892.699,     68.92383,0.78719,4
300.02, 894.299,     68.90998,0.78719,4
300.022, 895.899,     68.85479,0.78719,4
300.021, 897.499,     68.84094,0.78719,4
300.014, 899.099,     68.79246,0.78719,4
300.016, 900.699,     68.77189,0.78719,4
300.007, 902.299,     68.76253,0.78720,4
300.015, 903.899,     68.74175,0.78719,4
300.012, 905.499,     68.69348,0.78719,4
300.021, 907.099,     68.67963,0.78719,4
300.016, 908.699,     68.64501,0.78719,4
300.024, 910.299,     68.60367,0.78718,4
300.023, 911.899,     68.60122,0.78718,4
300.024, 913.499,     68.57128,0.78718,4
300.021, 915.099,     68.51609,0.78719,4
300.011, 916.699,     68.48839,0.78720,4
300.004, 918.299,     68.47678,0.78720,4
300.008, 919.899,     68.42159,0.78720,4
300.01, 921.499,     68.39389,0.78720,4
300.012, 923.099,     68.36619,0.78719,4
300.014, 924.699,     68.33870,0.78719,4
300.009, 926.299,     68.31100,0.78720,4
300.008, 927.899,     68.29022,0.78720,4
300.019, 929.499,     68.24175,0.78719,4
300.011, 931.099,     68.24175,0.78720,4
300.002, 932.699,     68.18656,0.78720,4
300.015, 934.299,     68.15193,0.78719,4
300.017, 935.899,     68.13116,0.78719,4
300.013, 937.499,     68.10122,0.78719,4
300.032, 939.099,     68.08737,0.78718,4
300.033, 940.699,     68.05988,0.78718,4
300.021, 942.299,     68.02525,0.78719,4
300.022, 943.899,     68.01141,0.78719,4
300.02, 945.499,     67.96986,0.78719,4
300.017, 947.099,     67.94929,0.78719,4
300.022, 948.699,     67.90081,0.78719,4
300.02, 950.299,     67.88697,0.78719,4
300.026, 951.899,     67.85255,0.78718,4
300.023, 953.499,     67.82485,0.78718,4
300.019, 955.099,     67.76253,0.78719,4
300.016, 956.699,     67.73503,0.78719,4
300.015, 958.299,     67.71426,0.78719,4
300.019, 959.899,     67.71426,0.78719,4
300.023, 961.499,     67.66110,0.78718,4
300.024, 963.099,     67.61283,0.78718,4
300.007, 964.699,     67.61283,0.78720,4
300.018, 966.299,     67.55743,0.78719,4
300.021, 967.899,     67.53686,0.78719,4
300.015, 969.499,     67.49532,0.78719,4
300.016, 971.099,     67.46762,0.78719,4
300.015, 972.699,     67.45377,0.78719,4
300.008, 974.299,     67.39857,0.78720,4
300.009, 975.899,     67.36395,0.78720,4
300.015, 977.499,     67.33625,0.78719,4
300.03, 979.099,     67.30876,0.78718,4
300.015, 980.699,     67.27413,0.78719,4
300.015, 982.299,     67.23951,0.78719,4
300.022, 983.899,     67.17739,0.78719,4
300.004, 985.499,     67.18432,0.78720,4
300.015, 987.099,     67.14277,0.78719,4
300.028, 988.699,     67.10122,0.78718,4
300.01, 990.299,     67.09430,0.78720,4
299.998, 991.899,     67.05295,0.78721,4
300.013, 993.499,     67.00448,0.78719,4
300.014, 995.099,     66.96314,0.78719,4
300.01, 996.699,     66.95621,0.78720,4
300.024, 998.299,     66.92851,0.78718,4
300.012, 999.899,     66.88004,0.78719,4
300.028,1001.5,     66.85234,0.78718,4
300.015,1003.1,     66.81792,0.78719,4
300.017,1004.7,     66.78798,0.78719,4
300.023,1006.3,     66.76721,0.78718,4
300.012,1007.9,     66.73259,0.78719,4
300.015,1009.5,     66.69817,0.78719,4
300.015,1011.1,     66.69817,0.78719,4
300.016,1012.7,     66.65662,0.78719,4
300.017,1014.3,     66.62200,0.78719,4
300.011,1015.9,     66.59430,0.78720,4
300.013,1017.5,     66.55295,0.78719,4
300.008,1019.1,     66.51141,0.78720,4
300.013,1020.7,     66.49756,0.78719,4
300.02,1022.3,     66.48371,0.78719,4
300.018,1023.9,     66.45621,0.78719,4
300.023,1025.5,     66.40550,0.78718,4
300.014,1027.1,     66.38473,0.78719,4
300.012,1028.7,     66.36864,0.78719,4
300.013,1030.3,     66.33870,0.78719,4
300.02,1031.9,     66.29715,0.78719,4
300.013,1033.5,     66.26945,0.78719,4
300.022,1035.1,     66.23503,0.78719,4
300.006,1036.7,     66.20733,0.78720,4
300.019,1038.3,     66.17963,0.78719,4
300.023,1039.9,     66.17271,0.78718,4
300.022,1041.5,     66.11752,0.78719,4
300.012,1043.1,     66.08982,0.78719,4
300.021,1044.7,     66.04134,0.78719,4
300.01,1046.3,     66.01365,0.78720,4
300.028,1047.9,     65.97923,0.78718,4
300.022,1049.5,     65.95153,0.78719,4
300.02,1051.1,     65.92383,0.78719,4
300.017,1052.7,     65.89613,0.78719,4
300.014,1054.3,     65.87556,0.78719,4
300.01,1055.9,     65.83401,0.78720,4
300.029,1057.5,     65.80631,0.78718,4
300.011,1059.1,     65.76253,0.78720,4
300.024,1060.7,     65.75560,0.78718,4
300.017,1062.3,     65.72811,0.78719,4
300.005,1063.9,     65.67963,0.78720,4
300.017,1065.5,     65.64745,0.78719,4
300.013,1067.1,     65.61976,0.78719,4
300.004,1068.7,     65.56436,0.78720,4
300.011,1070.3,     65.54358,0.78720,4
300.007,1071.9,     65.52994,0.78720,4
300.014,1073.5,     65.48147,0.78719,4
300.014,1075.1,     65.45377,0.78719,4
300.019,1076.7,     65.43768,0.78719,4
300.021,1078.3,     65.38248,0.78719,4
300.015,1079.9,     65.36171,0.78719,4
300.026,1081.5,     65.33401,0.78718,4
300.01,1083.1,     65.30631,0.78720,4
300.005,1084.7,     65.27862,0.78720,4
300.01,1086.3,     65.25112,0.78720,4
300.01,1087.9,     65.19572,0.78720,4
300.021,1089.5,     65.19572,0.78719,4
300.025,1091.1,     65.16802,0.78718,4
300.015,1092.7,     65.12668,0.78719,4
300.014,1094.3,     65.11283,0.78719,4
300.012,1095.9,     65.08513,0.78719,4
300.028,1097.5,     65.07128,0.78718,4
300.02,1099.1,     65.01609,0.78719,4
300.02,1100.7,     64.98147,0.78719,4
300.016,1102.3,     64.95377,0.78719,4
300.012,1103.9,     64.90550,0.78719,4
300.013,1105.5,     64.89165,0.78719,4
300.016,1107.1,     64.86395,0.78719,4
300.015,1108.7,     64.83625,0.78719,4
300.014,1110.3,     64.80876,0.78719,4
300.019,1111.9,     64.80183,0.78719,4
300.007,1113.5,     64.75560,0.78720,4
300.03,1115.1,     64.74175,0.78718,4
300.025,1116.7,     64.69348,0.78718,4
300.015,1118.3,     64.66578,0.78719,4
300.019,1119.9,     64.61059,0.78719,4
300.02,1121.5,     64.58289,0.78719,4
300.014,1123.1,     64.55519,0.78719,4
300.015,1124.7,     64.53442,0.78719,4
300.01,1126.3,     64.49308,0.78720,4
300.012,1127.9,     64.45153,0.78719,4
300.017,1129.5,     64.43075,0.78719,4
300.023,1131.1,     64.40998,0.78718,4
300.006,1132.7,     64.39613,0.78720,4
300.019,1134.3,     64.35479,0.78719,4
300.01,1135.9,     64.30631,0.78720,4
300.02,1137.5,     64.30631,0.78719,4
300.032,1139.1,     64.27862,0.78718,4
300.025,1140.7,     64.25112,0.78718,4
300.006,1142.3,     64.23035,0.78720,4
300.019,1143.9,     64.16802,0.78719,4
300.014,1145.5,     64.14053,0.78719,4
300.01,1147.1,     64.11976,0.78720,4
300.022,1148.7,     64.09206,0.78719,4
300.011,1150.3,     64.05743,0.78720,4
300.015,1151.9,     64.02994,0.78719,4
300.009,1153.5,     64.01609,0.78720,4
300.011,1155.1,     63.96069,0.78720,4
300.022,1156.7,     63.93992,0.78719,4
300.005,1158.3,     63.90550,0.78720,4
300.003,1159.9,     63.89857,0.78720,4
300.016,1161.5,     63.87088,0.78719,4
300.006,1163.1,     63.79491,0.78720,4
300.009,1164.7,     63.80876,0.78720,4
300.026,1166.3,     63.78330,0.78718,4
300.035,1167.9,     63.74868,0.78717,4
300.024,1169.5,     63.70041,0.78718,4
300.016,1171.1,     63.66578,0.78719,4
300.018,1172.7,     63.63809,0.78719,4
300.015,1174.3,     63.61059,0.78719,4
300.019,1175.9,     63.56904,0.78719,4
300.005,1177.5,     63.55295,0.78720,4
300.002,1179.1,     63.52525,0.78720,4
300.002,1180.7,     63.46986,0.78720,4
300.007,1182.3,     63.47678,0.78720,4
300.017,1183.9,     63.41466,0.78719,4
300.04,1185.5,     63.40081,0.78717,4
300.029,1187.1,     63.37312,0.78718,4
300.01,1188.7,     63.33177,0.78720,4
300.011,1190.3,     63.29715,0.78720,4
300.017,1191.9,     63.28330,0.78719,4
300.023,1193.5,     63.23483,0.78718,4
300.015,1195.1,     63.23483,0.78719,4
300.014,1196.7,     63.20733,0.78719,4
300.032,1198.3,     63.17963,0.78718,4
300.015,1199.9,     63.13116,0.78719,4
300.017,1201.5,     63.12200,0.78719,4
300.029,1203.1,     63.09430,0.78718,4
300.019,1204.7,     63.04358,0.78719,4
300.013,1206.3,     63.00916,0.78719,4
300.016,1207.9,     63.00224,0.78719,4
300.024,1209.5,     62.96069,0.78718,4
300.018,1211.1,     62.94684,0.78719,4
300.017,1212.7,     62.91242,0.78719,4
300.013,1214.3,     62.88473,0.78719,4
300.018,1215.9,     62.85703,0.78719,4
300.013,1217.5,     62.81548,0.78719,4
300.022,1219.1,     62.77413,0.78719,4
300.005,1220.7,     62.73259,0.78720,4
300.013,1222.3,     62.70265,0.78719,4
300.014,1223.9,     62.68432,0.78719,4
300.026,1225.5,     62.66354,0.78718,4
300.02,1227.1,     62.63809,0.78719,4
300.02,1228.7,     62.55988,0.78719,4
300.03,1230.3,     62.55295,0.78718,4
300.018,1231.9,     62.53218,0.78719,4
300.027,1233.5,     62.47678,0.78718,4
300.02,1235.1,     62.45621,0.78719,4
300.014,1236.7,     62.42159,0.78719,4
300.014,1238.3,     62.42159,0.78719,4
300.016,1239.9,     62.35927,0.78719,4
300.023,1241.5,     62.33177,0.78718,4
300.012,1243.1,     62.29715,0.78719,4
300.022,1244.7,     62.28330,0.78719,4
300.019,1246.3,     62.25560,0.78719,4
300.019,1247.9,     62.21426,0.78719,4
300.018,1249.5,     62.20733,0.78719,4
300.016,1251.1,     62.17271,0.78719,4
300.018,1252.7,     62.13116,0.78719,4
300.008,1254.3,     62.08289,0.78720,4
300.003,1255.9,     62.08513,0.78720,4
300.018,1257.02,     62.05743,0.78719,5
300.03,1257.1,     62.05743,0.78718,5
300.08,1257.18,     62.05743,0.78713,5
300.202,1257.26,     62.08513,0.78702,5
300.416,1257.34,     62.17963,0.78682,5
300.754,1257.42,     62.29491,0.78650,5
301.211,1257.5,     62.43544,0.78608,5
301.814,1257.58,     62.60367,0.78551,5
302.541,1257.66,     62.74868,0.78483,5
303.417,1257.74,     62.95377,0.78402,5
304.4,1257.82,     63.13116,0.78310,5
305.513,1257.9,     63.23035,0.78205,5
306.724,1257.98,     63.40998,0.78092,5
308.01,1258.06,     63.57128,0.77971,5
309.372,1258.14,     63.69348,0.77843,5
310.788,1258.22,     63.83870,0.77710,5
312.232,1258.3,     63.90998,0.77574,5
313.696,1258.38,     64.00224,0.77435,5
315.162,1258.46,     64.03442,0.77297,5
316.619,1258.54,     64.12424,0.77159,5
318.087,1258.62,     64.18432,0.77020,5
319.499,1258.7,     64.18432,0.76887,5
320.925,1258.78,     64.23951,0.76752,5
322.305,1258.86,     64.23951,0.76621,5
323.673,1258.94,     64.23951,0.76491,5
325.033,1259.02,     64.23951,0.76362,5
326.377,1259.1,     64.26721,0.76234,5
327.711,1259.18,     64.26721,0.76107,5
329.033,1259.26,     64.29491,0.75981,5
330.37,1259.34,     64.29491,0.75854,5
331.714,1259.42,     64.32240,0.75726,5
333.081,1259.5,     64.35010,0.75596,5
334.458,1259.58,     64.35703,0.75465,5
335.863,1259.66,     64.39165,0.75331,5
337.297,1259.74,     64.40550,0.75194,5
338.772,1259.82,     64.46069,0.75053,5
340.266,1259.9,     64.48839,0.74910,5
341.798,1259.98,     64.51833,0.74764,5
343.362,1260.06,     64.55988,0.74615,5
344.95,1260.14,     64.60591,0.74463,5
346.581,1260.22,     64.60591,0.74308,5
348.214,1260.3,     64.66354,0.74152,5
349.883,1260.38,     64.69124,0.73992,5
351.572,1260.46,     64.72566,0.73831,5
353.269,1260.54,     64.74644,0.73669,5
354.987,1260.62,     64.74644,0.73505,5
356.701,1260.7,     64.77413,0.73342,5
358.431,1260.78,     64.77413,0.73177,5
360.171,1260.86,     64.77413,0.73011,5
361.903,1260.94,     64.74644,0.72846,5
363.644,1261.02,     64.74644,0.72680,5
365.371,1261.1,     64.71874,0.72516,5
367.094,1261.18,     64.69124,0.72352,5
368.835,1261.26,     64.66354,0.72187,5
370.554,1261.34,     64.60591,0.72024,5
372.291,1261.42,     64.57821,0.71859,5
374.02,1261.5,     64.52057,0.71695,5
375.758,1261.58,     64.42383,0.71530,5
377.483,1261.66,     64.32485,0.71367,5
379.215,1261.74,     64.21650,0.71204,5
380.947,1261.82,     64.10815,0.71040,5
382.675,1261.9,     63.96069,0.70877,5
384.422,1261.98,     63.80631,0.70713,5
386.159,1262.06,     63.63585,0.70549,5
387.902,1262.14,     63.38004,0.70386,5
389.632,1262.22,     63.15438,0.70224,5
391.38,1262.3,     62.87088,0.70060,5
393.13,1262.38,     62.53910,0.69896,5
394.881,1262.46,     62.20489,0.69733,5
396.645,1262.54,     61.78798,0.69568,5
398.389,1262.62,     61.30183,0.69406,5
400.139,1262.7,     60.79246,0.69244,5
401.887,1262.78,     60.22118,0.69082,5
403.641,1262.86,     59.59898,0.68919,5
405.405,1262.94,     58.94236,0.68756,5
407.148,1263.02,     58.11507,0.68596,5
408.899,1263.1,     57.29715,0.68434,5
410.648,1263.18,     56.35234,0.68274,5
412.399,1263.26,     55.30163,0.68113,5
414.144,1263.34,     54.13116,0.67954,5
415.881,1263.42,     52.83625,0.67795,5
417.607,1263.5,     51.38228,0.67638,5
419.349,1263.58,     49.82485,0.67480,5
421.09,1263.66,     48.05967,0.67322,5
422.816,1263.74,     46.19572,0.67166,5
424.549,1263.82,     44.08513,0.67010,5
426.272,1263.9,     41.77169,0.66855,5
427.999,1263.98,     39.40530,0.66700,5
429.717,1264.06,     36.80163,0.66546,5
431.429,1264.14,     34.04827,0.66393,5
433.151,1264.22,     31.19104,0.66240,5
434.853,1264.3,     28.26477,0.66089,5
436.578,1264.38,     25.22098,0.65936,5
438.29,1264.46,     22.19572,0.65784,5
439.986,1264.54,     19.17026,0.65635,5
441.704,1264.62,     16.22566,0.65484,5
443.406,1264.7,     13.37536,0.65335,5
445.111,1264.78,     10.74399,0.65186,5
446.8,1264.86,      8.27169,0.65039,5
448.499,1264.94,      6.04582,0.64891,5
450.189,1265.02,      4.10346,0.64745,5
451.89,1265.1,      2.43055,0.64598,5
453.58,1265.18,      1.04114,0.64453,5
455.27,1265.26,     -0.11996,0.64308,5
456.952,1265.34,     -0.99328,0.64164,5
458.64,1265.42,     -1.74216,0.64020,5
460.333,1265.5,     -2.25601,0.63876,5
462.015,1265.58,     -2.77902,0.63733,5
463.71,1265.66,     -3.07637,0.63590,5
465.398,1265.74,     -3.32974,0.63448,5
467.094,1265.82,     -3.55560,0.63306,5
468.783,1265.9,     -3.73523,0.63165,5
470.483,1265.98,     -3.81365,0.63023,5
472.167,1266.06,     -3.94033,0.62883,5
473.853,1266.14,     -3.98411,0.62744,5
475.517,1266.22,     -4.04175,0.62607,5
477.207,1266.3,     -4.08330,0.62468,5
478.878,1266.38,     -4.12016,0.62331,5
480.549,1266.46,     -4.17312,0.62195,5
482.21,1266.54,     -4.18004,0.62060,5
483.878,1266.62,     -4.20081,0.61925,5
485.53,1266.7,     -4.20081,0.61792,5
487.195,1266.78,     -4.20081,0.61658,5
488.856,1266.86,     -4.20081,0.61525,5
490.515,1266.94,     -4.18004,0.61393,5
492.176,1267.02,     -4.18004,0.61261,5
493.819,1267.1,     -4.18004,0.61131,5
495.484,1267.18,     -4.18004,0.60999,5
497.132,1267.26,     -4.15927,0.60870,5
498.782,1267.34,     -4.14542,0.60741,5
500.418,1267.42,     -4.14542,0.60613,5
502.07,1267.5,     -4.13849,0.60485,5
503.724,1267.58,     -4.09002,0.60357,5
505.361,1267.66,     -4.11772,0.60231,5
506.994,1267.74,     -4.08778,0.60106,5
508.641,1267.82,     -4.06008,0.59980,5
510.281,1267.9,     -4.03259,0.59855,5
511.916,1267.98,     -4.03259,0.59731,5
513.561,1268.06,     -4.00489,0.59607,5
515.187,1268.14,     -3.98411,0.59485,5
516.818,1268.22,     -3.97719,0.59363,5
518.461,1268.3,     -3.94949,0.59240,5
520.093,1268.38,     -3.92200,0.59119,5
521.728,1268.46,     -3.92200,0.58998,5
523.352,1268.54,     -3.89430,0.58879,5
524.975,1268.62,     -3.86660,0.58760,5
526.59,1268.7,     -3.85967,0.58642,5
528.225,1268.78,     -3.83890,0.58523,5
529.859,1268.86,     -3.81141,0.58405,5
531.484,1268.94,     -3.81141,0.58288,5
533.103,1269.02,     -3.78371,0.58172,5
534.736,1269.1,     -3.78371,0.58056,5
536.351,1269.18,     -3.75601,0.57941,5
537.98,1269.26,     -3.75601,0.57825,5
539.592,1269.34,     -3.72831,0.57712,5
541.22,1269.42,     -3.72831,0.57598,5
542.841,1269.5,     -3.70081,0.57484,5
544.475,1269.58,     -3.67312,0.57371,5
546.09,1269.66,     -3.64542,0.57259,5
547.702,1269.74,     -3.64542,0.57148,5
549.339,1269.82,     -3.64542,0.57036,5
550.953,1269.9,     -3.61772,0.56926,5
552.569,1269.98,     -3.59002,0.56816,5
554.186,1270.06,     -3.56253,0.56706,5
555.805,1270.14,     -3.54868,0.56597,5
557.418,1270.22,     -3.53483,0.56489,5
559.03,1270.3,     -3.50713,0.56382,5
560.636,1270.38,     -3.47943,0.56275,5
562.257,1270.46,     -3.47943,0.56168,5
563.862,1270.54,     -3.45193,0.56062,5
565.484,1270.62,     -3.42424,0.55956,5
567.093,1270.7,     -3.42424,0.55851,5
568.705,1270.78,     -3.43809,0.55747,5
570.327,1270.86,     -3.41039,0.55642,5
571.933,1270.94,     -3.38269,0.55539,5
573.551,1271.02,     -3.38269,0.55435,5
575.161,1271.1,     -3.32749,0.55333,5
576.77,1271.18,     -3.32749,0.55231,5
578.392,1271.26,     -3.32749,0.55128,5
580.006,1271.34,     -3.29756,0.55027,5
581.623,1271.42,     -3.26986,0.54926,5
583.233,1271.5,     -3.26986,0.54826,5
584.856,1271.58,     -3.26986,0.54725,5
586.472,1271.66,     -3.24216,0.54626,5
588.092,1271.74,     -3.21446,0.54527,5
589.709,1271.82,     -3.21446,0.54428,5
591.319,1271.9,     -3.18697,0.54330,5
592.935,1271.98,     -3.18697,0.54232,5
594.548,1272.06,     -3.18004,0.54135,5
596.157,1272.14,     -3.13849,0.54039,5
597.772,1272.22,     -3.13157,0.53943,5
599.399,1272.3,     -3.10387,0.53846,5
600.996,1272.38,     -3.10387,0.53752,5
602.607,1272.46,     -3.07637,0.53658,5
604.218,1272.54,     -3.05560,0.53564,5
605.842,1272.62,     -3.05560,0.53469,5
607.449,1272.7,     -3.04175,0.53376,5
609.059,1272.78,     -3.02098,0.53283,5
610.676,1272.86,     -3.02098,0.53191,5
612.282,1272.94,     -2.99328,0.53099,5
613.905,1273.02,     -2.99328,0.53007,5
615.515,1273.1,     -2.93809,0.52916,5
617.111,1273.18,     -2.93809,0.52826,5
618.729,1273.26,     -2.91039,0.52735,5
620.336,1273.34,     -2.91039,0.52646,5
621.948,1273.42,     -2.88269,0.52557,5
623.567,1273.5,     -2.88269,0.52467,5
625.169,1273.58,     -2.85499,0.52379,5
626.783,1273.66,     -2.85499,0.52291,5
628.398,1273.74,     -2.82749,0.52203,5
629.998,1273.82,     -2.82749,0.52116,5
631.611,1273.9,     -2.79980,0.52029,5
633.222,1273.98,     -2.77210,0.51943,5
634.834,1274.06,     -2.77210,0.51857,5
636.439,1274.14,     -2.74440,0.51771,5
638.053,1274.22,     -2.74440,0.51686,5
639.662,1274.3,     -2.71690,0.51601,5
641.268,1274.38,     -2.71690,0.51517,5
642.881,1274.46,     -2.71690,0.51433,5
644.485,1274.54,     -2.69613,0.51349,5
646.098,1274.62,     -2.69613,0.51266,5
647.704,1274.7,     -2.68921,0.51183,5
649.321,1274.78,     -2.66151,0.51100,5
650.925,1274.86,     -2.66151,0.51018,5
652.545,1274.94,     -2.63381,0.50936,5
654.145,1275.02,     -2.60631,0.50855,5
655.765,1275.1,     -2.60631,0.50773,5
657.371,1275.18,     -2.60631,0.50693,5
658.985,1275.26,     -2.57862,0.50612,5
660.589,1275.34,     -2.57862,0.50532,5
662.198,1275.42,     -2.55092,0.50453,5
663.811,1275.5,     -2.55092,0.50373,5
665.403,1275.58,     -2.51874,0.50295,5
667.018,1275.66,     -2.51874,0.50216,5
668.612,1275.74,     -2.49104,0.50138,5
670.215,1275.82,     -2.49104,0.50061,5
671.825,1275.9,     -2.49104,0.49983,5
673.429,1275.98,     -2.49104,0.49906,5
675.027,1276.06,     -2.46334,0.49829,5
676.648,1276.14,     -2.43564,0.49752,5
678.257,1276.22,     -2.43564,0.49676,5
679.865,1276.3,     -2.40815,0.49599,5
681.467,1276.38,     -2.38045,0.49524,5
683.085,1276.46,     -2.37352,0.49448,5
684.682,1276.54,     -2.35275,0.49373,5
686.302,1276.62,     -2.32505,0.49298,5
687.918,1276.7,     -2.32505,0.49223,5
689.521,1276.78,     -2.32505,0.49149,5
691.129,1276.86,     -2.30448,0.49075,5
692.741,1276.94,     -2.29756,0.49001,5
694.353,1277.02,     -2.28371,0.48927,5
695.97,1277.1,     -2.26986,0.48853,5
697.578,1277.18,     -2.24216,0.48780,5
699.185,1277.26,     -2.24216,0.48707,5
700.798,1277.34,     -2.24216,0.48635,5
702.409,1277.42,     -2.21446,0.48562,5
704.024,1277.5,     -2.18697,0.48490,5
705.636,1277.58,     -2.18697,0.48418,5
707.239,1277.66,     -2.15927,0.48347,5
708.859,1277.74,     -2.15927,0.48275,5
710.473,1277.82,     -2.15927,0.48204,5
712.084,1277.9,     -2.12933,0.48133,5
713.702,1277.98,     -2.12933,0.48061,5
715.31,1278.06,     -2.12933,0.47991,5
716.925,1278.14,     -2.10163,0.47921,5
718.541,1278.22,     -2.10163,0.47850,5
720.152,1278.3,     -2.06008,0.47780,5
721.759,1278.38,     -2.04623,0.47711,5
723.374,1278.46,     -2.04623,0.47641,5
724.986,1278.54,     -2.04623,0.47572,5
726.599,1278.62,     -2.01874,0.47503,5
728.211,1278.7,     -2.01874,0.47434,5
729.808,1278.78,     -1.99104,0.47365,5
731.42,1278.86,     -1.99104,0.47297,5
733.032,1278.94,     -1.96334,0.47228,5
734.644,1279.02,     -1.96334,0.47160,5
736.261,1279.1,     -1.93564,0.47092,5
737.869,1279.18,     -1.93564,0.47024,5
739.496,1279.26,     -1.90815,0.46956,5
741.1,1279.34,     -1.88737,0.46888,5
742.718,1279.42,     -1.88045,0.46821,5
744.342,1279.5,     -1.88045,0.46753,5
745.957,1279.58,     -1.85275,0.46685,5
747.564,1279.66,     -1.82505,0.46619,5
749.179,1279.74,     -1.82505,0.46552,5
750.794,1279.82,     -1.79756,0.46485,5
752.414,1279.9,     -1.79756,0.46418,5
754.033,1279.98,     -1.76986,0.46351,5
755.635,1280.06,     -1.78371,0.46285,5
757.251,1280.14,     -1.78371,0.46218,5
758.855,1280.22,     -1.75601,0.46152,5
760.472,1280.3,     -1.72831,0.46086,5
762.084,1280.38,     -1.72831,0.46020,5
763.691,1280.46,     -1.72831,0.45954,5
765.301,1280.54,     -1.68921,0.45889,5
766.912,1280.62,     -1.63625,0.45823,5
768.52,1280.7,     -1.66375,0.45758,5
770.131,1280.78,     -1.63625,0.45692,5
771.743,1280.86,     -1.61548,0.45627,5
773.356,1280.94,     -1.60855,0.45561,5
774.961,1281.02,     -1.60855,0.45496,5
776.585,1281.1,     -1.58086,0.45431,5
778.189,1281.18,     -1.58086,0.45366,5
779.798,1281.26,     -1.55316,0.45301,5
781.417,1281.34,     -1.52566,0.45235,5
783.029,1281.42,     -1.52566,0.45170,5
784.636,1281.5,     -1.55316,0.45106,5
786.261,1281.58,     -1.52566,0.45040,5
787.87,1281.66,     -1.49796,0.44975,5
789.476,1281.74,     -1.49796,0.44911,5
791.09,1281.82,     -1.49796,0.44846,5
792.696,1281.9,     -1.46578,0.44782,5
794.31,1281.98,     -1.43340,0.44717,5
794.609,1282,     -1.43340,0.44705,5