File: data/TGA/commercial_samples/ExpDat_2025_07_23_SL_PS_Petri_Dish_Dynamic.csv
#EXPORTTYPE:                 ,DATA ALL
#FILE:                       ,2025_07_23_SL_PS_Petri_Dish_Dynamic.ngb-ss5
#FORMAT:                     ,NETZSCH5
#FTYPE:                      ,ASCII
#IDENTITY:                   ,PS-Petri-Dish
#DECIMAL:                    ,POINT
#SEPARATOR:                  ,COMMA
#MTYPE:                      ,DSC
#INSTRUMENT:                 ,NETZSCH STA 449F5
#PROJECT:                    ,
#DATE/TIME:                  ,7/23/2025 1:41:24 PM (UTC-4)
#CORR. FILE:                 ,
#TEMPCAL:                    ,05-05-2025 14:38
#SENSITIVITY:                ,28-06-2023 13:53
#LABORATORY:                 ,Tran/AAG
#OPERATOR:                   ,Stanley
#REMARK:                     ,2025_03_20_Styrofoam_dynamic
#SAMPLE:                     ,PS-Petri-Dish
#SAMPLE MASS /mg:            ,5.85
#MATERIAL:                   ,Polystyrene
#REFERENCE:                  ,
#REFERENCE MASS /mg:         ,0
#TYPE OF CRUCIBLE:           ,Al2O3 85 ‘l, open
#SAMPLE CRUCIBLE MASS /mg:   ,0
#REFERENCE CRUCIBLE MASS /mg:,0
#DSC RANGE /‘V:              ,5000
#TG RANGE /mg:               ,35000
#TAU-R:                      ,---
#CORR. CODE:                 ,000
#EXO:                        ,-1
#RANGE:                      ,20›C....800›C/0.0....20.0K/min
#SEGMENT:                    ,S1-4/4
#SEG. 1:                     ,20›C/5.0(K/min)/100›C
#SEG. 2:                     ,100›C/00:05/100›C
#SEG. 3:                     ,100›C/1.0(K/min)/400›C
#SEG. 4:                     ,400›C/20.0(K/min)/800›C

##Temp./›C,Time/min,DSC/(mW/mg),Mass/%,Gas Flow(purge2)/(ml/min),Gas Flow(protective)/(ml/min),TIC(scan:1)/A,Sensit./(uV/mW),Segment
 28.00700,  0.00000,      0.46662,    100,50.00000,38.00000,            ,0.92317,1
 30.35300,  1.06667,      0.19444,     99.38496,50.00000,33.00000,1.688949e-08,0.92333,1
 32.01200,  2.13333, 7.340174e-02,     92.85043,50.00000,32.00000,1.693649e-08,0.92352,1
 33.37000,  3.20000, 5.038071e-02,     93.41504,50.00000,32.00000,1.693076e-08,0.92366,1
 35.30300,  4.26667,      0.17776,     93.53111,50.00000,32.00000,1.691319e-08,0.92379,1
 38.23200,  5.33333,      0.36536,     93.74188,50.00000,32.00000,1.690173e-08,0.92390,1
 42.12200,  6.40000,      0.55292,     94.04940,50.00000,32.00000,1.694521e-08,0.92398,1
 46.90600,  7.46667,      0.72551,     94.39949,50.00000,32.00000,1.689725e-08,0.92407,1
 52.40200,  8.53333,      0.87637,     94.70684,50.00000,32.00000,1.689532e-08,0.92416,1
 58.45200,  9.60000,      0.99805,     94.99504,50.00000,32.00000,1.692369e-08,0.92428,1
 64.85000, 10.66667,      1.09211,     95.20581,50.00000,32.00000,1.692558e-08,0.92440,1
 71.37900, 11.73333,      1.15835,     95.34513,50.00000,32.00000,1.689068e-08,0.92454,1
 77.90800, 12.80000,      1.20595,     95.45726,50.00000,32.00000,1.689226e-08,0.92472,1
 84.40400, 13.86667,      1.23915,     95.46120,50.00000,32.00000,1.689532e-08,0.92488,1
 90.79500, 14.93333,      1.26142,     95.53077,50.00000,32.00000,1.689667e-08,0.92506,1
 96.94900, 15.98333,      1.29079,     95.55590,50.00000,32.00000,1.690718e-08,0.92523,2
101.064, 16.78333,      1.17236,     95.28120,50.00000,32.00000,1.690910e-08,0.92538,2
103.763, 17.58333,      0.76516,     94.71846,50.00000,32.00000,1.686724e-08,0.92552,2
105.572, 18.38333,      0.48915,     94.31043,50.00000,32.00000,1.689855e-08,0.92565,2
106.851, 19.18333,      0.31426,     93.97402,50.00000,32.00000,1.690227e-08,0.92575,2
107.609, 19.98333,      0.14007,     93.62974,50.00000,32.00000,1.689242e-08,0.92587,2
107.829, 20.78333,-2.881052e-02,     93.27573,50.00000,32.00000,1.692256e-08,0.92597,2
107.666, 21.80000,     -0.15511,     92.93932,50.00000,32.00000,1.689478e-08,0.92607,3
107.471, 22.86667,     -0.16291,     92.74786,50.00000,32.00000,1.686823e-08,0.92615,3
107.241, 23.93333,     -0.16815,     92.56034,50.00000,32.00000,1.692709e-08,0.92619,3
107.084, 25.00000,     -0.14813,     92.46171,50.00000,32.00000,1.687484e-08,0.92620,3
107.089, 26.06667,     -0.10315,     92.39009,50.00000,32.00000,1.685381e-08,0.92617,3
107.275, 27.13333,-5.207693e-02,     92.34359,50.00000,32.00000,1.686371e-08,0.92609,3
107.673, 28.20000,-5.960503e-03,     92.32051,50.00000,32.00000,1.686353e-08,0.92598,3
108.221, 29.26667, 4.016941e-02,     92.29726,50.00000,32.00000,1.687786e-08,0.92583,3
108.927, 30.33333, 8.106689e-02,     92.26821,50.00000,32.00000,1.686132e-08,0.92564,3
109.765, 31.40000,      0.11333,     92.23932,50.00000,32.00000,1.687281e-08,0.92538,3
110.708, 32.46667,      0.14149,     92.26051,50.00000,32.00000,1.689811e-08,0.92511,3
111.722, 33.53333,      0.16371,     92.23726,50.00000,32.00000,1.686466e-08,0.92481,3
112.772, 34.60000,      0.18011,     92.19675,50.00000,32.00000,1.686677e-08,0.92442,3
113.872, 35.66667,      0.19383,     92.20256,50.00000,32.00000,1.685785e-08,0.92405,3
115.001, 36.73333,      0.20202,     92.16769,50.00000,32.00000,1.685685e-08,0.92364,3
116.145, 37.80000,      0.20894,     92.13282,50.00000,32.00000,1.686198e-08,0.92313,3
117.273, 38.86667,      0.21201,     92.10974,50.00000,32.00000,1.685692e-08,0.92266,3
118.388, 39.93333,      0.21595,     92.10393,50.00000,32.00000,1.688228e-08,0.92217,3
119.501, 41.00000,      0.21861,     92.07880,50.00000,32.00000,1.685630e-08,0.92169,3
120.628, 42.06667,      0.22113,     92.07675,50.00000,32.00000,1.682590e-08,0.92123,3
121.723, 43.13333,      0.22279,     92.04974,50.00000,32.00000,1.684878e-08,0.92087,3
122.816, 44.20000,      0.22546,     92.04974,50.00000,32.00000,1.686023e-08,0.92056,3
123.911, 45.26667,      0.22927,     92.04974,50.00000,32.00000,1.684693e-08,0.92025,3
125.007, 46.33333,      0.23123,     92.04974,50.00000,32.00000,1.683981e-08,0.92002,3
126.062, 47.40000,      0.23562,     92.02650,50.00000,32.00000,1.680498e-08,0.91983,3
127.145, 48.46667,      0.23873,     92.02650,50.00000,32.00000,1.681994e-08,0.91965,3
128.228, 49.53333,      0.24385,     92.04581,50.00000,32.00000,1.683075e-08,0.91947,3
129.278, 50.60000,      0.24625,     92.00530,50.00000,32.00000,1.683372e-08,0.91932,3
130.347, 51.66667,      0.25038,     92.05162,50.00000,32.00000,1.682832e-08,0.91920,3
131.426, 52.73333,      0.25551,     92.06906,50.00000,32.00000,1.685219e-08,0.91909,3
132.492, 53.80000,      0.26023,     92.08650,50.00000,32.00000,1.685868e-08,0.91901,3
133.556, 54.86667,      0.26451,     92.09231,50.00000,32.00000,1.678641e-08,0.91896,3
134.611, 55.93333,      0.26895,     92.09231,50.00000,32.00000,1.678869e-08,0.91893,3
135.669, 57.00000,      0.27482,     92.12120,50.00000,32.00000,1.681246e-08,0.91892,3
136.746, 58.06667,      0.27942,     92.12120,50.00000,32.00000,1.679438e-08,0.91893,3
137.82, 59.13333,      0.28402,     92.13863,50.00000,32.00000,1.678404e-08,0.91896,3
138.883, 60.20000,      0.28891,     92.15607,50.00000,32.00000,1.683796e-08,0.91898,3
139.956, 61.26667,      0.29468,     92.17350,50.00000,32.00000,1.681532e-08,0.91901,3
141.041, 62.33333,      0.30002,     92.19675,50.00000,32.00000,1.679656e-08,0.91902,3
142.096, 63.40000,      0.30320,     92.20256,50.00000,32.00000,1.676614e-08,0.91905,3
143.182, 64.46667,      0.30885,     92.21983,50.00000,32.00000,1.679815e-08,0.91908,3
144.237, 65.53333,      0.31349,     92.21983,50.00000,32.00000,1.679661e-08,0.91910,3
145.302, 66.60000,      0.32001,     92.26632,50.00000,32.00000,1.679557e-08,0.91912,3
146.374, 67.66667,      0.32539,     92.26632,50.00000,32.00000,1.676812e-08,0.91914,3
147.45, 68.73333,      0.33136,     92.30120,50.00000,31.00000,1.681592e-08,0.91914,3
148.508, 69.80000,      0.33632,     92.32427,50.00000,31.00000,1.683264e-08,0.91914,3
149.587, 70.86667,      0.34158,     92.34171,50.00000,31.00000,1.678101e-08,0.91914,3
150.649, 71.93333,      0.34641,     92.36496,50.00000,31.00000,1.677929e-08,0.91911,3
151.72, 73.00000,      0.35299,     92.39983,50.00000,31.00000,1.676625e-08,0.91909,3
152.786, 74.06667,      0.35929,     92.41128,50.00000,31.00000,1.678342e-08,0.91905,3
153.849, 75.13333,      0.36501,     92.43453,50.00000,31.00000,1.681461e-08,0.91901,3
154.918, 76.20000,      0.37003,     92.45778,50.00000,31.00000,1.675863e-08,0.91896,3
155.981, 77.26667,      0.37418,     92.48103,50.00000,31.00000,1.681181e-08,0.91890,3
157.061, 78.33333,      0.38153,     92.46735,50.00000,31.00000,1.680086e-08,0.91883,3
158.127, 79.40000,      0.38657,     92.44427,50.00000,31.00000,1.682183e-08,0.91876,3
159.185, 80.46667,      0.39133,     92.49060,50.00000,31.00000,1.679475e-08,0.91867,3
160.251, 81.53333,      0.39725,     92.53128,50.00000,31.00000,1.679902e-08,0.91859,3
161.32, 82.60000,      0.40348,     92.57761,50.00000,31.00000,1.682645e-08,0.91849,3
162.38, 83.66667,      0.41031,     92.59504,50.00000,31.00000,1.682961e-08,0.91840,3
163.436, 84.73333,      0.41699,     92.62410,50.00000,31.00000,1.682135e-08,0.91828,3
164.518, 85.80000,      0.42151,     92.64735,50.00000,31.00000,1.682070e-08,0.91817,3
165.571, 86.86667,      0.42719,     92.67043,50.00000,31.00000,1.682219e-08,0.91806,3
166.651, 87.93333,      0.43465,     92.69368,50.00000,31.00000,1.682273e-08,0.91793,3
167.701, 89.00000,      0.43977,     92.72274,50.00000,31.00000,1.686800e-08,0.91781,3
168.777, 90.06667,      0.44739,     92.75761,50.00000,31.00000,1.683454e-08,0.91769,3
169.853, 91.13333,      0.45328,     92.75761,50.00000,31.00000,1.687084e-08,0.91755,3
170.907, 92.20000,      0.45770,     92.82137,50.00000,31.00000,1.684478e-08,0.91742,3
171.965, 93.26667,      0.46608,     92.82718,50.00000,31.00000,1.688046e-08,0.91729,3
173.049, 94.33333,      0.47053,     92.85607,50.00000,31.00000,1.683834e-08,0.91716,3
174.12, 95.40000,      0.47528,     92.86769,50.00000,31.00000,1.682098e-08,0.91700,3
175.172, 96.46667,      0.48327,     92.86769,50.00000,31.00000,1.682353e-08,0.91686,3
176.256, 97.53333,      0.48863,     92.90838,50.00000,31.00000,1.682588e-08,0.91672,3
177.325, 98.60000,      0.49459,     92.93744,50.00000,31.00000,1.683367e-08,0.91655,3
178.39, 99.66667,      0.49952,     92.93744,50.00000,31.00000,1.685940e-08,0.91641,3
179.452,100.733,      0.50683,     92.96051,50.00000,31.00000,1.684207e-08,0.91627,3
180.512,101.8,      0.51252,     92.97795,50.00000,31.00000,1.682520e-08,0.91611,3
181.59,102.867,      0.51971,     92.98376,50.00000,31.00000,1.684126e-08,0.91596,3
182.659,103.933,      0.52764,     92.98769,50.00000,31.00000,1.682393e-08,0.91582,3
183.719,105,      0.53367,     93.03026,50.00000,31.00000,1.680687e-08,0.91567,3
184.772,106.067,      0.54089,     93.05726,50.00000,31.00000,1.683667e-08,0.91550,3
185.861,107.133,      0.54710,     93.05726,50.00000,31.00000,1.683538e-08,0.91535,3
186.912,108.2,      0.55227,     93.06889,50.00000,31.00000,1.681484e-08,0.91521,3
187.989,109.267,      0.55939,     93.11521,50.00000,31.00000,1.685967e-08,0.91503,3
189.054,110.333,      0.56578,     93.09214,50.00000,31.00000,1.683835e-08,0.91488,3
190.125,111.4,      0.57189,     93.13846,50.00000,30.00000,1.681062e-08,0.91474,3
191.195,112.467,      0.57905,     93.13265,50.00000,30.00000,1.676448e-08,0.91459,3
192.265,113.533,      0.58533,     93.13077,50.00000,30.00000,1.682673e-08,0.91441,3
193.326,114.6,      0.59252,     93.15402,50.00000,30.00000,1.680722e-08,0.91426,3
194.393,115.667,      0.59867,     93.17726,50.00000,30.00000,1.682934e-08,0.91411,3
195.464,116.733,      0.60515,     93.15402,50.00000,30.00000,1.682206e-08,0.91393,3
196.513,117.8,      0.61177,     93.16564,50.00000,30.00000,1.678948e-08,0.91378,3
197.6,118.867,      0.61903,     93.17726,50.00000,30.00000,1.680732e-08,0.91362,3
198.654,119.933,      0.62748,     93.17726,50.00000,30.00000,1.679343e-08,0.91347,3
199.734,121,      0.63401,     93.18496,50.00000,30.00000,1.682470e-08,0.91329,3
200.812,122.067,      0.63951,     93.20239,50.00000,30.00000,1.679809e-08,0.91313,3
201.859,123.133,      0.64666,     93.21385,50.00000,30.00000,1.678876e-08,0.91298,3
202.928,124.2,      0.65428,     93.21385,50.00000,30.00000,1.682874e-08,0.91280,3
203.996,125.267,      0.65846,     93.21197,50.00000,30.00000,1.682529e-08,0.91265,3
205.049,126.333,      0.66415,     93.23521,50.00000,30.00000,1.677568e-08,0.91249,3
206.124,127.4,      0.67423,     93.22359,50.00000,30.00000,1.679838e-08,0.91230,3
207.204,128.467,      0.68252,     93.23128,50.00000,30.00000,1.679141e-08,0.91214,3
208.26,129.533,      0.68721,     93.21385,50.00000,30.00000,1.680068e-08,0.91199,3
209.323,130.6,      0.69371,     93.23709,50.00000,30.00000,1.678782e-08,0.91179,3
210.395,131.667,      0.70205,     93.23709,50.00000,30.00000,1.677614e-08,0.91163,3
211.46,132.733,      0.70905,     93.24291,50.00000,30.00000,1.679727e-08,0.91148,3
212.529,133.8,      0.71727,     93.26615,50.00000,30.00000,1.675418e-08,0.91131,3
213.601,134.867,      0.72339,     93.25453,50.00000,30.00000,1.681100e-08,0.91112,3
214.671,135.933,      0.73059,     93.25846,50.00000,30.00000,1.679564e-08,0.91096,3
215.723,137,      0.73733,     93.25846,50.00000,30.00000,1.679063e-08,0.91080,3
216.79,138.067,      0.74289,     93.24103,50.00000,30.00000,1.679027e-08,0.91060,3
217.857,139.133,      0.75226,     93.27009,50.00000,30.00000,1.675984e-08,0.91043,3
218.937,140.2,      0.75983,     93.27009,50.00000,30.00000,1.676987e-08,0.91026,3
219.976,141.267,      0.76618,     93.26427,50.00000,30.00000,1.679739e-08,0.91007,3
221.061,142.333,      0.77608,     93.28735,50.00000,30.00000,1.678333e-08,0.90990,3
222.123,143.4,      0.78217,     93.28154,50.00000,30.00000,1.679656e-08,0.90973,3
223.193,144.467,      0.79026,     93.25846,50.00000,30.00000,1.680246e-08,0.90957,3
224.251,145.533,      0.79776,     93.26427,50.00000,30.00000,1.677776e-08,0.90937,3
225.327,146.6,      0.80529,     93.25846,50.00000,30.00000,1.675847e-08,0.90920,3
226.382,147.667,      0.81128,     93.28154,50.00000,30.00000,1.677412e-08,0.90902,3
227.451,148.733,      0.81976,     93.25846,50.00000,30.00000,1.676426e-08,0.90885,3
228.519,149.8,      0.82702,     93.26427,50.00000,30.00000,1.678404e-08,0.90864,3
229.587,150.867,      0.83369,     93.26427,50.00000,30.00000,1.676367e-08,0.90847,3
230.648,151.933,      0.84068,     93.24684,50.00000,30.00000,1.678018e-08,0.90829,3
231.722,153,      0.84693,     93.24684,50.00000,30.00000,1.676809e-08,0.90811,3
232.771,154.067,      0.85394,     93.24479,50.00000,30.00000,1.673606e-08,0.90790,3
233.846,155.133,      0.86238,     93.24479,50.00000,30.00000,1.674234e-08,0.90773,3
234.906,156.2,      0.86836,     93.22752,50.00000,30.00000,1.676432e-08,0.90755,3
235.98,157.267,      0.87652,     93.22359,50.00000,30.00000,1.677411e-08,0.90733,3
237.054,158.333,      0.88363,     93.22940,50.00000,30.00000,1.677682e-08,0.90715,3
238.121,159.4,      0.89168,     93.22940,50.00000,30.00000,1.675959e-08,0.90697,3
239.188,160.467,      0.89866,     93.19658,50.00000,30.00000,1.675780e-08,0.90678,3
240.242,161.533,      0.90440,     93.21385,50.00000,30.00000,1.675008e-08,0.90656,3
241.318,162.6,      0.91220,     93.19658,50.00000,30.00000,1.671617e-08,0.90637,3
242.38,163.667,      0.91814,     93.17145,50.00000,30.00000,1.672925e-08,0.90619,3
243.438,164.733,      0.92783,     93.18291,50.00000,30.00000,1.677429e-08,0.90598,3
244.526,165.8,      0.93523,     93.16564,50.00000,30.00000,1.676156e-08,0.90579,3
245.57,166.867,      0.93996,     93.13077,50.00000,30.00000,1.679573e-08,0.90560,3
246.642,167.933,      0.94957,     93.13658,50.00000,30.00000,1.676306e-08,0.90541,3
247.713,169,      0.95701,     93.12496,50.00000,30.00000,1.677485e-08,0.90519,3
248.781,170.067,      0.96274,     93.12496,50.00000,30.00000,1.676692e-08,0.90500,3
249.836,171.133,      0.97099,     93.10752,50.00000,30.00000,1.674699e-08,0.90481,3
250.899,172.2,      0.97911,     93.07863,50.00000,30.00000,1.676198e-08,0.90458,3
251.978,173.267,      0.98727,     93.10171,50.00000,30.00000,1.675816e-08,0.90439,3
253.038,174.333,      0.99464,     93.07863,50.00000,30.00000,1.675486e-08,0.90420,3
254.123,175.4,      1.00300,     93.05538,50.00000,30.00000,1.678814e-08,0.90397,3
255.183,176.467,      1.00852,     93.03795,50.00000,30.00000,1.675353e-08,0.90377,3
256.246,177.533,      1.01721,     93.05726,50.00000,30.00000,1.674893e-08,0.90358,3
257.3,178.6,      1.02481,     93.02239,50.00000,30.00000,1.675963e-08,0.90338,3
258.387,179.667,      1.03294,     93.00513,50.00000,30.00000,1.679247e-08,0.90315,3
259.443,180.733,      1.03773,     92.99932,50.00000,30.00000,1.673799e-08,0.90295,3
260.51,181.8,      1.04683,     92.98000,50.00000,30.00000,1.674663e-08,0.90275,3
261.577,182.867,      1.05468,     92.95675,50.00000,30.00000,1.677901e-08,0.90255,3
262.647,183.933,      1.06256,     92.94513,50.00000,30.00000,1.672174e-08,0.90231,3
263.705,185,      1.06981,     92.91026,50.00000,30.00000,1.675801e-08,0.90211,3
264.771,186.067,      1.07629,     92.91026,50.00000,30.00000,1.676665e-08,0.90191,3
265.832,187.133,      1.08469,     92.92769,50.00000,30.00000,1.675645e-08,0.90167,3
266.9,188.2,      1.09488,     92.84838,50.00000,30.00000,1.676151e-08,0.90147,3
267.987,189.267,      1.10192,     92.82513,50.00000,30.00000,1.675541e-08,0.90127,3
269.054,190.333,      1.10609,     92.80581,50.00000,30.00000,1.676785e-08,0.90102,3
270.123,191.4,      1.11362,     92.75949,50.00000,30.00000,1.678637e-08,0.90082,3
271.175,192.467,      1.12132,     92.75949,50.00000,30.00000,1.678626e-08,0.90061,3
272.235,193.533,      1.12985,     92.72650,50.00000,30.00000,1.676121e-08,0.90041,3
273.288,194.6,      1.13631,     92.72650,50.00000,30.00000,1.676944e-08,0.90016,3
274.366,195.667,      1.14828,     92.68017,50.00000,30.00000,1.675105e-08,0.89995,3
275.42,196.733,      1.15349,     92.66855,50.00000,30.00000,1.673709e-08,0.89975,3
276.504,197.8,      1.16343,     92.62803,50.00000,30.00000,1.673412e-08,0.89949,3
277.565,198.867,      1.16804,     92.58154,50.00000,30.00000,1.675206e-08,0.89928,3
278.633,199.933,      1.17606,     92.58154,50.00000,30.00000,1.678666e-08,0.89907,3
279.698,201,      1.18492,     92.56410,50.00000,30.00000,1.675367e-08,0.89886,3
280.753,202.067,      1.19232,     92.54085,50.00000,30.00000,1.678175e-08,0.89861,3
281.834,203.133,      1.20010,     92.49453,50.00000,30.00000,1.675329e-08,0.89839,3
282.907,204.2,      1.20725,     92.46547,50.00000,30.00000,1.677849e-08,0.89817,3
283.969,205.267,      1.21326,     92.44803,50.00000,30.00000,1.674809e-08,0.89792,3
285.033,206.333,      1.21913,     92.40171,50.00000,30.00000,1.674196e-08,0.89771,3
286.094,207.4,      1.22697,     92.37265,50.00000,30.00000,1.677201e-08,0.89748,3
287.169,208.467,      1.23664,     92.34940,50.00000,30.00000,1.675872e-08,0.89723,3
288.232,209.533,      1.24158,     92.32632,50.00000,30.00000,1.677209e-08,0.89702,3
289.297,210.6,      1.25194,     92.30308,50.00000,30.00000,1.679370e-08,0.89680,3
290.369,211.667,      1.25939,     92.24496,50.00000,30.00000,1.680093e-08,0.89658,3
291.432,212.733,      1.26570,     92.22769,50.00000,30.00000,1.677397e-08,0.89633,3
292.506,213.8,      1.27369,     92.19863,50.00000,30.00000,1.677108e-08,0.89610,3
293.563,214.867,      1.28019,     92.16376,50.00000,30.00000,1.679518e-08,0.89588,3
294.635,215.933,      1.28789,     92.13487,50.00000,30.00000,1.674463e-08,0.89562,3
295.69,217,      1.29788,     92.08838,50.00000,30.00000,1.676045e-08,0.89539,3
296.752,218.067,      1.30346,     92.04769,50.00000,30.00000,1.675989e-08,0.89517,3
297.834,219.133,      1.31074,     92.01299,50.00000,30.00000,1.677086e-08,0.89495,3
298.886,220.2,      1.31998,     91.96650,50.00000,30.00000,1.676151e-08,0.89467,3
299.961,221.267,      1.32713,     91.96650,50.00000,30.00000,1.675832e-08,0.89445,3
301.029,222.333,      1.33412,     91.88154,50.00000,30.00000,1.678546e-08,0.89422,3
302.094,223.4,      1.34444,     91.87761,50.00000,30.00000,1.677621e-08,0.89395,3
303.158,224.467,      1.35197,     91.80803,50.00000,30.00000,1.676733e-08,0.89372,3
304.223,225.533,      1.35852,     91.78479,50.00000,30.00000,1.677312e-08,0.89349,3
305.298,226.6,      1.36643,     91.71521,50.00000,30.00000,1.678255e-08,0.89327,3
306.355,227.667,      1.37451,     91.69778,50.00000,30.00000,1.676127e-08,0.89300,3
307.423,228.733,      1.38463,     91.64547,50.00000,30.00000,1.676168e-08,0.89277,3
308.493,229.8,      1.39161,     91.59915,50.00000,30.00000,1.677899e-08,0.89253,3
309.551,230.867,      1.39992,     91.55265,50.00000,30.00000,1.677781e-08,0.89226,3
310.627,231.933,      1.41097,     91.48496,50.00000,30.00000,1.679282e-08,0.89203,3
311.697,233,      1.42138,     91.45607,50.00000,30.00000,1.677796e-08,0.89178,3
312.775,234.067,      1.42946,     91.39795,50.00000,30.00000,1.680531e-08,0.89155,3
313.834,235.133,      1.43703,     91.32838,50.00000,30.00000,1.676936e-08,0.89128,3
314.905,236.2,      1.44920,     91.26256,50.00000,30.00000,1.677154e-08,0.89104,3
315.967,237.267,      1.45193,     91.21624,50.00000,30.00000,1.671586e-08,0.89079,3
317.027,238.333,      1.46227,     91.14650,50.00000,30.00000,1.676631e-08,0.89053,3
318.102,239.4,      1.47149,     91.09436,50.00000,30.00000,1.675605e-08,0.89029,3
319.166,240.467,      1.48172,     91.00154,50.00000,30.00000,1.676586e-08,0.89004,3
320.237,241.533,      1.49149,     90.98410,50.00000,30.00000,1.677684e-08,0.88981,3
321.304,242.6,      1.49889,     90.86427,50.00000,30.00000,1.673772e-08,0.88952,3
322.366,243.667,      1.50529,     90.76940,50.00000,30.00000,1.677493e-08,0.88928,3
323.435,244.733,      1.51683,     90.69983,50.00000,30.00000,1.676376e-08,0.88904,3
324.503,245.8,      1.52328,     90.61863,50.00000,30.00000,1.675894e-08,0.88876,3
325.577,246.867,      1.53062,     90.50256,50.00000,30.00000,1.675063e-08,0.88850,3
326.625,247.933,      1.53946,     90.40974,50.00000,30.00000,1.678020e-08,0.88827,3
327.722,249,      1.54877,     90.30718,50.00000,30.00000,1.676436e-08,0.88802,3
328.771,250.067,      1.55630,     90.19897,50.00000,30.00000,1.677277e-08,0.88773,3
329.832,251.133,      1.56352,     90.05778,50.00000,30.00000,1.681303e-08,0.88748,3
330.911,252.2,      1.57304,     89.95333,50.00000,30.00000,1.679360e-08,0.88723,3
331.968,253.267,      1.58151,     89.82564,50.00000,30.00000,1.674301e-08,0.88694,3
333.024,254.333,      1.59103,     89.66325,50.00000,30.00000,1.677720e-08,0.88668,3
334.084,255.4,      1.60231,     89.51829,50.00000,30.00000,1.680690e-08,0.88644,3
335.157,256.467,      1.61279,     89.31709,50.00000,30.00000,1.678662e-08,0.88619,3
336.228,257.533,      1.61879,     89.13145,50.00000,30.00000,1.673757e-08,0.88591,3
337.291,258.6,      1.62929,     88.89744,50.00000,30.00000,1.679627e-08,0.88565,3
338.364,259.667,      1.63951,     88.66342,50.00000,30.00000,1.676481e-08,0.88539,3
339.429,260.733,      1.65077,     88.40034,50.00000,30.00000,1.682196e-08,0.88514,3
340.501,261.8,      1.66974,     88.15487,50.00000,30.00000,1.678217e-08,0.88485,3
341.564,262.867,      1.66660,     87.92667,50.00000,30.00000,1.680735e-08,0.88459,3
342.632,263.933,      1.67447,     87.68684,50.00000,30.00000,1.675867e-08,0.88434,3
343.692,265,      1.68688,     87.35419,50.00000,30.00000,1.676543e-08,0.88404,3
344.763,266.067,      1.70811,     86.96940,50.00000,30.00000,1.680693e-08,0.88378,3
345.833,267.133,      1.71448,     86.58838,50.00000,30.00000,1.680311e-08,0.88353,3
346.889,268.2,      1.72155,     86.20342,50.00000,30.00000,1.679453e-08,0.88326,3
347.964,269.267,      1.73431,     85.73744,50.00000,30.00000,1.679511e-08,0.88297,3
349.027,270.333,      1.74602,     85.27333,50.00000,30.00000,1.678193e-08,0.88270,3
350.09,271.4,      1.76921,     84.67761,50.00000,30.00000,1.680433e-08,0.88245,3
351.152,272.467,      1.79071,     84.06838,50.00000,30.00000,1.679663e-08,0.88214,3
352.227,273.533,      1.81512,     83.41094,50.00000,30.00000,1.681560e-08,0.88189,3
353.285,274.6,      1.82150,     82.72239,50.00000,30.00000,1.682353e-08,0.88162,3
354.359,275.667,      1.84443,     81.87350,50.00000,30.00000,1.678481e-08,0.88136,3
355.428,276.733,      1.87362,     80.97026,50.00000,30.00000,1.678226e-08,0.88104,3
356.492,277.8,      1.88670,     80.06325,50.00000,30.00000,1.682451e-08,0.88078,3
357.552,278.867,      1.91013,     79.03248,50.00000,30.00000,1.681622e-08,0.88053,3
358.626,279.933,      1.92528,     77.97863,50.00000,30.00000,1.680297e-08,0.88022,3
359.689,281,      1.95330,     76.78342,50.00000,30.00000,1.678412e-08,0.87994,3
360.762,282.067,      1.97356,     75.42581,50.00000,30.00000,1.678266e-08,0.87968,3
361.824,283.133,      1.99241,     73.96376,50.00000,30.00000,1.678856e-08,0.87936,3
362.892,284.2,      2.01581,     72.43009,50.00000,30.00000,1.679699e-08,0.87910,3
363.95,285.267,      2.03781,     70.78444,50.00000,30.00000,1.678987e-08,0.87884,3
365.001,286.333,      2.07154,     68.90650,50.00000,30.00000,1.681768e-08,0.87857,3
366.082,287.4,      2.10238,     66.89915,50.00000,30.00000,1.679213e-08,0.87825,3
367.145,288.467,      2.12046,     64.77385,50.00000,30.00000,1.680792e-08,0.87798,3
368.224,289.533,      2.14730,     62.53436,50.00000,30.00000,1.679329e-08,0.87770,3
369.283,290.6,      2.17741,     60.05504,50.00000,30.00000,1.682827e-08,0.87739,3
370.357,291.667,      2.21180,     57.38821,50.00000,30.00000,1.679594e-08,0.87712,3
371.433,292.733,      2.23887,     54.57829,50.00000,30.00000,1.681236e-08,0.87685,3
372.478,293.8,      2.25340,     51.59812,50.00000,30.00000,1.682558e-08,0.87657,3
373.559,294.867,      2.28552,     48.44769,50.00000,30.00000,1.682704e-08,0.87626,3
374.635,295.933,      2.31189,     45.10205,50.00000,30.00000,1.682601e-08,0.87598,3
375.681,297,      2.38638,     41.51470,50.00000,30.00000,1.680072e-08,0.87570,3
376.748,298.067,      2.42261,     37.80342,50.00000,30.00000,1.680994e-08,0.87539,3
377.818,299.133,      2.42769,     34.07487,50.00000,30.00000,1.677653e-08,0.87510,3
378.886,300.2,      2.42509,     30.31726,50.00000,30.00000,1.679601e-08,0.87483,3
379.96,301.267,      2.40654,     26.57521,50.00000,31.00000,1.678351e-08,0.87455,3
381.014,302.333,      2.38274,     22.91624,50.00000,31.00000,1.678326e-08,0.87423,3
382.105,303.4,      2.34722,     19.31915,50.00000,31.00000,1.682512e-08,0.87396,3
383.15,304.467,      2.30187,     15.92325,50.00000,31.00000,1.681933e-08,0.87368,3
384.23,305.533,      2.25042,     12.75162,50.00000,31.00000,1.677884e-08,0.87335,3
385.311,306.6,      2.19069,      9.82171,50.00000,31.00000,1.679864e-08,0.87306,3
386.355,307.667,      2.12717,      7.17026,50.00000,31.00000,1.678592e-08,0.87279,3
387.425,308.733,      2.05873,      4.89026,50.00000,31.00000,1.677678e-08,0.87251,3
388.508,309.8,      1.99124,      2.94274,50.00000,31.00000,1.681394e-08,0.87219,3
389.566,310.867,      1.92312,      1.31624,50.00000,31.00000,1.682252e-08,0.87190,3
390.637,311.933,      1.85799, 1.675214e-02,50.00000,31.00000,1.679962e-08,0.87161,3
391.681,313,      1.79205,     -0.97538,50.00000,31.00000,1.679143e-08,0.87128,3
392.76,314.067,      1.74242,     -1.77402,50.00000,31.00000,1.678040e-08,0.87098,3
393.826,315.133,      1.69317,     -2.38906,50.00000,31.00000,1.675755e-08,0.87071,3
394.904,316.2,      1.64661,     -2.89179,50.00000,31.00000,1.678666e-08,0.87042,3
395.962,317.267,      1.60568,     -3.29026,50.00000,31.00000,1.678568e-08,0.87009,3
397.025,318.333,      1.57326,     -3.57453,50.00000,31.00000,1.681444e-08,0.86980,3
398.106,319.4,      1.54624,     -3.78342,50.00000,31.00000,1.677060e-08,0.86952,3
399.153,320.467,      1.52208,     -3.96906,50.00000,31.00000,1.680011e-08,0.86918,3
399.67,320.978,      1.51466,     -4.03863,50.00000,31.00000,1.677782e-08,0.86904,4
399.772,321.058,      1.54687,     -4.03863,50.00000,31.00000,1.677782e-08,0.86904,4
399.965,321.138,      1.66816,     -4.01556,50.00000,31.00000,1.678495e-08,0.86898,4
400.284,321.218,      1.90492,     -3.99231,50.00000,31.00000,1.678495e-08,0.86898,4
400.752,321.298,      2.25767,     -3.95744,50.00000,31.00000,1.678495e-08,0.86898,4
401.384,321.378,      2.72783,     -3.86462,50.00000,31.00000,1.679656e-08,0.86893,4
402.19,321.458,      3.29681,     -3.77179,50.00000,31.00000,1.679656e-08,0.86893,4
403.18,321.538,      3.93907,     -3.66923,50.00000,31.00000,1.675000e-08,0.86889,4
404.323,321.618,      4.63114,     -3.57846,50.00000,31.00000,1.675000e-08,0.86889,4
405.606,321.698,      5.34284,     -3.48171,50.00000,31.00000,1.678403e-08,0.86885,4
407.018,321.778,      6.04510,     -3.40239,50.00000,31.00000,1.678403e-08,0.86885,4
408.507,321.858,      6.71090,     -3.34632,50.00000,31.00000,1.675621e-08,0.86880,4
410.088,321.938,      7.32204,     -3.26513,50.00000,31.00000,1.675621e-08,0.86880,4
411.693,322.018,      7.85662,     -3.18000,50.00000,31.00000,1.678954e-08,0.86875,4
413.337,322.098,      8.31053,     -3.16838,50.00000,31.00000,1.678954e-08,0.86875,4
414.958,322.178,      8.66911,     -3.12974,50.00000,31.00000,1.677113e-08,0.86871,4
416.577,322.258,      8.93908,     -3.11231,50.00000,31.00000,1.677113e-08,0.86871,4
418.159,322.338,      9.12001,     -3.11231,50.00000,31.00000,1.678510e-08,0.86864,4
419.694,322.418,      9.22567,     -3.08325,50.00000,31.00000,1.678510e-08,0.86864,4
421.182,322.498,      9.26390,     -3.08325,50.00000,31.00000,1.675843e-08,0.86860,4
422.642,322.578,      9.24619,     -3.10650,50.00000,31.00000,1.675843e-08,0.86860,4
424.058,322.658,      9.19282,     -3.10650,50.00000,31.00000,1.675843e-08,0.86860,4
425.445,322.738,      9.11099,     -3.09487,50.00000,31.00000,1.678830e-08,0.86855,4
426.789,322.818,      9.01991,     -3.13162,50.00000,31.00000,1.678830e-08,0.86855,4
428.118,322.898,      8.92828,     -3.13162,50.00000,31.00000,1.680317e-08,0.86851,4
429.443,322.978,      8.84761,     -3.15487,50.00000,31.00000,1.680317e-08,0.86851,4
430.76,323.058,      8.78576,     -3.15487,50.00000,31.00000,1.679280e-08,0.86846,4
432.089,323.138,      8.74994,     -3.15487,50.00000,31.00000,1.679280e-08,0.86846,4
433.432,323.218,      8.74506,     -3.15487,50.00000,31.00000,1.678305e-08,0.86841,4
434.792,323.298,      8.76617,     -3.15487,50.00000,31.00000,1.678305e-08,0.86841,4
436.185,323.378,      8.81954,     -3.15487,50.00000,31.00000,1.677988e-08,0.86837,4
437.601,323.458,      8.90089,     -3.15487,50.00000,31.00000,1.677988e-08,0.86837,4
439.05,323.538,      9.00611,     -3.14906,50.00000,31.00000,1.680495e-08,0.86832,4
440.538,323.618,      9.13168,     -3.10855,50.00000,31.00000,1.680495e-08,0.86832,4
442.057,323.698,      9.27063,     -3.10855,50.00000,31.00000,1.679019e-08,0.86827,4
443.604,323.778,      9.42124,     -3.08530,50.00000,31.00000,1.679019e-08,0.86827,4
445.17,323.858,      9.57487,     -3.06205,50.00000,31.00000,1.682182e-08,0.86822,4
446.771,323.938,      9.72954,     -3.03880,50.00000,31.00000,1.682182e-08,0.86822,4
448.383,324.018,      9.87773,     -3.01573,50.00000,31.00000,1.678529e-08,0.86817,4
450.025,324.098,     10.01683,     -3.01573,50.00000,31.00000,1.678529e-08,0.86817,4
451.672,324.178,     10.14525,     -2.99248,50.00000,31.00000,1.678529e-08,0.86817,4
453.319,324.258,     10.26041,     -2.99248,50.00000,31.00000,1.678866e-08,0.86812,4
454.971,324.338,     10.35864,     -2.96530,50.00000,31.00000,1.678866e-08,0.86812,4
456.633,324.418,     10.44417,     -2.94803,50.00000,31.00000,1.680412e-08,0.86807,4
458.303,324.498,     10.51627,     -2.94222,50.00000,31.00000,1.680412e-08,0.86807,4
459.964,324.578,     10.57421,     -2.91897,50.00000,31.00000,1.683796e-08,0.86802,4
461.62,324.658,     10.62101,     -2.90735,50.00000,31.00000,1.683796e-08,0.86802,4
463.281,324.738,     10.65756,     -2.87248,50.00000,31.00000,1.678926e-08,0.86799,4
464.928,324.818,     10.68783,     -2.87248,50.00000,31.00000,1.678926e-08,0.86799,4
466.588,324.898,     10.70949,     -2.87248,50.00000,31.00000,1.678968e-08,0.86793,4
468.234,324.978,     10.72891,     -2.84940,50.00000,31.00000,1.678968e-08,0.86793,4
469.879,325.058,     10.74418,     -2.84940,50.00000,31.00000,1.679188e-08,0.86788,4
471.535,325.138,     10.76043,     -2.82615,50.00000,31.00000,1.679188e-08,0.86788,4
473.185,325.218,     10.77678,     -2.82615,50.00000,31.00000,1.678708e-08,0.86784,4
474.835,325.298,     10.79501,     -2.80291,50.00000,31.00000,1.678708e-08,0.86784,4
476.486,325.378,     10.81387,     -2.77966,50.00000,31.00000,1.678708e-08,0.86784,4
478.147,325.458,     10.83747,     -2.77966,50.00000,31.00000,1.680620e-08,0.86779,4
479.802,325.538,     10.86100,     -2.75265,50.00000,31.00000,1.680620e-08,0.86779,4
481.46,325.618,     10.88669,     -2.74684,50.00000,31.00000,1.676970e-08,0.86774,4
483.13,325.698,     10.91321,     -2.74684,50.00000,31.00000,1.676970e-08,0.86774,4
484.803,325.778,     10.94191,     -2.72940,50.00000,31.00000,1.678869e-08,0.86768,4
486.472,325.858,     10.97439,     -2.70615,50.00000,31.00000,1.678869e-08,0.86768,4
488.161,325.938,     11.00192,     -2.68308,50.00000,31.00000,1.676624e-08,0.86764,4
489.832,326.018,     11.03177,     -2.68308,50.00000,31.00000,1.676624e-08,0.86764,4
491.518,326.098,     11.05995,     -2.65983,50.00000,31.00000,1.678385e-08,0.86760,4
493.2,326.178,     11.08789,     -2.65983,50.00000,31.00000,1.678385e-08,0.86760,4
494.883,326.258,     11.11203,     -2.63658,50.00000,31.00000,1.678322e-08,0.86755,4
496.576,326.338,     11.13461,     -2.61915,50.00000,31.00000,1.678322e-08,0.86755,4
498.265,326.418,     11.15327,     -2.61333,50.00000,31.00000,1.677721e-08,0.86749,4
499.944,326.498,     11.17134,     -2.61333,50.00000,31.00000,1.677721e-08,0.86749,4
501.632,326.578,     11.18414,     -2.58821,50.00000,31.00000,1.678829e-08,0.86745,4
503.304,326.658,     11.19515,     -2.56496,50.00000,31.00000,1.678829e-08,0.86745,4
504.999,326.738,     11.20340,     -2.56496,50.00000,31.00000,1.680027e-08,0.86741,4
506.671,326.818,     11.21084,     -2.54188,50.00000,31.00000,1.680027e-08,0.86741,4
508.368,326.898,     11.21530,     -2.52444,50.00000,31.00000,1.680027e-08,0.86741,4
510.041,326.978,     11.21694,     -2.51863,50.00000,31.00000,1.677961e-08,0.86735,4
511.714,327.058,     11.21914,     -2.51863,50.00000,31.00000,1.677961e-08,0.86735,4
513.397,327.138,     11.22008,     -2.51863,50.00000,31.00000,1.680147e-08,0.86730,4
515.074,327.218,     11.21755,     -2.50701,50.00000,31.00000,1.680147e-08,0.86730,4
516.738,327.298,     11.21956,     -2.49538,50.00000,31.00000,1.683519e-08,0.86726,4
518.428,327.378,     11.21722,     -2.47214,50.00000,31.00000,1.683519e-08,0.86726,4
520.099,327.458,     11.21648,     -2.44906,50.00000,31.00000,1.679064e-08,0.86720,4
521.767,327.538,     11.21693,     -2.44906,50.00000,31.00000,1.679064e-08,0.86720,4
523.446,327.618,     11.21720,     -2.44325,50.00000,31.00000,1.680742e-08,0.86716,4
525.096,327.698,     11.21697,     -2.42393,50.00000,31.00000,1.680742e-08,0.86716,4
526.781,327.778,     11.21557,     -2.40650,50.00000,31.00000,1.678728e-08,0.86711,4
528.439,327.858,     11.21502,     -2.40068,50.00000,31.00000,1.678728e-08,0.86711,4
530.12,327.938,     11.21379,     -2.40068,50.00000,31.00000,1.681314e-08,0.86705,4
531.787,328.018,     11.21248,     -2.37744,50.00000,31.00000,1.681314e-08,0.86705,4
533.453,328.098,     11.20970,     -2.35419,50.00000,31.00000,1.681014e-08,0.86701,4
535.117,328.178,     11.20678,     -2.35419,50.00000,31.00000,1.681014e-08,0.86701,4
536.788,328.258,     11.20385,     -2.33692,50.00000,31.00000,1.679970e-08,0.86696,4
538.452,328.338,     11.20047,     -2.33111,50.00000,31.00000,1.679970e-08,0.86696,4
540.119,328.418,     11.19521,     -2.33111,50.00000,31.00000,1.679970e-08,0.86696,4
541.775,328.498,     11.18899,     -2.30581,50.00000,31.00000,1.681744e-08,0.86691,4
543.441,328.578,     11.18142,     -2.30581,50.00000,31.00000,1.681744e-08,0.86691,4
545.111,328.658,     11.17627,     -2.30581,50.00000,31.00000,1.682169e-08,0.86686,4
546.753,328.738,     11.16651,     -2.28274,50.00000,31.00000,1.682169e-08,0.86686,4
548.42,328.818,     11.15787,     -2.28274,50.00000,31.00000,1.679652e-08,0.86681,4
550.07,328.898,     11.15022,     -2.28274,50.00000,31.00000,1.679652e-08,0.86681,4
551.738,328.978,     11.14109,     -2.25949,50.00000,31.00000,1.676090e-08,0.86676,4
553.395,329.058,     11.13074,     -2.23624,50.00000,31.00000,1.676090e-08,0.86676,4
555.048,329.138,     11.11882,     -2.23624,50.00000,31.00000,1.678355e-08,0.86672,4
556.701,329.218,     11.10744,     -2.23624,50.00000,31.00000,1.678355e-08,0.86672,4
558.352,329.298,     11.09773,     -2.23624,50.00000,31.00000,1.677804e-08,0.86667,4
560.006,329.378,     11.08584,     -2.21299,50.00000,31.00000,1.677804e-08,0.86667,4
561.658,329.458,     11.07029,     -2.21299,50.00000,31.00000,1.673897e-08,0.86662,4
563.313,329.538,     11.05973,     -2.18991,50.00000,31.00000,1.673897e-08,0.86662,4
564.96,329.618,     11.04520,     -2.18991,50.00000,31.00000,1.679924e-08,0.86657,4
566.602,329.698,     11.03022,     -2.18991,50.00000,31.00000,1.679924e-08,0.86657,4
568.26,329.778,     11.01598,     -2.16667,50.00000,31.00000,1.678477e-08,0.86653,4
569.908,329.858,     10.99888,     -2.11436,50.00000,31.00000,1.678477e-08,0.86653,4
571.559,329.938,     10.98189,     -2.13761,50.00000,31.00000,1.678477e-08,0.86653,4
573.198,330.018,     10.96764,     -2.16085,50.00000,31.00000,1.681387e-08,0.86647,4
574.848,330.098,     10.94795,     -2.13761,50.00000,31.00000,1.681387e-08,0.86647,4
576.493,330.178,     10.93015,     -2.10667,50.00000,31.00000,1.676862e-08,0.86642,4
578.15,330.258,     10.91375,     -2.08923,50.00000,31.00000,1.676862e-08,0.86642,4
579.78,330.338,     10.89449,     -2.08923,50.00000,31.00000,1.680905e-08,0.86638,4
581.433,330.418,     10.87581,     -2.11248,50.00000,31.00000,1.680905e-08,0.86638,4
583.08,330.498,     10.85713,     -2.08735,50.00000,31.00000,1.679323e-08,0.86633,4
584.717,330.578,     10.83482,     -2.08735,50.00000,31.00000,1.679323e-08,0.86633,4
586.352,330.658,     10.81398,     -2.06991,50.00000,31.00000,1.676072e-08,0.86628,4
587.991,330.738,     10.79230,     -2.06991,50.00000,31.00000,1.676072e-08,0.86628,4
589.639,330.818,     10.77151,     -2.06410,50.00000,31.00000,1.677016e-08,0.86623,4
591.288,330.898,     10.74767,     -2.03897,50.00000,31.00000,1.677016e-08,0.86623,4
592.929,330.978,     10.72596,     -2.02735,50.00000,31.00000,1.680548e-08,0.86617,4
594.554,331.058,     10.70509,     -2.03897,50.00000,31.00000,1.680548e-08,0.86617,4
596.187,331.138,     10.68053,     -2.03897,50.00000,31.00000,1.678703e-08,0.86612,4
597.839,331.218,     10.65746,     -2.01573,50.00000,31.00000,1.678703e-08,0.86612,4
599.465,331.298,     10.63318,     -2.01573,50.00000,31.00000,1.679095e-08,0.86607,4
601.114,331.378,     10.60923,     -1.99265,50.00000,31.00000,1.679095e-08,0.86607,4
602.747,331.458,     10.58613,     -1.99265,50.00000,31.00000,1.679095e-08,0.86607,4
604.384,331.538,     10.56144,     -1.99265,50.00000,31.00000,1.682597e-08,0.86603,4
606.01,331.618,     10.53693,     -1.99060,50.00000,31.00000,1.682597e-08,0.86603,4
607.65,331.698,     10.51338,     -1.96752,50.00000,31.00000,1.679348e-08,0.86598,4
609.284,331.778,     10.48519,     -1.98479,50.00000,31.00000,1.679348e-08,0.86598,4
610.918,331.858,     10.46171,     -1.98479,50.00000,31.00000,1.679482e-08,0.86594,4
612.553,331.938,     10.43586,     -1.96171,50.00000,31.00000,1.679482e-08,0.86594,4
614.176,332.018,     10.41216,     -1.96171,50.00000,31.00000,1.675783e-08,0.86588,4
615.816,332.098,     10.38971,     -1.93846,50.00000,31.00000,1.675783e-08,0.86588,4
617.449,332.178,     10.36553,     -1.91521,50.00000,31.00000,1.681434e-08,0.86584,4
619.072,332.258,     10.34404,     -1.91521,50.00000,31.00000,1.681434e-08,0.86584,4
620.698,332.338,     10.32045,     -1.89197,50.00000,31.00000,1.677141e-08,0.86578,4
622.338,332.418,     10.29634,     -1.89197,50.00000,31.00000,1.677141e-08,0.86578,4
623.954,332.498,     10.27430,     -1.89197,50.00000,31.00000,1.679495e-08,0.86574,4
625.598,332.578,     10.25414,     -1.86889,50.00000,31.00000,1.679495e-08,0.86574,4
627.22,332.658,     10.23509,     -1.86889,50.00000,31.00000,1.680256e-08,0.86568,4
628.847,332.738,     10.21219,     -1.86889,50.00000,31.00000,1.680256e-08,0.86568,4
630.476,332.818,     10.19217,     -1.86889,50.00000,31.00000,1.680256e-08,0.86568,4
632.111,332.898,     10.17155,     -1.83402,50.00000,31.00000,1.680054e-08,0.86564,4
633.732,332.978,     10.15089,     -1.82239,50.00000,31.00000,1.680054e-08,0.86564,4
635.36,333.058,     10.13116,     -1.82239,50.00000,31.00000,1.681265e-08,0.86559,4
636.981,333.138,     10.11323,     -1.82239,50.00000,31.00000,1.681265e-08,0.86559,4
638.602,333.218,     10.09163,     -1.81077,50.00000,31.00000,1.683946e-08,0.86554,4
640.23,333.298,     10.07653,     -1.81077,50.00000,31.00000,1.683946e-08,0.86554,4
641.855,333.378,     10.05595,     -1.81077,50.00000,31.00000,1.682884e-08,0.86549,4
643.489,333.458,     10.04013,     -1.79915,50.00000,31.00000,1.682884e-08,0.86549,4
645.108,333.538,     10.02506,     -1.77607,50.00000,31.00000,1.682199e-08,0.86544,4
646.727,333.618,     10.00680,     -1.77607,50.00000,31.00000,1.682199e-08,0.86544,4
648.344,333.698,      9.99222,     -1.75863,50.00000,31.00000,1.679971e-08,0.86539,4
649.966,333.778,      9.97807,     -1.75282,50.00000,31.00000,1.679971e-08,0.86539,4
651.584,333.858,      9.96658,     -1.75282,50.00000,31.00000,1.678248e-08,0.86535,4
653.199,333.938,      9.95240,     -1.72957,50.00000,31.00000,1.678248e-08,0.86535,4
654.825,334.018,      9.94205,     -1.72957,50.00000,31.00000,1.679042e-08,0.86529,4
656.44,334.098,      9.93123,     -1.75282,50.00000,31.00000,1.679042e-08,0.86529,4
658.068,334.178,      9.92301,     -1.72957,50.00000,31.00000,1.682523e-08,0.86525,4
659.675,334.258,      9.91243,     -1.72957,50.00000,31.00000,1.682523e-08,0.86525,4
661.298,334.338,      9.90603,     -1.72957,50.00000,31.00000,1.682523e-08,0.86525,4
662.923,334.418,      9.90034,     -1.70632,50.00000,31.00000,1.680007e-08,0.86520,4
664.535,334.498,      9.89703,     -1.68325,50.00000,31.00000,1.680007e-08,0.86520,4
666.16,334.578,      9.88884,     -1.70632,50.00000,31.00000,1.678731e-08,0.86514,4
667.768,334.658,      9.88533,     -1.68906,50.00000,31.00000,1.678731e-08,0.86514,4
669.394,334.738,      9.87853,     -1.68325,50.00000,31.00000,1.678841e-08,0.86510,4
671.006,334.818,      9.87647,     -1.68325,50.00000,31.00000,1.678841e-08,0.86510,4
672.625,334.898,      9.87414,     -1.68325,50.00000,31.00000,1.678377e-08,0.86505,4
674.253,334.978,      9.87130,     -1.68325,50.00000,31.00000,1.678377e-08,0.86505,4
675.869,335.058,      9.86723,     -1.68325,50.00000,31.00000,1.679896e-08,0.86501,4
677.488,335.138,      9.86495,     -1.67744,50.00000,31.00000,1.679896e-08,0.86501,4
679.107,335.218,      9.86392,     -1.67744,50.00000,31.00000,1.679493e-08,0.86495,4
680.723,335.298,      9.86385,     -1.67744,50.00000,31.00000,1.679493e-08,0.86495,4
682.339,335.378,      9.86055,     -1.67744,50.00000,31.00000,1.681520e-08,0.86490,4
683.965,335.458,      9.85781,     -1.66000,50.00000,31.00000,1.681520e-08,0.86490,4
685.577,335.538,      9.85645,     -1.66000,50.00000,31.00000,1.678525e-08,0.86486,4
687.193,335.618,      9.85269,     -1.66000,50.00000,31.00000,1.678525e-08,0.86486,4
688.811,335.698,      9.85232,     -1.63675,50.00000,31.00000,1.678525e-08,0.86486,4
690.426,335.778,      9.84736,     -1.66000,50.00000,31.00000,1.679556e-08,0.86480,4
692.036,335.858,      9.84573,     -1.66000,50.00000,31.00000,1.679556e-08,0.86480,4
693.645,335.938,      9.84431,     -1.63675,50.00000,31.00000,1.682130e-08,0.86474,4
695.273,336.018,      9.84193,     -1.63675,50.00000,31.00000,1.682130e-08,0.86474,4
696.889,336.098,      9.84339,     -1.66000,50.00000,31.00000,1.678569e-08,0.86470,4
698.515,336.178,      9.84409,     -1.63675,50.00000,31.00000,1.678569e-08,0.86470,4
700.119,336.258,      9.84320,     -1.63675,50.00000,31.00000,1.679917e-08,0.86466,4
701.738,336.338,      9.84078,     -1.63675,50.00000,31.00000,1.679917e-08,0.86466,4
703.346,336.418,      9.84008,     -1.63675,50.00000,31.00000,1.675980e-08,0.86461,4
704.968,336.498,      9.83812,     -1.63675,50.00000,31.00000,1.675980e-08,0.86461,4
706.588,336.578,      9.83365,     -1.63675,50.00000,31.00000,1.682975e-08,0.86456,4
708.197,336.658,      9.82903,     -1.63675,50.00000,31.00000,1.682975e-08,0.86456,4
709.809,336.738,      9.82464,     -1.63675,50.00000,31.00000,1.677904e-08,0.86450,4
711.429,336.818,      9.81864,     -1.63675,50.00000,31.00000,1.677904e-08,0.86450,4
713.049,336.898,      9.81176,     -1.63675,50.00000,31.00000,1.681757e-08,0.86445,4
714.662,336.978,      9.80530,     -1.61350,50.00000,31.00000,1.681757e-08,0.86445,4
716.285,337.058,      9.79641,     -1.63675,50.00000,31.00000,1.681757e-08,0.86445,4
717.885,337.138,      9.78779,     -1.64838,50.00000,31.00000,1.680120e-08,0.86441,4
719.496,337.218,      9.78112,     -1.66000,50.00000,31.00000,1.680120e-08,0.86441,4
721.113,337.298,      9.77034,     -1.63675,50.00000,31.00000,1.681966e-08,0.86436,4
722.731,337.378,      9.76195,     -1.63675,50.00000,31.00000,1.681966e-08,0.86436,4
724.34,337.458,      9.75425,     -1.65419,50.00000,31.00000,1.683788e-08,0.86430,4
725.951,337.538,      9.74430,     -1.63675,50.00000,31.00000,1.683788e-08,0.86430,4
727.561,337.618,      9.73483,     -1.63675,50.00000,31.00000,1.681964e-08,0.86426,4
729.178,337.698,      9.72508,     -1.63675,50.00000,31.00000,1.681964e-08,0.86426,4
730.794,337.778,      9.71635,     -1.63675,50.00000,31.00000,1.682191e-08,0.86421,4
732.403,337.858,      9.70420,     -1.63675,50.00000,31.00000,1.682191e-08,0.86421,4
734.019,337.938,      9.69010,     -1.63675,50.00000,31.00000,1.678310e-08,0.86416,4
735.628,338.018,      9.67254,     -1.63675,50.00000,31.00000,1.678310e-08,0.86416,4
737.244,338.098,      9.65745,     -1.63094,50.00000,31.00000,1.681723e-08,0.86411,4
738.858,338.178,      9.63949,     -1.62513,50.00000,31.00000,1.681723e-08,0.86411,4
740.475,338.258,      9.62258,     -1.63675,50.00000,31.00000,1.677524e-08,0.86406,4
742.09,338.338,      9.60753,     -1.63675,50.00000,31.00000,1.677524e-08,0.86406,4
743.704,338.418,      9.58988,     -1.63675,50.00000,31.00000,1.680115e-08,0.86401,4
745.318,338.498,      9.57355,     -1.63675,50.00000,31.00000,1.680115e-08,0.86401,4
746.928,338.578,      9.55656,     -1.63675,50.00000,31.00000,1.680115e-08,0.86401,4
748.541,338.658,      9.53475,     -1.63675,50.00000,31.00000,1.678143e-08,0.86397,4
750.152,338.738,      9.51732,     -1.63675,50.00000,31.00000,1.678143e-08,0.86397,4
751.758,338.818,      9.49949,     -1.63675,50.00000,31.00000,1.678184e-08,0.86391,4
753.377,338.898,      9.48141,     -1.61350,50.00000,31.00000,1.678184e-08,0.86391,4
754.988,338.978,      9.46178,     -1.63675,50.00000,31.00000,1.680031e-08,0.86386,4
756.594,339.058,      9.44400,     -1.63675,50.00000,31.00000,1.680031e-08,0.86386,4
758.218,339.138,      9.42178,     -1.63675,50.00000,31.00000,1.682437e-08,0.86381,4
759.829,339.218,      9.40276,     -1.62513,50.00000,31.00000,1.682437e-08,0.86381,4
761.445,339.298,      9.37974,     -1.61350,50.00000,31.00000,1.678483e-08,0.86377,4
763.059,339.378,      9.35917,     -1.61350,50.00000,31.00000,1.678483e-08,0.86377,4
764.669,339.458,      9.33621,     -1.63094,50.00000,31.00000,1.675884e-08,0.86372,4
766.287,339.538,      9.31466,     -1.63675,50.00000,31.00000,1.675884e-08,0.86372,4
767.897,339.618,      9.29154,     -1.61350,50.00000,31.00000,1.678320e-08,0.86367,4
769.51,339.698,      9.26921,     -1.61350,50.00000,31.00000,1.678320e-08,0.86367,4
771.125,339.778,      9.24511,     -1.61350,50.00000,31.00000,1.678508e-08,0.86361,4
772.743,339.858,      9.22552,     -1.61350,50.00000,31.00000,1.678508e-08,0.86361,4
774.351,339.938,      9.19804,     -1.61350,50.00000,31.00000,1.677224e-08,0.86356,4
775.966,340.018,      9.17512,     -1.61350,50.00000,31.00000,1.677224e-08,0.86356,4
777.565,340.098,      9.15113,     -1.61350,50.00000,31.00000,1.677224e-08,0.86356,4
779.186,340.178,      9.12436,     -1.61350,50.00000,31.00000,1.679454e-08,0.86351,4
780.792,340.258,      9.10026,     -1.61350,50.00000,31.00000,1.679454e-08,0.86351,4
782.389,340.338,      9.07773,     -1.59043,50.00000,31.00000,1.679718e-08,0.86347,4
784.015,340.418,      9.05595,     -1.61350,50.00000,31.00000,1.679718e-08,0.86347,4
785.63,340.498,      9.03111,     -1.61350,50.00000,31.00000,1.680705e-08,0.86342,4
787.24,340.578,      9.00904,     -1.59043,50.00000,31.00000,1.680705e-08,0.86342,4
788.854,340.658,      8.98549,     -1.59043,50.00000,31.00000,1.681783e-08,0.86337,4
790.454,340.738,      8.95855,     -1.59043,50.00000,31.00000,            ,0.44872,4
792.065,340.818,      8.93481,     -1.61350,50.00000,31.00000,            ,0.44807,4
793.678,340.898,      8.91335,     -1.61350,50.00000,31.00000,            ,0.44742,4
794.388,340.933,      8.90153,     -1.58650,50.00000,31.00000,            ,0.44714,4