File: data/TGA/commercial_samples/ExpDat_2025_08_22_SL_PS_Cup_Lid_SCF3_Dynamic.csv
#EXPORTTYPE:                 ,DATA ALL
#FILE:                       ,2025_08_22_SL_PS_Cup_Lid_SCF3_Dynamic.ngb-ss5
#FORMAT:                     ,NETZSCH5
#FTYPE:                      ,ASCII
#IDENTITY:                   ,PS-Cup-Lid-SCF3
#DECIMAL:                    ,POINT
#SEPARATOR:                  ,COMMA
#MTYPE:                      ,DSC
#INSTRUMENT:                 ,NETZSCH STA 449F5
#PROJECT:                    ,Polystyrene
#DATE/TIME:                  ,8/22/2025 5:43:50 PM (UTC-4)
#CORR. FILE:                 ,
#TEMPCAL:                    ,05-05-2025 14:38
#SENSITIVITY:                ,28-06-2023 13:53
#LABORATORY:                 ,Tran/AAG
#OPERATOR:                   ,Stanley
#REMARK:                     ,2025_03_20_Styrofoam_dynamic
#SAMPLE:                     ,PS-Cup-Lid-SCF3
#SAMPLE MASS /mg:            ,3.26
#MATERIAL:                   ,Polystyrene
#REFERENCE:                  ,
#REFERENCE MASS /mg:         ,0
#TYPE OF CRUCIBLE:           ,Al2O3 85 ‘l, open
#SAMPLE CRUCIBLE MASS /mg:   ,0
#REFERENCE CRUCIBLE MASS /mg:,0
#DSC RANGE /‘V:              ,5000
#TG RANGE /mg:               ,35000
#TAU-R:                      ,---
#CORR. CODE:                 ,000
#EXO:                        ,-1
#RANGE:                      ,20›C....800›C/0.0....20.0K/min
#SEGMENT:                    ,S1-4/4
#SEG. 1:                     ,20›C/5.0(K/min)/100›C
#SEG. 2:                     ,100›C/00:05/100›C
#SEG. 3:                     ,100›C/1.0(K/min)/400›C
#SEG. 4:                     ,400›C/20.0(K/min)/800›C

##Temp./›C,Time/min,DSC/(mW/mg),Mass/%,Gas Flow(purge2)/(ml/min),Gas Flow(protective)/(ml/min),TIC(scan:1)/A,Sensit./(uV/mW),Segment
 28.24600,  0.00000,      0.84084,    100,50.00000,54.00000,            ,0.92322,1
 30.87500,  1.06667,      0.48695,     98.96227,50.00000,51.00000,9.881779e-09,0.92343,1
 32.58000,  2.13333,      0.28975,     84.93497,50.00000,51.00000,9.874300e-09,0.92361,1
 33.87200,  3.20000,      0.21903,     85.62914,50.00000,51.00000,9.861854e-09,0.92378,1
 35.62300,  4.26667,      0.34428,     85.66718,50.00000,51.00000,9.858087e-09,0.92390,1
 38.34200,  5.33333,      0.58857,     86.07669,50.00000,51.00000,9.868002e-09,0.92399,1
 42.01700,  6.40000,      0.85159,     86.72577,50.00000,51.00000,9.898456e-09,0.92409,1
 46.65900,  7.46667,      1.10678,     87.42669,50.00000,51.00000,9.879906e-09,0.92417,1
 52.06300,  8.53333,      1.34016,     88.12086,50.00000,51.00000,9.869970e-09,0.92425,1
 58.04400,  9.60000,      1.53174,     88.67975,50.00000,51.00000,9.883915e-09,0.92436,1
 64.42900, 10.66667,      1.67796,     89.14479,50.00000,51.00000,9.878058e-09,0.92447,1
 70.94800, 11.73333,      1.78378,     89.47791,50.00000,51.00000,9.888740e-09,0.92460,1
 77.50500, 12.80000,      1.85456,     89.73098,50.00000,51.00000,9.872578e-09,0.92477,1
 83.99800, 13.86667,      1.90037,     89.89785,50.00000,51.00000,9.875686e-09,0.92492,1
 90.44000, 14.93333,      1.92092,     89.98436,50.00000,51.00000,9.873379e-09,0.92509,1
 96.35400, 15.93500,      1.92324,     90.02607,50.00000,51.00000,9.869301e-09,0.92525,1
100.617, 16.73500,      1.74746,     89.58190,50.00000,51.00000,9.884361e-09,0.92539,2
103.482, 17.53500,      1.24196,     88.60337,50.00000,51.00000,9.884778e-09,0.92553,2
105.405, 18.33500,      0.84897,     87.90920,50.00000,51.00000,9.866754e-09,0.92564,2
106.759, 19.13500,      0.60135,     87.31227,50.00000,51.00000,9.876310e-09,0.92576,2
107.595, 19.93500,      0.36365,     86.61810,50.00000,51.00000,9.863577e-09,0.92587,2
107.902, 20.73500,      0.13728,     85.98650,50.00000,51.00000,9.886825e-09,0.92597,2
107.779, 21.73500,-4.991631e-02,     85.33067,50.00000,51.00000,9.870618e-09,0.92607,3
107.582, 22.80167,-8.047232e-02,     84.95583,50.00000,51.00000,9.858122e-09,0.92615,3
107.368, 23.86833,-9.192581e-02,     84.61933,50.00000,51.00000,9.883776e-09,0.92619,3
107.186, 24.93500,-7.307813e-02,     84.35890,50.00000,51.00000,9.884677e-09,0.92620,3
107.159, 26.00167,-2.011541e-02,     84.23405,50.00000,51.00000,9.871412e-09,0.92617,3
107.318, 27.06833, 3.921427e-02,     84.14724,50.00000,51.00000,9.864825e-09,0.92610,3
107.674, 28.13500,      0.10339,     84.07454,50.00000,51.00000,9.859138e-09,0.92600,3
108.188, 29.20167,      0.16276,     83.99110,50.00000,51.00000,9.871134e-09,0.92583,3
108.888, 30.26833,      0.21782,     83.97025,50.00000,51.00000,9.873371e-09,0.92564,3
109.694, 31.33500,      0.26477,     83.92853,50.00000,51.00000,9.876508e-09,0.92542,3
110.61, 32.40167,      0.30283,     83.86626,50.00000,51.00000,9.856908e-09,0.92516,3
111.602, 33.46833,      0.33353,     83.78650,50.00000,51.00000,9.874318e-09,0.92481,3
112.675, 34.53500,      0.35661,     83.76564,50.00000,51.00000,9.884216e-09,0.92448,3
113.782, 35.60167,      0.37461,     83.70307,50.00000,51.00000,9.860856e-09,0.92411,3
114.882, 36.66833,      0.38472,     83.65092,50.00000,51.00000,9.879409e-09,0.92364,3
116.016, 37.73500,      0.39203,     83.59908,50.00000,51.00000,9.870998e-09,0.92320,3
117.159, 38.80167,      0.39705,     83.59202,50.00000,51.00000,9.869889e-09,0.92273,3
118.282, 39.86833,      0.39696,     83.46350,50.00000,51.00000,9.878104e-09,0.92224,3
119.405, 40.93500,      0.39713,     83.46012,50.00000,51.00000,9.901066e-09,0.92176,3
120.529, 42.00167,      0.39705,     83.33528,50.00000,51.00000,9.871693e-09,0.92136,3
121.623, 43.06833,      0.39773,     83.33528,50.00000,51.00000,9.870753e-09,0.92093,3
122.714, 44.13500,      0.39637,     83.27270,50.00000,51.00000,9.869479e-09,0.92061,3
123.82, 45.20167,      0.39629,     83.23466,50.00000,51.00000,9.875743e-09,0.92033,3
124.884, 46.26833,      0.39467,     83.19294,50.00000,51.00000,9.865704e-09,0.92010,3
125.98, 47.33500,      0.39614,     83.15123,50.00000,51.00000,9.867006e-09,0.91986,3
127.043, 48.40167,      0.39606,     83.10613,50.00000,51.00000,9.883733e-09,0.91967,3
128.112, 49.46833,      0.39624,     83.07853,50.00000,51.00000,9.874929e-09,0.91950,3
129.193, 50.53500,      0.39618,     83.02638,50.00000,51.00000,9.867764e-09,0.91936,3
130.253, 51.60167,      0.39662,     83.02301,50.00000,51.00000,9.855147e-09,0.91921,3
131.31, 52.66833,      0.39912,     82.97086,50.00000,51.00000,9.875334e-09,0.91911,3
132.382, 53.73500,      0.40112,     82.97086,50.00000,51.00000,9.866065e-09,0.91902,3
133.438, 54.80167,      0.40157,     82.97086,50.00000,51.00000,9.873152e-09,0.91896,3
134.51, 55.86833,      0.40152,     82.93957,50.00000,51.00000,9.858964e-09,0.91892,3
135.589, 56.93500,      0.40610,     82.93957,50.00000,51.00000,9.871460e-09,0.91890,3
136.644, 58.00167,      0.40477,     82.85644,50.00000,51.00000,9.878426e-09,0.91891,3
137.711, 59.06833,      0.40446,     82.81472,50.00000,51.00000,9.845182e-09,0.91892,3
138.789, 60.13500,      0.40726,     82.81472,50.00000,51.00000,9.860803e-09,0.91895,3
139.865, 61.20167,      0.40696,     82.76258,50.00000,51.00000,9.859384e-09,0.91898,3
140.918, 62.26833,      0.40821,     82.75920,50.00000,51.00000,9.872207e-09,0.91900,3
141.979, 63.33500,      0.40792,     82.71748,50.00000,51.00000,9.873045e-09,0.91902,3
143.035, 64.40167,      0.40788,     82.68620,50.00000,51.00000,9.895616e-09,0.91904,3
144.112, 65.46833,      0.40708,     82.66534,50.00000,51.00000,9.862505e-09,0.91907,3
145.18, 66.53500,      0.40886,     82.66534,50.00000,51.00000,9.875574e-09,0.91909,3
146.252, 67.60167,      0.41091,     82.58221,50.00000,51.00000,9.882419e-09,0.91910,3
147.338, 68.66833,      0.40830,     82.54049,50.00000,51.00000,9.876229e-09,0.91912,3
148.393, 69.73500,      0.40750,     82.49877,50.00000,51.00000,9.855628e-09,0.91912,3
149.458, 70.80167,      0.40774,     82.46779,50.00000,51.00000,9.877415e-09,0.91911,3
150.538, 71.86833,      0.40903,     82.42607,50.00000,51.00000,9.848841e-09,0.91909,3
151.6, 72.93500,      0.40875,     82.38436,50.00000,51.00000,9.860905e-09,0.91907,3
152.673, 74.00167,      0.40693,     82.34264,50.00000,51.00000,9.886676e-09,0.91904,3
153.747, 75.06833,      0.40640,     82.31135,50.00000,51.00000,9.868145e-09,0.91900,3
154.812, 76.13500,      0.40457,     82.26994,50.00000,51.00000,9.855238e-09,0.91895,3
155.871, 77.20167,      0.40639,     82.22485,50.00000,51.00000,9.863555e-09,0.91890,3
156.943, 78.26833,      0.40404,     82.18313,50.00000,51.00000,9.866845e-09,0.91884,3
158.005, 79.33500,      0.40299,     82.17270,50.00000,51.00000,9.859264e-09,0.91876,3
159.076, 80.40167,      0.40352,     82.08589,50.00000,51.00000,9.886870e-09,0.91868,3
160.14, 81.46833,      0.40143,     82.05123,50.00000,51.00000,9.868570e-09,0.91860,3
161.198, 82.53500,      0.40248,     81.97822,50.00000,51.00000,9.857892e-09,0.91850,3
162.275, 83.60167,      0.40040,     81.96442,50.00000,51.00000,9.884006e-09,0.91840,3
163.336, 84.66833,      0.40119,     81.89172,50.00000,51.00000,9.868550e-09,0.91831,3
164.423, 85.73500,      0.40068,     81.82914,50.00000,51.00000,9.863799e-09,0.91820,3
165.48, 86.80167,      0.39597,     81.74939,50.00000,51.00000,9.856930e-09,0.91808,3
166.551, 87.86833,      0.39310,     81.85337,50.00000,51.00000,9.866658e-09,0.91796,3
167.614, 88.93500,      0.39233,     81.66933,50.00000,51.00000,9.860689e-09,0.91785,3
168.69, 90.00167,      0.39077,     81.58620,50.00000,51.00000,9.883154e-09,0.91770,3
169.749, 91.06833,      0.38973,     81.50276,50.00000,51.00000,9.874626e-09,0.91758,3
170.797, 92.13500,      0.39000,     81.44049,50.00000,51.00000,9.875130e-09,0.91745,3
171.872, 93.20167,      0.38713,     81.41963,50.00000,51.00000,9.871888e-09,0.91732,3
172.945, 94.26833,      0.38610,     81.31196,50.00000,51.00000,9.848778e-09,0.91717,3
174.012, 95.33500,      0.38269,     81.24969,50.00000,51.00000,9.879543e-09,0.91703,3
175.081, 96.40167,      0.38034,     81.16626,50.00000,51.00000,9.868932e-09,0.91690,3
176.138, 97.46833,      0.37851,     81.09325,50.00000,51.00000,9.852173e-09,0.91674,3
177.204, 98.53500,      0.37562,     81.03773,50.00000,51.00000,9.875837e-09,0.91660,3
178.257, 99.60167,      0.37300,     80.95460,50.00000,51.00000,9.858171e-09,0.91646,3
179.341,100.668,      0.37196,     80.91288,50.00000,51.00000,9.875542e-09,0.91632,3
180.396,101.735,      0.36828,     80.78804,50.00000,51.00000,9.880585e-09,0.91615,3
181.47,102.802,      0.36803,     80.63528,50.00000,51.00000,9.875432e-09,0.91600,3
182.538,103.868,      0.36302,     80.63528,50.00000,51.00000,9.861635e-09,0.91585,3
183.602,104.935,      0.35959,     80.52086,50.00000,51.00000,9.873623e-09,0.91571,3
184.67,106.002,      0.35775,     80.39571,50.00000,51.00000,9.891028e-09,0.91554,3
185.73,107.068,      0.35538,     80.30215,50.00000,51.00000,9.893829e-09,0.91539,3
186.801,108.135,      0.35513,     80.17730,50.00000,51.00000,9.874860e-09,0.91525,3
187.866,109.202,      0.35275,     80.09387,50.00000,51.00000,9.888018e-09,0.91507,3
188.943,110.268,      0.34772,     79.98620,50.00000,51.00000,9.875022e-09,0.91492,3
190.019,111.335,      0.34454,     79.86840,50.00000,51.00000,9.887473e-09,0.91477,3
191.077,112.402,      0.34375,     79.75368,50.00000,51.00000,9.888958e-09,0.91463,3
192.142,113.468,      0.33923,     79.62883,50.00000,51.00000,9.908335e-09,0.91445,3
193.206,114.535,      0.33738,     79.54571,50.00000,51.00000,9.897418e-09,0.91430,3
194.281,115.602,      0.33365,     79.38957,50.00000,51.00000,9.906920e-09,0.91415,3
195.35,116.668,      0.33046,     79.29571,50.00000,51.00000,9.902078e-09,0.91397,3
196.399,117.735,      0.32859,     79.16748,50.00000,51.00000,9.892887e-09,0.91382,3
197.481,118.802,      0.32459,     79.04233,50.00000,51.00000,9.883143e-09,0.91366,3
198.535,119.868,      0.32272,     78.91748,50.00000,51.00000,9.908899e-09,0.91349,3
199.612,120.935,      0.32165,     78.75092,50.00000,51.00000,9.904171e-09,0.91333,3
200.672,122.002,      0.31602,     78.62607,50.00000,51.00000,9.892470e-09,0.91318,3
201.749,123.068,      0.31092,     78.50092,50.00000,51.00000,9.904137e-09,0.91300,3
202.812,124.135,      0.31012,     78.33436,50.00000,51.00000,9.891685e-09,0.91284,3
203.87,125.202,      0.30392,     78.19908,50.00000,51.00000,9.903752e-09,0.91268,3
204.944,126.268,      0.30015,     78.10552,50.00000,51.00000,9.906410e-09,0.91253,3
206.006,127.335,      0.29826,     77.94233,50.00000,51.00000,9.900877e-09,0.91234,3
207.082,128.402,      0.29556,     77.77239,50.00000,51.00000,9.902138e-09,0.91218,3
208.143,129.468,      0.28744,     77.60552,50.00000,51.00000,9.885771e-09,0.91202,3
209.188,130.535,      0.28472,     77.44939,50.00000,51.00000,9.874199e-09,0.91184,3
210.256,131.602,      0.28227,     77.27239,50.00000,51.00000,9.899284e-09,0.91168,3
211.334,132.668,      0.27684,     77.10583,50.00000,51.00000,9.912395e-09,0.91152,3
212.403,133.735,      0.27384,     76.93926,50.00000,51.00000,9.910662e-09,0.91136,3
213.473,134.802,      0.26839,     76.77270,50.00000,51.00000,9.906030e-09,0.91117,3
214.523,135.868,      0.26511,     76.64448,50.00000,51.00000,9.926810e-09,0.91100,3
215.604,136.935,      0.26128,     76.43620,50.00000,51.00000,9.907947e-09,0.91084,3
216.677,138.002,      0.25717,     76.26963,50.00000,51.00000,9.886821e-09,0.91065,3
217.738,139.068,      0.25087,     76.12393,50.00000,51.00000,9.881427e-09,0.91048,3
218.806,140.135,      0.24701,     75.88436,50.00000,51.00000,9.898148e-09,0.91031,3
219.868,141.202,      0.24042,     75.66564,50.00000,51.00000,9.903016e-09,0.91012,3
220.946,142.268,      0.23710,     75.48190,50.00000,51.00000,9.883756e-09,0.90994,3
221.998,143.335,      0.23212,     75.31534,50.00000,51.00000,9.895420e-09,0.90978,3
223.069,144.402,      0.22605,     75.10706,50.00000,51.00000,9.897668e-09,0.90961,3
224.132,145.468,      0.22079,     74.89877,50.00000,51.00000,9.889124e-09,0.90941,3
225.202,146.535,      0.21716,     74.76350,50.00000,51.00000,9.893445e-09,0.90924,3
226.272,147.602,      0.21353,     74.54479,50.00000,51.00000,9.904186e-09,0.90906,3
227.326,148.668,      0.20521,     74.34018,50.00000,51.00000,9.908269e-09,0.90886,3
228.395,149.735,      0.19963,     74.11442,50.00000,51.00000,9.908272e-09,0.90868,3
229.47,150.802,      0.19432,     73.90276,50.00000,51.00000,9.902376e-09,0.90851,3
230.523,151.868,      0.18762,     73.73620,50.00000,51.00000,9.905620e-09,0.90833,3
231.593,152.935,      0.18394,     73.47239,50.00000,51.00000,9.900837e-09,0.90813,3
232.667,154.002,      0.18054,     73.29540,50.00000,51.00000,9.894245e-09,0.90796,3
233.721,155.068,      0.17242,     73.04571,50.00000,51.00000,9.901203e-09,0.90777,3
234.791,156.135,      0.16595,     72.83742,50.00000,51.00000,9.912058e-09,0.90759,3
235.857,157.202,      0.16057,     72.62914,50.00000,51.00000,9.884095e-09,0.90738,3
236.916,158.268,      0.15213,     72.41748,50.00000,51.00000,9.897205e-09,0.90720,3
238,159.335,      0.14868,     72.20920,50.00000,51.00000,9.920141e-09,0.90701,3
239.054,160.402,      0.14104,     71.99417,50.00000,51.00000,9.899904e-09,0.90683,3
240.124,161.468,      0.13646,     71.78589,50.00000,51.00000,9.907005e-09,0.90662,3
241.191,162.535,      0.12935,     71.53589,50.00000,51.00000,9.892513e-09,0.90643,3
242.264,163.602,      0.12363,     71.30000,50.00000,51.00000,9.894781e-09,0.90625,3
243.333,164.668,      0.11482,     71.09172,50.00000,51.00000,9.896199e-09,0.90604,3
244.388,165.735,      0.10795,     70.89387,50.00000,51.00000,9.900593e-09,0.90585,3
245.456,166.802,      0.10219,     70.59202,50.00000,51.00000,9.923609e-09,0.90566,3
246.515,167.868, 9.697313e-02,     70.38374,50.00000,51.00000,9.909783e-09,0.90544,3
247.592,168.935, 9.034518e-02,     70.17577,50.00000,51.00000,9.892560e-09,0.90525,3
248.65,170.002, 7.892648e-02,     69.96043,50.00000,51.00000,9.907143e-09,0.90506,3
249.716,171.068, 7.282640e-02,     69.71074,50.00000,51.00000,9.899499e-09,0.90487,3
250.787,172.135, 6.868401e-02,     69.49877,50.00000,51.00000,9.902760e-09,0.90464,3
251.849,173.202, 6.086871e-02,     69.31135,50.00000,51.00000,9.912209e-09,0.90445,3
252.928,174.268, 5.473008e-02,     69.06166,50.00000,51.00000,9.912184e-09,0.90425,3
253.986,175.335, 4.547017e-02,     68.81166,50.00000,51.00000,9.904479e-09,0.90402,3
255.053,176.402, 3.590762e-02,     68.60368,50.00000,51.00000,9.899001e-09,0.90383,3
256.126,177.468, 2.887153e-02,     68.38129,50.00000,51.00000,9.890047e-09,0.90363,3
257.193,178.535, 2.210294e-02,     68.16963,50.00000,51.00000,9.918366e-09,0.90343,3
258.246,179.602, 1.078003e-02,     67.91994,50.00000,51.00000,9.894728e-09,0.90321,3
259.307,180.668, 5.396059e-03,     67.71166,50.00000,51.00000,9.897684e-09,0.90301,3
260.373,181.735,-1.990268e-03,     67.50337,50.00000,51.00000,9.910315e-09,0.90281,3
261.434,182.802,-5.408255e-03,     67.27454,50.00000,51.00000,9.891171e-09,0.90258,3
262.514,183.868,-1.225385e-02,     67.04540,50.00000,51.00000,9.902913e-09,0.90238,3
263.583,184.935,-2.396517e-02,     66.83712,50.00000,51.00000,9.890169e-09,0.90218,3
264.64,186.002,-3.170424e-02,     66.58712,50.00000,51.00000,9.916592e-09,0.90194,3
265.721,187.068,-4.117779e-02,     66.37914,50.00000,51.00000,9.917783e-09,0.90173,3
266.791,188.135,-5.153185e-02,     66.17086,50.00000,51.00000,9.929157e-09,0.90153,3
267.845,189.202,-5.990268e-02,     65.96258,50.00000,51.00000,9.906326e-09,0.90129,3
268.93,190.268,-6.944300e-02,     65.71258,50.00000,51.00000,9.894243e-09,0.90108,3
269.98,191.335,-7.670480e-02,     65.48374,50.00000,51.00000,9.891820e-09,0.90088,3
271.047,192.402,-8.829936e-02,     65.28589,50.00000,51.00000,9.929256e-09,0.90067,3
272.115,193.468,-9.272247e-02,     65.07761,50.00000,51.00000,9.902892e-09,0.90043,3
273.19,194.535,     -0.10350,     64.83466,50.00000,51.00000,9.911648e-09,0.90022,3
274.256,195.602,     -0.11113,     64.65767,50.00000,51.00000,9.915143e-09,0.90001,3
275.317,196.668,     -0.12166,     64.43558,50.00000,51.00000,9.890170e-09,0.89977,3
276.401,197.735,     -0.13251,     64.24816,50.00000,51.00000,9.919545e-09,0.89955,3
277.445,198.802,     -0.14310,     64.02975,50.00000,51.00000,9.893870e-09,0.89935,3
278.518,199.868,     -0.15023,     63.84233,50.00000,51.00000,9.901939e-09,0.89913,3
279.587,200.935,     -0.15999,     63.63405,50.00000,51.00000,9.897694e-09,0.89888,3
280.653,202.002,     -0.17094,     63.42239,50.00000,51.00000,9.895448e-09,0.89867,3
281.709,203.068,     -0.17929,     63.20706,50.00000,51.00000,9.915200e-09,0.89845,3
282.774,204.135,     -0.18883,     62.99877,50.00000,51.00000,9.892590e-09,0.89820,3
283.854,205.202,     -0.19986,     62.83221,50.00000,51.00000,9.904959e-09,0.89798,3
284.917,206.268,     -0.20916,     62.58252,50.00000,51.00000,9.911345e-09,0.89777,3
285.974,207.335,     -0.21848,     62.41595,50.00000,51.00000,9.915707e-09,0.89752,3
287.052,208.402,     -0.22841,     62.20767,50.00000,51.00000,9.909186e-09,0.89730,3
288.119,209.468,     -0.23866,     61.99939,50.00000,51.00000,9.924365e-09,0.89708,3
289.172,210.535,     -0.24864,     61.79110,50.00000,51.00000,9.896872e-09,0.89686,3
290.243,211.602,     -0.25600,     61.62454,50.00000,51.00000,9.908477e-09,0.89661,3
291.309,212.668,     -0.26779,     61.45798,50.00000,51.00000,9.897125e-09,0.89638,3
292.37,213.735,     -0.28020,     61.25675,50.00000,51.00000,9.920349e-09,0.89617,3
293.439,214.802,     -0.29206,     61.07975,50.00000,51.00000,9.905285e-09,0.89591,3
294.506,215.868,     -0.29951,     60.86472,50.00000,51.00000,9.922659e-09,0.89567,3
295.562,216.935,     -0.31053,     60.68405,50.00000,51.00000,9.904242e-09,0.89545,3
296.64,218.002,     -0.32040,     60.47607,50.00000,51.00000,9.917455e-09,0.89522,3
297.703,219.068,     -0.33058,     60.27822,50.00000,51.00000,9.913123e-09,0.89495,3
298.763,220.135,     -0.34050,     60.14294,50.00000,51.00000,9.904805e-09,0.89473,3
299.827,221.202,     -0.35014,     59.93466,50.00000,51.00000,9.921800e-09,0.89450,3
300.905,222.268,     -0.36190,     59.76810,50.00000,51.00000,9.897943e-09,0.89423,3
301.972,223.335,     -0.36951,     59.55276,50.00000,51.00000,9.908755e-09,0.89401,3
303.03,224.402,     -0.38280,     59.34110,50.00000,51.00000,9.903250e-09,0.89378,3
304.101,225.468,     -0.39255,     59.23712,50.00000,51.00000,9.900315e-09,0.89356,3
305.184,226.535,     -0.40084,     59.00798,50.00000,51.00000,9.907133e-09,0.89328,3
306.237,227.602,     -0.41482,     58.86227,50.00000,51.00000,9.914348e-09,0.89306,3
307.299,228.668,     -0.42855,     58.65399,50.00000,51.00000,9.905835e-09,0.89282,3
308.366,229.735,     -0.43661,     58.50123,50.00000,51.00000,9.918952e-09,0.89255,3
309.444,230.802,     -0.44620,     58.34509,50.00000,51.00000,9.914336e-09,0.89232,3
310.507,231.868,     -0.45941,     58.17853,50.00000,51.00000,9.913795e-09,0.89208,3
311.579,232.935,     -0.46634,     57.97025,50.00000,51.00000,9.909461e-09,0.89185,3
312.651,234.002,     -0.47691,     57.82454,50.00000,51.00000,9.934737e-09,0.89157,3
313.716,235.068,     -0.49687,     57.67883,50.00000,51.00000,9.919188e-09,0.89134,3
314.779,236.135,     -0.50448,     57.51227,50.00000,51.00000,9.916068e-09,0.89110,3
315.842,237.202,     -0.51483,     57.34233,50.00000,51.00000,9.922891e-09,0.89083,3
316.907,238.268,     -0.52976,     57.13405,50.00000,51.00000,9.933144e-09,0.89059,3
317.982,239.335,     -0.53715,     56.96748,50.00000,51.00000,9.927516e-09,0.89034,3
319.045,240.402,     -0.54698,     56.80092,50.00000,51.00000,9.916953e-09,0.89011,3
320.111,241.468,     -0.55957,     56.67577,50.00000,51.00000,9.907423e-09,0.88982,3
321.193,242.535,     -0.56825,     56.46779,50.00000,51.00000,9.919993e-09,0.88959,3
322.257,243.602,     -0.58366,     56.30123,50.00000,51.00000,9.933363e-09,0.88934,3
323.319,244.668,     -0.59422,     56.11380,50.00000,51.00000,9.919705e-09,0.88906,3
324.391,245.735,     -0.60787,     55.94724,50.00000,51.00000,9.921266e-09,0.88882,3
325.445,246.802,     -0.61879,     55.81166,50.00000,51.00000,9.939975e-09,0.88857,3
326.504,247.868,     -0.62912,     55.64509,50.00000,51.00000,9.928864e-09,0.88833,3
327.575,248.935,     -0.63796,     55.45767,50.00000,51.00000,9.944524e-09,0.88804,3
328.647,250.002,     -0.64867,     55.27055,50.00000,51.00000,9.926492e-09,0.88779,3
329.716,251.068,     -0.66341,     55.09356,50.00000,51.00000,9.943903e-09,0.88753,3
330.789,252.135,     -0.67294,     54.92669,50.00000,51.00000,9.937714e-09,0.88726,3
331.833,253.202,     -0.68866,     54.71871,50.00000,51.00000,9.949728e-09,0.88701,3
332.901,254.268,     -0.69640,     54.57301,50.00000,51.00000,9.925820e-09,0.88676,3
333.977,255.335,     -0.70726,     54.37515,50.00000,51.00000,9.947804e-09,0.88647,3
335.04,256.402,     -0.71908,     54.20859,50.00000,51.00000,9.944304e-09,0.88622,3
336.118,257.468,     -0.73156,     54.02117,50.00000,51.00000,9.937079e-09,0.88598,3
337.171,258.535,     -0.74591,     53.79202,50.00000,51.00000,9.939093e-09,0.88572,3
338.248,259.602,     -0.75473,     53.62546,50.00000,51.00000,9.936144e-09,0.88542,3
339.302,260.668,     -0.76666,     53.41718,50.00000,51.00000,9.956061e-09,0.88518,3
340.367,261.735,     -0.77801,     53.20890,50.00000,51.00000,9.945361e-09,0.88492,3
341.448,262.802,     -0.78816,     53.00092,50.00000,51.00000,9.922046e-09,0.88462,3
342.517,263.868,     -0.80114,     52.82393,50.00000,51.00000,9.946219e-09,0.88437,3
343.579,264.935,     -0.81290,     52.62607,50.00000,51.00000,9.944561e-09,0.88411,3
344.648,266.002,     -0.82375,     52.37607,50.00000,51.00000,9.954982e-09,0.88381,3
345.707,267.068,     -0.83556,     52.12638,50.00000,51.00000,9.948216e-09,0.88356,3
346.778,268.135,     -0.84459,     51.87301,50.00000,51.00000,9.940812e-09,0.88329,3
347.849,269.202,     -0.85837,     51.66472,50.00000,51.00000,9.964639e-09,0.88300,3
348.921,270.268,     -0.87251,     51.36963,50.00000,51.00000,9.961327e-09,0.88274,3
349.985,271.335,     -0.88383,     51.16135,50.00000,51.00000,9.973301e-09,0.88248,3
351.036,272.402,     -0.89612,     50.91166,50.00000,51.00000,9.949203e-09,0.88222,3
352.115,273.468,     -0.90530,     50.59939,50.00000,51.00000,9.950919e-09,0.88192,3
353.181,274.535,     -0.91322,     50.28681,50.00000,51.00000,9.954117e-09,0.88165,3
354.244,275.602,     -0.92402,     49.99540,50.00000,51.00000,9.942762e-09,0.88139,3
355.312,276.668,     -0.93709,     49.61718,50.00000,51.00000,9.950313e-09,0.88113,3
356.379,277.735,     -0.95178,     49.32577,50.00000,51.00000,9.944581e-09,0.88082,3
357.443,278.802,     -0.95789,     48.90583,50.00000,51.00000,9.939811e-09,0.88055,3
358.504,279.868,     -0.96945,     48.52761,50.00000,51.00000,9.954269e-09,0.88028,3
359.582,280.935,     -0.97882,     48.11104,50.00000,51.00000,9.955342e-09,0.88002,3
360.63,282.002,     -0.99267,     47.69448,50.00000,51.00000,9.958433e-09,0.87972,3
361.706,283.068,     -1.00145,     47.23650,50.00000,51.00000,9.963362e-09,0.87944,3
362.79,284.135,     -1.00931,     46.72975,50.00000,51.00000,9.943968e-09,0.87913,3
363.841,285.202,     -1.02487,     46.18497,50.00000,51.00000,9.950562e-09,0.87887,3
364.915,286.268,     -1.02599,     45.66442,50.00000,51.00000,9.966567e-09,0.87859,3
365.981,287.335,     -1.04196,     45.02239,50.00000,51.00000,9.944226e-09,0.87828,3
367.049,288.402,     -1.05248,     44.35613,50.00000,51.00000,9.961441e-09,0.87800,3
368.094,289.468,     -1.05911,     43.62730,50.00000,51.00000,9.957941e-09,0.87773,3
369.181,290.535,     -1.06776,     42.86043,50.00000,51.00000,9.959706e-09,0.87742,3
370.244,291.602,     -1.07640,     42.04816,50.00000,51.00000,9.971503e-09,0.87714,3
371.308,292.668,     -1.08376,     41.13221,50.00000,51.00000,9.972407e-09,0.87689,3
372.382,293.735,     -1.08856,     40.16043,50.00000,51.00000,9.949221e-09,0.87656,3
373.438,294.802,     -1.10149,     39.11227,50.00000,51.00000,9.957227e-09,0.87629,3
374.516,295.868,     -1.10861,     38.03313,50.00000,51.00000,9.951775e-09,0.87602,3
375.582,296.935,     -1.11574,     36.80798,50.00000,51.00000,9.961783e-09,0.87570,3
376.647,298.002,     -1.12747,     35.52055,50.00000,51.00000,9.960910e-09,0.87541,3
377.716,299.068,     -1.14022,     34.16012,50.00000,51.00000,9.959570e-09,0.87514,3
378.768,300.135,     -1.14542,     32.69571,50.00000,51.00000,9.949612e-09,0.87487,3
379.839,301.202,     -1.15889,     31.14110,50.00000,51.00000,9.957641e-09,0.87454,3
380.906,302.268,     -1.17272,     29.47853,50.00000,51.00000,9.972541e-09,0.87427,3
381.973,303.335,     -1.18593,     27.73650,50.00000,51.00000,9.941846e-09,0.87399,3
383.049,304.402,     -1.20580,     26.00123,50.00000,51.00000,9.929412e-09,0.87367,3
384.1,305.468,     -1.22568,     24.20031,50.00000,51.00000,9.949630e-09,0.87338,3
385.167,306.535,     -1.24829,     22.37822,50.00000,51.00000,9.972090e-09,0.87309,3
386.246,307.602,     -1.26900,     20.45583,50.00000,51.00000,9.946009e-09,0.87278,3
387.315,308.668,     -1.30436,     18.60245,50.00000,51.00000,9.954380e-09,0.87250,3
388.38,309.735,     -1.33616,     16.76319,50.00000,51.00000,9.968296e-09,0.87221,3
389.454,310.802,     -1.36939,     14.90307,50.00000,51.00000,9.975117e-09,0.87193,3
390.519,311.868,     -1.40971,     13.11227,50.00000,51.00000,9.966953e-09,0.87161,3
391.582,312.935,     -1.44613,     11.40491,50.00000,51.00000,9.971881e-09,0.87132,3
392.654,314.002,     -1.49070,      9.80521,50.00000,51.00000,9.970124e-09,0.87104,3
393.713,315.068,     -1.53269,      8.28865,50.00000,51.00000,9.958423e-09,0.87070,3
394.78,316.135,     -1.58253,      6.79969,50.00000,51.00000,9.958159e-09,0.87041,3
395.847,317.202,     -1.63082,      5.49509,50.00000,51.00000,9.952367e-09,0.87012,3
396.916,318.268,     -1.66378,      4.24908,50.00000,51.00000,9.967454e-09,0.86984,3
397.977,319.335,     -1.71434,      3.10031,50.00000,51.00000,9.959428e-09,0.86951,3
399.053,320.402,     -1.77250,      2.05920,50.00000,51.00000,9.932835e-09,0.86922,3
399.614,320.975,     -1.80963,      1.52147,50.00000,51.00000,9.964728e-09,0.86908,4
399.716,321.055,     -1.79839,      1.43804,50.00000,51.00000,9.964388e-09,0.86902,4
399.886,321.135,     -1.70217,      1.43804,50.00000,51.00000,9.964388e-09,0.86902,4
400.154,321.215,     -1.49323,      1.39632,50.00000,51.00000,9.964723e-09,0.86898,4
400.57,321.295,     -1.14067,      1.44847,50.00000,51.00000,9.964723e-09,0.86898,4
401.131,321.375,     -0.63727,      1.52485,50.00000,51.00000,9.956435e-09,0.86893,4
401.877,321.455,-8.130480e-03,      1.61166,50.00000,51.00000,9.956435e-09,0.86893,4
402.797,321.535,      0.73604,      1.73650,50.00000,51.00000,9.964424e-09,0.86888,4
403.854,321.615,      1.55874,      1.87546,50.00000,51.00000,9.964424e-09,0.86888,4
405.087,321.695,      2.42483,      2.00368,50.00000,51.00000,9.958364e-09,0.86883,4
406.427,321.775,      3.30790,      2.10429,50.00000,51.00000,9.958364e-09,0.86883,4
407.876,321.855,      4.16230,      2.20153,50.00000,51.00000,9.964965e-09,0.86879,4
409.418,321.935,      4.96077,      2.28497,50.00000,51.00000,9.964965e-09,0.86879,4
410.992,322.015,      5.67841,      2.28497,50.00000,51.00000,9.968520e-09,0.86874,4
412.618,322.095,      6.30638,      2.28497,50.00000,51.00000,9.968520e-09,0.86874,4
414.235,322.175,      6.81231,      2.32638,50.00000,51.00000,9.959698e-09,0.86869,4
415.83,322.255,      7.20490,      2.28497,50.00000,51.00000,9.959698e-09,0.86869,4
417.418,322.335,      7.48527,      2.23988,50.00000,51.00000,9.959698e-09,0.86869,4
418.955,322.415,      7.66332,      2.19816,50.00000,51.00000,9.935611e-09,0.86864,4
420.466,322.495,      7.73761,      2.10798,50.00000,51.00000,9.935611e-09,0.86864,4
421.916,322.575,      7.74401,      2.01074,50.00000,51.00000,9.952799e-09,0.86860,4
423.338,322.655,      7.68282,      1.87883,50.00000,51.00000,9.952799e-09,0.86860,4
424.712,322.735,      7.58105,      1.75736,50.00000,51.00000,9.971997e-09,0.86855,4
426.064,322.815,      7.45240,      1.63926,50.00000,51.00000,9.971997e-09,0.86855,4
427.401,322.895,      7.31786,      1.46933,50.00000,51.00000,9.967567e-09,0.86850,4
428.717,322.975,      7.18576,      1.38589,50.00000,51.00000,9.967567e-09,0.86850,4
430.021,323.055,      7.07593,      1.22975,50.00000,51.00000,9.955941e-09,0.86844,4
431.344,323.135,      6.98913,      1.13957,50.00000,51.00000,9.955941e-09,0.86844,4
432.67,323.215,      6.93909,      0.95920,50.00000,51.00000,9.968243e-09,0.86840,4
434.026,323.295,      6.92202,      0.88620,50.00000,51.00000,9.968243e-09,0.86840,4
435.384,323.375,      6.94777,      0.73374,50.00000,51.00000,9.960503e-09,0.86835,4
436.799,323.455,      7.01032,      0.63650,50.00000,51.00000,9.960503e-09,0.86835,4
438.237,323.535,      7.10888,      0.52546,50.00000,51.00000,9.958919e-09,0.86830,4
439.711,323.615,      7.23272,      0.31012,50.00000,51.00000,9.958919e-09,0.86830,4
441.213,323.695,      7.38123,      0.22699,50.00000,51.00000,9.979257e-09,0.86826,4
442.758,323.775,      7.54290, 8.128834e-02,50.00000,51.00000,9.979257e-09,0.86826,4
444.316,323.855,      7.71215,-5.521472e-03,50.00000,51.00000,9.979257e-09,0.86826,4
445.907,323.935,      7.88529,     -0.14080,50.00000,51.00000,9.962249e-09,0.86820,4
447.517,324.015,      8.05140,     -0.32822,50.00000,51.00000,9.962249e-09,0.86820,4
449.146,324.095,      8.20972,     -0.41840,50.00000,51.00000,9.974051e-09,0.86816,4
450.797,324.175,      8.35121,     -0.57117,50.00000,51.00000,9.974051e-09,0.86816,4
452.435,324.255,      8.47462,     -0.73436,50.00000,51.00000,9.947873e-09,0.86812,4
454.106,324.335,      8.58001,     -0.92178,50.00000,51.00000,9.947873e-09,0.86812,4
455.766,324.415,      8.66492,     -0.99816,50.00000,51.00000,9.958124e-09,0.86806,4
457.429,324.495,      8.72828,     -1.16810,50.00000,51.00000,9.958124e-09,0.86806,4
459.1,324.575,      8.77733,     -1.36595,50.00000,51.00000,9.974553e-09,0.86802,4
460.755,324.655,      8.80325,     -1.47699,50.00000,51.00000,9.974553e-09,0.86802,4
462.414,324.735,      8.82193,     -1.65399,50.00000,51.00000,9.964708e-09,0.86797,4
464.067,324.815,      8.82250,     -1.76503,50.00000,51.00000,9.964708e-09,0.86797,4
465.725,324.895,      8.81607,     -1.94202,50.00000,51.00000,9.961176e-09,0.86792,4
467.371,324.975,      8.80201,     -2.07055,50.00000,51.00000,9.961176e-09,0.86792,4
469.016,325.055,      8.78744,     -2.16411,50.00000,51.00000,9.949705e-09,0.86788,4
470.663,325.135,      8.76645,     -2.27178,50.00000,51.00000,9.949705e-09,0.86788,4
472.314,325.215,      8.74870,     -2.41748,50.00000,51.00000,9.963308e-09,0.86782,4
473.975,325.295,      8.73727,     -2.56319,50.00000,51.00000,9.963308e-09,0.86782,4
475.623,325.375,      8.72819,     -2.61534,50.00000,51.00000,9.963308e-09,0.86782,4
477.282,325.455,      8.72100,     -2.74018,50.00000,51.00000,9.961712e-09,0.86777,4
478.946,325.535,      8.71752,     -2.78190,50.00000,51.00000,9.961712e-09,0.86777,4
480.61,325.615,      8.71359,     -2.82362,50.00000,51.00000,9.938863e-09,0.86773,4
482.284,325.695,      8.71647,     -2.91718,50.00000,51.00000,9.938863e-09,0.86773,4
483.954,325.775,      8.72151,     -3.00061,50.00000,51.00000,9.971002e-09,0.86768,4
485.633,325.855,      8.72472,     -3.04202,50.00000,51.00000,9.971002e-09,0.86768,4
487.309,325.935,      8.73049,     -3.08374,50.00000,51.00000,9.960034e-09,0.86763,4
488.998,326.015,      8.73218,     -3.08374,50.00000,51.00000,9.960034e-09,0.86763,4
490.694,326.095,      8.73540,     -3.12546,50.00000,51.00000,9.965371e-09,0.86758,4
492.364,326.175,      8.73636,     -3.12546,50.00000,51.00000,9.965371e-09,0.86758,4
494.062,326.255,      8.73259,     -3.12546,50.00000,51.00000,9.961354e-09,0.86754,4
495.744,326.335,      8.73084,     -3.16718,50.00000,51.00000,9.961354e-09,0.86754,4
497.436,326.415,      8.72144,     -3.16718,50.00000,51.00000,9.957481e-09,0.86749,4
499.123,326.495,      8.71032,     -3.16718,50.00000,51.00000,9.957481e-09,0.86749,4
500.81,326.575,      8.69946,     -3.16718,50.00000,51.00000,9.932628e-09,0.86744,4
502.509,326.655,      8.68126,     -3.16718,50.00000,51.00000,9.932628e-09,0.86744,4
504.181,326.735,      8.66493,     -3.16718,50.00000,51.00000,9.932628e-09,0.86744,4
505.885,326.815,      8.64763,     -3.16718,50.00000,51.00000,9.958969e-09,0.86739,4
507.566,326.895,      8.62487,     -3.16718,50.00000,51.00000,9.958969e-09,0.86739,4
509.246,326.975,      8.60192,     -3.12546,50.00000,51.00000,9.960408e-09,0.86734,4
510.925,327.055,      8.57996,     -3.12546,50.00000,51.00000,9.960408e-09,0.86734,4
512.609,327.135,      8.55357,     -3.15675,50.00000,51.00000,9.955830e-09,0.86730,4
514.283,327.215,      8.53003,     -3.11503,50.00000,51.00000,9.955830e-09,0.86730,4
515.973,327.295,      8.50726,     -3.08374,50.00000,51.00000,9.958889e-09,0.86724,4
517.65,327.375,      8.47827,     -3.08374,50.00000,51.00000,9.958889e-09,0.86724,4
519.325,327.455,      8.45736,     -3.08374,50.00000,51.00000,9.964459e-09,0.86719,4
521.014,327.535,      8.43048,     -3.08374,50.00000,51.00000,9.964459e-09,0.86719,4
522.683,327.615,      8.40639,     -3.08374,50.00000,51.00000,9.960907e-09,0.86715,4
524.358,327.695,      8.38178,     -3.08374,50.00000,51.00000,9.960907e-09,0.86715,4
526.035,327.775,      8.35980,     -3.07331,50.00000,51.00000,9.958130e-09,0.86710,4
527.707,327.855,      8.33520,     -3.03160,50.00000,51.00000,9.958130e-09,0.86710,4
529.388,327.935,      8.30972,     -3.01104,50.00000,51.00000,9.943220e-09,0.86705,4
531.065,328.015,      8.28280,     -2.99018,50.00000,51.00000,9.943220e-09,0.86705,4
532.736,328.095,      8.25765,     -2.99018,50.00000,51.00000,9.964881e-09,0.86701,4
534.41,328.175,      8.23316,     -2.95890,50.00000,51.00000,9.964881e-09,0.86701,4
536.072,328.255,      8.20352,     -2.95890,50.00000,51.00000,9.964881e-09,0.86701,4
537.751,328.335,      8.18113,     -2.94847,50.00000,51.00000,9.955343e-09,0.86694,4
539.43,328.415,      8.15736,     -2.90675,50.00000,51.00000,9.955343e-09,0.86694,4
541.095,328.495,      8.12597,     -2.90675,50.00000,51.00000,9.976184e-09,0.86689,4
542.763,328.575,      8.09929,     -2.86503,50.00000,51.00000,9.976184e-09,0.86689,4
544.429,328.655,      8.07444,     -2.86503,50.00000,51.00000,9.969928e-09,0.86685,4
546.102,328.735,      8.04663,     -2.83405,50.00000,51.00000,9.969928e-09,0.86685,4
547.762,328.815,      8.01891,     -2.78190,50.00000,51.00000,9.979923e-09,0.86680,4
549.437,328.895,      7.99976,     -2.78190,50.00000,51.00000,9.979923e-09,0.86680,4
551.107,328.975,      7.97178,     -2.78190,50.00000,51.00000,9.940820e-09,0.86676,4
552.771,329.055,      7.94850,     -2.78190,50.00000,51.00000,9.940820e-09,0.86676,4
554.428,329.135,      7.92747,     -2.74018,50.00000,51.00000,9.969865e-09,0.86670,4
556.092,329.215,      7.90552,     -2.71933,50.00000,51.00000,9.969865e-09,0.86670,4
557.768,329.295,      7.87813,     -2.69847,50.00000,51.00000,9.961449e-09,0.86665,4
559.42,329.375,      7.85905,     -2.69847,50.00000,51.00000,9.961449e-09,0.86665,4
561.082,329.455,      7.83285,     -2.65706,50.00000,51.00000,9.961449e-09,0.86665,4
562.746,329.535,      7.80190,     -2.61534,50.00000,51.00000,9.955877e-09,0.86660,4
564.405,329.615,      7.77656,     -2.61534,50.00000,51.00000,9.955877e-09,0.86660,4
566.064,329.695,      7.74938,     -2.57362,50.00000,51.00000,9.965555e-09,0.86656,4
567.717,329.775,      7.72322,     -2.57362,50.00000,51.00000,9.965555e-09,0.86656,4
569.364,329.855,      7.69809,     -2.53190,50.00000,51.00000,9.949633e-09,0.86650,4
571.023,329.935,      7.67207,     -2.51104,50.00000,51.00000,9.949633e-09,0.86650,4
572.684,330.015,      7.65179,     -2.50061,50.00000,51.00000,9.958988e-09,0.86646,4
574.327,330.095,      7.62614,     -2.49049,50.00000,51.00000,9.958988e-09,0.86646,4
575.976,330.175,      7.60461,     -2.49049,50.00000,51.00000,9.964779e-09,0.86641,4
577.637,330.255,      7.58345,     -2.44877,50.00000,51.00000,9.964779e-09,0.86641,4
579.3,330.335,      7.56131,     -2.44877,50.00000,51.00000,9.960962e-09,0.86635,4
580.944,330.415,      7.54397,     -2.40706,50.00000,51.00000,9.960962e-09,0.86635,4
582.601,330.495,      7.52745,     -2.40706,50.00000,51.00000,9.972986e-09,0.86631,4
584.243,330.575,      7.50640,     -2.36534,50.00000,51.00000,9.972986e-09,0.86631,4
585.896,330.655,      7.48744,     -2.36534,50.00000,51.00000,9.951801e-09,0.86626,4
587.539,330.735,      7.46397,     -2.36534,50.00000,51.00000,9.951801e-09,0.86626,4
589.186,330.815,      7.44639,     -2.32393,50.00000,51.00000,9.951706e-09,0.86621,4
590.842,330.895,      7.43177,     -2.32393,50.00000,51.00000,9.951706e-09,0.86621,4
592.479,330.975,      7.41212,     -2.27178,50.00000,51.00000,9.951706e-09,0.86621,4
594.118,331.055,      7.39668,     -2.24049,50.00000,51.00000,9.977668e-09,0.86616,4
595.768,331.135,      7.38294,     -2.24049,50.00000,51.00000,9.977668e-09,0.86616,4
597.406,331.215,      7.36117,     -2.20920,50.00000,51.00000,9.961816e-09,0.86612,4
599.055,331.295,      7.34630,     -2.19877,50.00000,51.00000,9.961816e-09,0.86612,4
600.7,331.375,      7.32693,     -2.15706,50.00000,51.00000,9.940904e-09,0.86607,4
602.34,331.455,      7.31480,     -2.15706,50.00000,51.00000,9.940904e-09,0.86607,4
603.986,331.535,      7.29693,     -2.15706,50.00000,51.00000,9.953697e-09,0.86601,4
605.624,331.615,      7.28106,     -2.11564,50.00000,51.00000,9.953697e-09,0.86601,4
607.266,331.695,      7.26334,     -2.11564,50.00000,51.00000,9.965938e-09,0.86597,4
608.906,331.775,      7.25207,     -2.07393,50.00000,51.00000,9.965938e-09,0.86597,4
610.546,331.855,      7.23542,     -2.04264,50.00000,51.00000,9.940689e-09,0.86592,4
612.183,331.935,      7.22171,     -2.04264,50.00000,51.00000,9.940689e-09,0.86592,4
613.807,332.015,      7.20425,     -2.03221,50.00000,51.00000,9.959026e-09,0.86587,4
615.448,332.095,      7.19035,     -2.02178,50.00000,51.00000,9.959026e-09,0.86587,4
617.089,332.175,      7.17766,     -1.99049,50.00000,51.00000,9.974089e-09,0.86583,4
618.724,332.255,      7.16350,     -1.94908,50.00000,51.00000,9.974089e-09,0.86583,4
620.363,332.335,      7.15147,     -1.94908,50.00000,51.00000,9.959417e-09,0.86577,4
621.992,332.415,      7.13838,     -1.94908,50.00000,51.00000,9.959417e-09,0.86577,4
623.631,332.495,      7.12482,     -1.90736,50.00000,51.00000,9.969758e-09,0.86572,4
625.265,332.575,      7.11111,     -1.86564,50.00000,51.00000,9.969758e-09,0.86572,4
626.891,332.655,      7.09903,     -1.86564,50.00000,51.00000,9.969758e-09,0.86572,4
628.528,332.735,      7.08290,     -1.86564,50.00000,51.00000,9.968915e-09,0.86568,4
630.156,332.815,      7.07602,     -1.82393,50.00000,51.00000,9.968915e-09,0.86568,4
631.781,332.895,      7.06453,     -1.82393,50.00000,51.00000,9.963560e-09,0.86563,4
633.413,332.975,      7.05977,     -1.82393,50.00000,51.00000,9.963560e-09,0.86563,4
635.056,333.055,      7.05501,     -1.79294,50.00000,51.00000,9.979707e-09,0.86558,4
636.678,333.135,      7.04189,     -1.74080,50.00000,51.00000,9.979707e-09,0.86558,4
638.31,333.215,      7.03736,     -1.74080,50.00000,51.00000,9.953492e-09,0.86553,4
639.949,333.295,      7.02554,     -1.74080,50.00000,51.00000,9.953492e-09,0.86553,4
641.572,333.375,      7.01805,     -1.74080,50.00000,51.00000,9.982455e-09,0.86548,4
643.194,333.455,      7.00457,     -1.69908,50.00000,51.00000,9.982455e-09,0.86548,4
644.834,333.535,      6.99020,     -1.69908,50.00000,51.00000,9.960027e-09,0.86544,4
646.456,333.615,      6.98063,     -1.68865,50.00000,51.00000,9.960027e-09,0.86544,4
648.074,333.695,      6.96775,     -1.65736,50.00000,51.00000,9.978827e-09,0.86539,4
649.71,333.775,      6.95582,     -1.61595,50.00000,51.00000,9.978827e-09,0.86539,4
651.327,333.855,      6.94642,     -1.57423,50.00000,51.00000,9.958703e-09,0.86534,4
652.956,333.935,      6.93150,     -1.53252,50.00000,51.00000,9.958703e-09,0.86534,4
654.572,334.015,      6.92146,     -1.56380,50.00000,51.00000,9.972935e-09,0.86530,4
656.203,334.095,      6.91282,     -1.57423,50.00000,51.00000,9.972935e-09,0.86530,4
657.834,334.175,      6.90273,     -1.53252,50.00000,51.00000,9.967249e-09,0.86525,4
659.455,334.255,      6.89664,     -1.49080,50.00000,51.00000,9.967249e-09,0.86525,4
661.082,334.335,      6.88682,     -1.49080,50.00000,51.00000,9.967249e-09,0.86525,4
662.696,334.415,      6.87730,     -1.44939,50.00000,51.00000,9.951934e-09,0.86519,4
664.324,334.495,      6.87106,     -1.49080,50.00000,51.00000,9.951934e-09,0.86519,4
665.955,334.575,      6.86243,     -1.49080,50.00000,51.00000,9.967214e-09,0.86515,4
667.591,334.655,      6.85563,     -1.40399,50.00000,51.00000,9.967214e-09,0.86515,4
669.202,334.735,      6.85000,     -1.36258,50.00000,51.00000,9.965282e-09,0.86509,4
670.839,334.815,      6.83793,     -1.36258,50.00000,51.00000,9.965282e-09,0.86509,4
672.458,334.895,      6.83175,     -1.38344,50.00000,51.00000,9.953616e-09,0.86504,4
674.075,334.975,      6.81846,     -1.38344,50.00000,51.00000,9.953616e-09,0.86504,4
675.708,335.055,      6.80706,     -1.38344,50.00000,51.00000,9.958917e-09,0.86499,4
677.338,335.135,      6.79274,     -1.34172,50.00000,51.00000,9.958917e-09,0.86499,4
678.952,335.215,      6.78247,     -1.34172,50.00000,51.00000,9.972389e-09,0.86495,4
680.584,335.295,      6.76705,     -1.30000,50.00000,51.00000,9.972389e-09,0.86495,4
682.209,335.375,      6.75103,     -1.30000,50.00000,51.00000,9.946366e-09,0.86490,4
683.821,335.455,      6.72962,     -1.30000,50.00000,51.00000,9.946366e-09,0.86490,4
685.454,335.535,      6.71250,     -1.25828,50.00000,51.00000,9.954335e-09,0.86484,4
687.068,335.615,      6.69423,     -1.25828,50.00000,51.00000,9.954335e-09,0.86484,4
688.688,335.695,      6.67590,     -1.21687,50.00000,51.00000,9.963173e-09,0.86480,4
690.318,335.775,      6.66135,     -1.21687,50.00000,51.00000,9.963173e-09,0.86480,4
691.935,335.855,      6.63900,     -1.21687,50.00000,51.00000,9.963173e-09,0.86480,4
693.56,335.935,      6.61993,     -1.17515,50.00000,51.00000,9.970838e-09,0.86475,4
695.177,336.015,      6.60025,     -1.13344,50.00000,51.00000,9.970838e-09,0.86475,4
696.8,336.095,      6.58051,     -1.13344,50.00000,51.00000,9.959101e-09,0.86471,4
698.419,336.175,      6.55345,     -1.09172,50.00000,51.00000,9.959101e-09,0.86471,4
700.034,336.255,      6.53153,     -1.10215,50.00000,51.00000,9.970991e-09,0.86466,4
701.659,336.335,      6.51054,     -1.06043,50.00000,51.00000,9.970991e-09,0.86466,4
703.271,336.415,      6.48986,     -1.06043,50.00000,51.00000,9.952626e-09,0.86460,4
704.896,336.495,      6.46481,     -1.03988,50.00000,51.00000,9.952626e-09,0.86460,4
706.505,336.575,      6.44440,     -1.01902,50.00000,51.00000,9.951377e-09,0.86455,4
708.126,336.655,      6.41863,     -1.01902,50.00000,51.00000,9.951377e-09,0.86455,4
709.754,336.735,      6.39232,     -0.97730,50.00000,51.00000,9.962907e-09,0.86450,4
711.366,336.815,      6.36580,     -0.97730,50.00000,51.00000,9.962907e-09,0.86450,4
712.988,336.895,      6.33826,     -0.96687,50.00000,51.00000,9.964491e-09,0.86446,4
714.608,336.975,      6.31206,     -0.93558,50.00000,51.00000,9.964491e-09,0.86446,4
716.233,337.055,      6.27895,     -0.89387,50.00000,51.00000,9.976333e-09,0.86441,4
717.854,337.135,      6.25058,     -0.89387,50.00000,51.00000,9.976333e-09,0.86441,4
719.47,337.215,      6.21668,     -0.89387,50.00000,51.00000,9.957269e-09,0.86435,4
721.091,337.295,      6.18660,     -0.89387,50.00000,51.00000,9.957269e-09,0.86435,4
722.713,337.375,      6.14611,     -0.89387,50.00000,51.00000,9.957269e-09,0.86435,4
724.337,337.455,      6.11335,     -0.81074,50.00000,51.00000,9.992012e-09,0.86431,4
725.957,337.535,      6.07356,     -0.81074,50.00000,51.00000,9.992012e-09,0.86431,4
727.574,337.615,      6.03410,     -0.81074,50.00000,51.00000,9.969279e-09,0.86426,4
729.187,337.695,      5.99151,     -0.81074,50.00000,51.00000,9.969279e-09,0.86426,4
730.811,337.775,      5.95329,     -0.76902,50.00000,51.00000,9.947888e-09,0.86421,4
732.429,337.855,      5.90302,     -0.76902,50.00000,51.00000,9.947888e-09,0.86421,4
734.047,337.935,      5.85804,     -0.72730,50.00000,51.00000,9.971232e-09,0.86415,4
735.664,338.015,      5.80842,     -0.72730,50.00000,51.00000,9.971232e-09,0.86415,4
737.272,338.095,      5.75959,     -0.70644,50.00000,51.00000,9.965153e-09,0.86411,4
738.894,338.175,      5.70370,     -0.69632,50.00000,51.00000,9.965153e-09,0.86411,4
740.512,338.255,      5.65011,     -0.69632,50.00000,51.00000,9.954620e-09,0.86405,4
742.134,338.335,      5.59785,     -0.68589,50.00000,51.00000,9.954620e-09,0.86405,4
743.75,338.415,      5.54690,     -0.64417,50.00000,51.00000,9.958637e-09,0.86400,4
745.364,338.495,      5.49076,     -0.64417,50.00000,51.00000,9.958637e-09,0.86400,4
746.984,338.575,      5.43799,     -0.64417,50.00000,51.00000,9.987682e-09,0.86396,4
748.596,338.655,      5.38149,     -0.61288,50.00000,51.00000,9.987682e-09,0.86396,4
750.22,338.735,      5.31833,     -0.56074,50.00000,51.00000,9.987682e-09,0.86396,4
751.831,338.815,      5.24836,     -0.51933,50.00000,51.00000,9.954936e-09,0.86391,4
753.442,338.895,      5.18272,     -0.52945,50.00000,51.00000,9.954936e-09,0.86391,4
755.06,338.975,      5.11539,     -0.56074,50.00000,51.00000,9.973470e-09,0.86386,4
756.671,339.055,      5.04428,     -0.51933,50.00000,51.00000,9.973470e-09,0.86386,4
758.289,339.135,      4.97653,     -0.56074,50.00000,51.00000,9.958259e-09,0.86381,4
759.898,339.215,      4.90600,     -0.47761,50.00000,51.00000,9.958259e-09,0.86381,4
761.517,339.295,      4.83682,     -0.44632,50.00000,51.00000,9.966031e-09,0.86375,4
763.135,339.375,      4.76285,     -0.43589,50.00000,51.00000,9.966031e-09,0.86375,4
764.743,339.455,      4.69269,     -0.43589,50.00000,51.00000,9.963360e-09,0.86371,4
766.372,339.535,      4.61934,     -0.39417,50.00000,51.00000,9.963360e-09,0.86371,4
767.978,339.615,      4.54006,     -0.39417,50.00000,51.00000,9.963979e-09,0.86367,4
769.594,339.695,      4.46314,     -0.39417,50.00000,51.00000,9.963979e-09,0.86367,4
771.202,339.775,      4.38493,     -0.41503,50.00000,51.00000,9.954755e-09,0.86361,4
772.824,339.855,      4.30809,     -0.36656,50.00000,51.00000,9.954755e-09,0.86361,4
774.447,339.935,      4.22639,     -0.35613,50.00000,51.00000,9.979046e-09,0.86356,4
776.061,340.015,      4.14597,     -0.32485,50.00000,51.00000,9.979046e-09,0.86356,4
777.668,340.095,      4.06528,     -0.32485,50.00000,51.00000,9.957710e-09,0.86351,4
779.298,340.175,      3.97823,     -0.28313,50.00000,51.00000,9.957710e-09,0.86351,4
780.908,340.255,      3.89810,     -0.32485,50.00000,51.00000,9.957710e-09,0.86351,4
782.533,340.335,      3.81157,     -0.28313,50.00000,51.00000,9.958180e-09,0.86345,4
784.143,340.415,      3.72163,     -0.24141,50.00000,51.00000,9.958180e-09,0.86345,4
785.761,340.495,      3.62989,     -0.24141,50.00000,51.00000,9.948500e-09,0.86341,4
787.371,340.575,      3.54669,     -0.21043,50.00000,51.00000,9.948500e-09,0.86341,4
788.981,340.655,      3.45023,     -0.20000,50.00000,51.00000,9.963267e-09,0.86335,4
790.598,340.735,      3.35925,     -0.20000,50.00000,51.00000,            ,0.44866,4
792.216,340.815,      3.26853,     -0.15828,50.00000,51.00000,            ,0.44801,4
793.832,340.895,      3.18068,     -0.15828,50.00000,51.00000,            ,0.44736,4
794.636,340.935,      3.12905,     -0.15828,50.00000,51.00000,            ,0.44704,4