File: data/TGA/commercial_samples/ExpDat_2025_07_22_SL_PS_Red_Solo_Cup_Dynamic.csv
#EXPORTTYPE:                 ,DATA ALL
#FILE:                       ,2025_07_22_SL_PS_Red_Solo_Cup_Dynamic.ngb-ss5
#FORMAT:                     ,NETZSCH5
#FTYPE:                      ,ASCII
#IDENTITY:                   ,PS-Red-Solo-Cup
#DECIMAL:                    ,POINT
#SEPARATOR:                  ,COMMA
#MTYPE:                      ,DSC
#INSTRUMENT:                 ,NETZSCH STA 449F5
#PROJECT:                    ,
#DATE/TIME:                  ,7/22/2025 5:22:39 PM (UTC-4)
#CORR. FILE:                 ,
#TEMPCAL:                    ,05-05-2025 14:38
#SENSITIVITY:                ,28-06-2023 13:53
#LABORATORY:                 ,Tran/AAG
#OPERATOR:                   ,Stanley
#REMARK:                     ,2025_03_20_Styrofoam_dynamic
#SAMPLE:                     ,PS-Red-Solo-Cup
#SAMPLE MASS /mg:            ,4.63
#MATERIAL:                   ,Polystyrene
#REFERENCE:                  ,
#REFERENCE MASS /mg:         ,0
#TYPE OF CRUCIBLE:           ,Al2O3 85 ‘l, open
#SAMPLE CRUCIBLE MASS /mg:   ,0
#REFERENCE CRUCIBLE MASS /mg:,0
#DSC RANGE /‘V:              ,5000
#TG RANGE /mg:               ,35000
#TAU-R:                      ,---
#CORR. CODE:                 ,000
#EXO:                        ,-1
#RANGE:                      ,20›C....800›C/0.0....20.0K/min
#SEGMENT:                    ,S1-4/4
#SEG. 1:                     ,20›C/5.0(K/min)/100›C
#SEG. 2:                     ,100›C/00:05/100›C
#SEG. 3:                     ,100›C/1.0(K/min)/400›C
#SEG. 4:                     ,400›C/20.0(K/min)/800›C

##Temp./›C,Time/min,DSC/(mW/mg),Mass/%,Gas Flow(purge2)/(ml/min),Gas Flow(protective)/(ml/min),TIC(scan:1)/A,Sensit./(uV/mW),Segment
 28.92000,  0.00000,-5.710747e-03,100,50.00000,41.00000,            ,0.92335,1
 31.18600,  1.00000,     -0.11256, 99.21555,50.00000,36.00000,1.707290e-08,0.92354,1
 32.75500,  2.00000,     -0.14819, 90.99071,50.00000,34.00000,1.705750e-08,0.92370,1
 33.87400,  3.00000,     -0.15922, 91.22786,50.00000,35.00000,1.712725e-08,0.92384,1
 35.31500,  4.00000,     -0.11123, 91.30842,50.00000,35.00000,1.711878e-08,0.92395,1
 37.54500,  5.00000,-3.492477e-02, 91.52095,50.00000,35.00000,1.704600e-08,0.92404,1
 40.70500,  6.00000, 3.882822e-02, 91.92419,50.00000,35.00000,1.708680e-08,0.92411,1
 44.70600,  7.00000,      0.10575, 92.32505,50.00000,35.00000,1.707891e-08,0.92418,1
 49.45400,  8.00000,      0.16782, 92.79892,50.00000,35.00000,1.707752e-08,0.92424,1
 54.83200,  9.00000,      0.22560, 93.15810,50.00000,35.00000,1.703727e-08,0.92432,1
 60.61900, 10.00000,      0.27843, 93.52959,50.00000,35.00000,1.706066e-08,0.92441,1
 66.67500, 11.00000,      0.32760, 93.84233,50.00000,35.00000,1.704900e-08,0.92452,1
 72.80200, 12.00000,      0.37066, 93.99395,50.00000,35.00000,1.708132e-08,0.92465,1
 78.93100, 13.00000,      0.41421, 94.11598,50.00000,35.00000,1.708894e-08,0.92479,1
 85.04000, 14.00000,      0.45240, 94.20410,50.00000,35.00000,1.707997e-08,0.92494,1
 91.04600, 15.00000,      0.49148, 94.29201,50.00000,35.00000,1.708796e-08,0.92511,1
 96.82300, 15.98333,      0.53576, 94.32138,50.00000,35.00000,1.705649e-08,0.92527,2
100.754, 16.73333,      0.47063, 94.05248,50.00000,35.00000,1.702933e-08,0.92538,2
103.4, 17.48333,      0.28384, 93.40259,50.00000,35.00000,1.704380e-08,0.92552,2
105.166, 18.23333,      0.16448, 92.93585,50.00000,35.00000,1.710339e-08,0.92562,2
106.482, 18.98333,      0.10020, 92.56695,50.00000,35.00000,1.703823e-08,0.92575,2
107.326, 19.73333, 2.779028e-02, 92.17840,50.00000,35.00000,1.703806e-08,0.92584,2
107.693, 20.48333,-4.895239e-02, 91.75810,50.00000,35.00000,1.708868e-08,0.92595,2
107.659, 21.33333,     -0.11655, 91.33780,50.00000,35.00000,1.704304e-08,0.92604,3
107.449, 22.33333,     -0.12372, 91.07387,50.00000,35.00000,1.703227e-08,0.92612,3
107.264, 23.33333,     -0.11905, 90.86868,50.00000,35.00000,1.702882e-08,0.92618,3
107.09, 24.33333,     -0.11599, 90.69266,50.00000,35.00000,1.705105e-08,0.92620,3
106.979, 25.33333,-9.734507e-02, 90.60475,50.00000,35.00000,1.705309e-08,0.92619,3
107.052, 26.33333,-7.296564e-02, 90.53866,50.00000,35.00000,1.704185e-08,0.92616,3
107.305, 27.33333,-4.966358e-02, 90.47041,50.00000,35.00000,1.699572e-08,0.92608,3
107.708, 28.33333,-2.833155e-02, 90.47041,50.00000,35.00000,1.700710e-08,0.92597,3
108.259, 29.33333,-6.277074e-03, 90.43866,50.00000,35.00000,1.702330e-08,0.92581,3
108.941, 30.33333, 1.327443e-02, 90.43866,50.00000,35.00000,1.695360e-08,0.92562,3
109.714, 31.33333, 2.996470e-02, 90.42397,50.00000,35.00000,1.702069e-08,0.92540,3
110.608, 32.33333, 4.487059e-02, 90.42397,50.00000,35.00000,1.704568e-08,0.92514,3
111.548, 33.33333, 5.565711e-02, 90.40194,50.00000,35.00000,1.704147e-08,0.92484,3
112.54, 34.33333, 6.609278e-02, 90.37991,50.00000,35.00000,1.701562e-08,0.92451,3
113.579, 35.33333, 7.527959e-02, 90.35054,50.00000,35.00000,1.700002e-08,0.92414,3
114.611, 36.33333, 8.105850e-02, 90.34320,50.00000,35.00000,1.698739e-08,0.92374,3
115.657, 37.33333, 8.828100e-02, 90.32138,50.00000,34.00000,1.704040e-08,0.92339,3
116.721, 38.33333, 9.335177e-02, 90.29438,50.00000,34.00000,1.699095e-08,0.92293,3
117.777, 39.33333, 9.788705e-02, 90.28704,50.00000,34.00000,1.702048e-08,0.92245,3
118.831, 40.33333,      0.10135, 90.28704,50.00000,34.00000,1.700079e-08,0.92193,3
119.862, 41.33333,      0.10661, 90.25767,50.00000,34.00000,1.697977e-08,0.92151,3
120.905, 42.33333,      0.10827, 90.23585,50.00000,34.00000,1.699793e-08,0.92113,3
121.934, 43.33333,      0.11427, 90.24320,50.00000,34.00000,1.697481e-08,0.92078,3
122.959, 44.33333,      0.11648, 90.21382,50.00000,34.00000,1.700403e-08,0.92048,3
123.98, 45.33333,      0.12248, 90.21382,50.00000,34.00000,1.699660e-08,0.92023,3
125.003, 46.33333,      0.12686, 90.21382,50.00000,34.00000,1.699451e-08,0.92001,3
125.998, 47.33333,      0.13125, 90.20648,50.00000,34.00000,1.701035e-08,0.91982,3
127.001, 48.33333,      0.13474, 90.20151,50.00000,34.00000,1.700837e-08,0.91965,3
128.016, 49.33333,      0.13895, 90.20151,50.00000,34.00000,1.698579e-08,0.91949,3
129.013, 50.33333,      0.14462, 90.23089,50.00000,34.00000,1.694279e-08,0.91935,3
130.024, 51.33333,      0.14902, 90.22592,50.00000,34.00000,1.697931e-08,0.91923,3
131.019, 52.33333,      0.15506, 90.25529,50.00000,34.00000,1.697145e-08,0.91915,3
132.026, 53.33333,      0.15893, 90.25032,50.00000,34.00000,1.694999e-08,0.91907,3
133.022, 54.33333,      0.16389, 90.24320,50.00000,34.00000,1.695608e-08,0.91901,3
134.016, 55.33333,      0.17086, 90.27495,50.00000,34.00000,1.694459e-08,0.91898,3
135.036, 56.33333,      0.17474, 90.28704,50.00000,34.00000,1.697475e-08,0.91896,3
136.013, 57.33333,      0.17918, 90.31404,50.00000,34.00000,1.695837e-08,0.91896,3
137.023, 58.33333,      0.18417, 90.35054,50.00000,34.00000,1.697456e-08,0.91897,3
138.022, 59.33333,      0.19007, 90.32138,50.00000,34.00000,1.696727e-08,0.91900,3
139.018, 60.33333,      0.19615, 90.36523,50.00000,34.00000,1.694751e-08,0.91902,3
140.022, 61.33333,      0.20152, 90.38726,50.00000,34.00000,1.696326e-08,0.91904,3
141.02, 62.33333,      0.20726, 90.41663,50.00000,34.00000,1.691847e-08,0.91906,3
142.019, 63.33333,      0.21046, 90.41663,50.00000,34.00000,1.692351e-08,0.91908,3
143.016, 64.33333,      0.21657, 90.44600,50.00000,34.00000,1.694482e-08,0.91911,3
144.025, 65.33333,      0.22233, 90.47279,50.00000,34.00000,1.694539e-08,0.91912,3
145.029, 66.33333,      0.22573, 90.48747,50.00000,34.00000,1.699258e-08,0.91915,3
146.024, 67.33333,      0.23096, 90.53866,50.00000,34.00000,1.694623e-08,0.91916,3
147.033, 68.33333,      0.23747, 90.56069,50.00000,34.00000,1.695841e-08,0.91916,3
148.03, 69.33333,      0.24343, 90.58272,50.00000,34.00000,1.697213e-08,0.91916,3
149.029, 70.33333,      0.24941, 90.61944,50.00000,34.00000,1.692963e-08,0.91915,3
150.046, 71.33333,      0.25321, 90.64881,50.00000,34.00000,1.692858e-08,0.91914,3
151.036, 72.33333,      0.25883, 90.68790,50.00000,34.00000,1.691923e-08,0.91911,3
152.035, 73.33333,      0.26392, 90.69525,50.00000,34.00000,1.696323e-08,0.91908,3
153.054, 74.33333,      0.27011, 90.72203,50.00000,34.00000,1.693289e-08,0.91904,3
154.054, 75.33333,      0.27503, 90.74406,50.00000,34.00000,1.691880e-08,0.91899,3
155.045, 76.33333,      0.28032, 90.77343,50.00000,34.00000,1.696182e-08,0.91895,3
156.046, 77.33333,      0.28507, 90.80259,50.00000,34.00000,1.693085e-08,0.91889,3
157.045, 78.33333,      0.29202, 90.83693,50.00000,34.00000,1.695250e-08,0.91882,3
158.053, 79.33333,      0.29697, 90.86609,50.00000,34.00000,1.691060e-08,0.91875,3
159.049, 80.33333,      0.30321, 90.88078,50.00000,34.00000,1.694777e-08,0.91866,3
160.057, 81.33333,      0.31038, 90.90281,50.00000,34.00000,1.691791e-08,0.91858,3
161.062, 82.33333,      0.31536, 90.97862,50.00000,34.00000,1.691507e-08,0.91849,3
162.077, 83.33333,      0.32089, 90.95659,50.00000,34.00000,1.691969e-08,0.91839,3
163.065, 84.33333,      0.32404, 90.99330,50.00000,34.00000,1.689551e-08,0.91830,3
164.059, 85.33333,      0.33198, 91.04449,50.00000,34.00000,1.686361e-08,0.91819,3
165.066, 86.33333,      0.33643, 91.07387,50.00000,34.00000,1.689560e-08,0.91808,3
166.054, 87.33333,      0.34052, 91.08855,50.00000,34.00000,1.687410e-08,0.91796,3
167.062, 88.33333,      0.34776, 91.11793,50.00000,34.00000,1.689104e-08,0.91784,3
168.057, 89.33333,      0.35186, 91.11793,50.00000,34.00000,1.690297e-08,0.91772,3
169.065, 90.33333,      0.35894, 91.20583,50.00000,34.00000,1.685822e-08,0.91762,3
170.056, 91.33333,      0.36343, 91.21080,50.00000,34.00000,1.689580e-08,0.91749,3
171.053, 92.33333,      0.36996, 91.23261,50.00000,34.00000,1.683591e-08,0.91736,3
172.055, 93.33333,      0.37558, 91.26695,50.00000,34.00000,1.687740e-08,0.91723,3
173.055, 94.33333,      0.37973, 91.29633,50.00000,34.00000,1.690010e-08,0.91710,3
174.057, 95.33333,      0.38648, 91.32549,50.00000,34.00000,1.687659e-08,0.91696,3
175.045, 96.33333,      0.38749, 91.32549,50.00000,34.00000,1.689786e-08,0.91683,3
176.054, 97.33333,      0.39556, 91.36220,50.00000,34.00000,1.686186e-08,0.91669,3
177.063, 98.33333,      0.40030, 91.39892,50.00000,34.00000,1.691339e-08,0.91655,3
178.056, 99.33333,      0.40690, 91.42829,50.00000,34.00000,1.692969e-08,0.91641,3
179.053,100.333,      0.41091, 91.48683,50.00000,34.00000,1.691118e-08,0.91629,3
180.053,101.333,      0.41773, 91.54795,50.00000,34.00000,1.688050e-08,0.91615,3
181.052,102.333,      0.42213, 91.56263,50.00000,34.00000,1.690391e-08,0.91601,3
182.049,103.333,      0.42896, 91.54795,50.00000,34.00000,1.687349e-08,0.91586,3
183.047,104.333,      0.43413, 91.57970,50.00000,34.00000,1.687620e-08,0.91572,3
184.039,105.333,      0.43911, 91.60907,50.00000,34.00000,1.689900e-08,0.91557,3
185.056,106.333,      0.44505, 91.60173,50.00000,34.00000,1.688132e-08,0.91542,3
186.065,107.333,      0.45156, 91.64557,50.00000,34.00000,1.686893e-08,0.91528,3
187.073,108.333,      0.45621, 91.66026,50.00000,34.00000,1.686650e-08,0.91513,3
188.07,109.333,      0.46273, 91.68963,50.00000,34.00000,1.692841e-08,0.91498,3
189.062,110.333,      0.46589, 91.74341,50.00000,34.00000,1.685897e-08,0.91484,3
190.049,111.333,      0.47225, 91.72873,50.00000,34.00000,1.687498e-08,0.91468,3
191.06,112.333,      0.47844, 91.74341,50.00000,34.00000,1.685063e-08,0.91453,3
192.071,113.333,      0.48464, 91.76544,50.00000,34.00000,1.688358e-08,0.91441,3
193.057,114.333,      0.48952, 91.79719,50.00000,34.00000,1.685584e-08,0.91426,3
194.068,115.333,      0.49368, 91.79719,50.00000,34.00000,1.682102e-08,0.91411,3
195.061,116.333,      0.50028, 91.84104,50.00000,34.00000,1.688121e-08,0.91396,3
196.063,117.333,      0.50633, 91.83391,50.00000,34.00000,1.685358e-08,0.91380,3
197.064,118.333,      0.51183, 91.83866,50.00000,34.00000,1.684045e-08,0.91365,3
198.055,119.333,      0.51620, 91.83629,50.00000,34.00000,1.682393e-08,0.91350,3
199.058,120.333,      0.52324, 91.83629,50.00000,34.00000,1.684855e-08,0.91334,3
200.051,121.333,      0.53028, 91.86069,50.00000,34.00000,1.682124e-08,0.91319,3
201.061,122.333,      0.53507, 91.90475,50.00000,34.00000,1.684673e-08,0.91303,3
202.057,123.333,      0.53911, 91.90475,50.00000,34.00000,1.684092e-08,0.91288,3
203.063,124.333,      0.54600, 91.90475,50.00000,34.00000,1.683989e-08,0.91272,3
204.057,125.333,      0.55252, 91.93391,50.00000,34.00000,1.683474e-08,0.91259,3
205.06,126.333,      0.55754, 91.96825,50.00000,34.00000,1.681666e-08,0.91244,3
206.061,127.333,      0.56257, 91.97559,50.00000,34.00000,1.682639e-08,0.91227,3
207.055,128.333,      0.56856, 91.97559,50.00000,35.00000,1.683602e-08,0.91211,3
208.055,129.333,      0.57304, 92.00475,50.00000,35.00000,1.681686e-08,0.91196,3
209.052,130.333,      0.57848, 91.98294,50.00000,35.00000,1.683815e-08,0.91180,3
210.055,131.333,      0.58566, 91.98294,50.00000,35.00000,1.682866e-08,0.91164,3
211.055,132.333,      0.59074, 92.01944,50.00000,35.00000,1.686527e-08,0.91148,3
212.068,133.333,      0.59699, 92.01944,50.00000,35.00000,1.687843e-08,0.91131,3
213.058,134.333,      0.60172, 92.01944,50.00000,35.00000,1.686410e-08,0.91115,3
214.06,135.333,      0.60760, 92.05616,50.00000,35.00000,1.683896e-08,0.91098,3
215.067,136.333,      0.61408, 92.05616,50.00000,35.00000,1.688001e-08,0.91082,3
216.069,137.333,      0.61750, 92.07084,50.00000,35.00000,1.682407e-08,0.91066,3
217.062,138.333,      0.62342, 92.08553,50.00000,35.00000,1.684862e-08,0.91049,3
218.053,139.333,      0.62800, 92.12225,50.00000,35.00000,1.684512e-08,0.91032,3
219.06,140.333,      0.63357, 92.09028,50.00000,35.00000,1.684918e-08,0.91015,3
220.057,141.333,      0.63799, 92.13434,50.00000,35.00000,1.683227e-08,0.91002,3
221.061,142.333,      0.64531, 92.12700,50.00000,35.00000,1.684510e-08,0.90985,3
222.071,143.333,      0.65245, 92.12700,50.00000,35.00000,1.683404e-08,0.90968,3
223.052,144.333,      0.65497, 92.14903,50.00000,35.00000,1.682894e-08,0.90950,3
224.049,145.333,      0.66252, 92.13434,50.00000,35.00000,1.682453e-08,0.90933,3
225.047,146.333,      0.66854, 92.15637,50.00000,35.00000,1.682892e-08,0.90916,3
226.057,147.333,      0.67439, 92.18575,50.00000,35.00000,1.681554e-08,0.90899,3
227.057,148.333,      0.67909, 92.18575,50.00000,35.00000,1.686338e-08,0.90882,3
228.061,149.333,      0.68535, 92.18575,50.00000,35.00000,1.681971e-08,0.90864,3
229.054,150.333,      0.68967, 92.17840,50.00000,35.00000,1.683009e-08,0.90846,3
230.057,151.333,      0.69654, 92.18575,50.00000,35.00000,1.681733e-08,0.90829,3
231.058,152.333,      0.69953, 92.19309,50.00000,35.00000,1.683627e-08,0.90811,3
232.045,153.333,      0.70506, 92.19309,50.00000,35.00000,1.683081e-08,0.90794,3
233.051,154.333,      0.71119, 92.17106,50.00000,35.00000,1.682993e-08,0.90779,3
234.047,155.333,      0.71713, 92.19309,50.00000,35.00000,1.681624e-08,0.90760,3
235.049,156.333,      0.72251, 92.18575,50.00000,35.00000,1.684808e-08,0.90742,3
236.052,157.333,      0.72770, 92.18575,50.00000,35.00000,1.680255e-08,0.90724,3
237.054,158.333,      0.73193, 92.20281,50.00000,35.00000,1.684188e-08,0.90705,3
238.053,159.333,      0.73773, 92.22484,50.00000,35.00000,1.685168e-08,0.90687,3
239.05,160.333,      0.74276, 92.21749,50.00000,35.00000,1.684664e-08,0.90669,3
240.059,161.333,      0.74977, 92.24428,50.00000,35.00000,1.678735e-08,0.90651,3
241.051,162.333,      0.75483, 92.27127,50.00000,35.00000,1.681833e-08,0.90632,3
242.055,163.333,      0.75990, 92.26868,50.00000,35.00000,1.681637e-08,0.90613,3
243.068,164.333,      0.76401, 92.23952,50.00000,35.00000,1.682811e-08,0.90595,3
244.049,165.333,      0.76732, 92.24687,50.00000,35.00000,1.680550e-08,0.90577,3
245.05,166.333,      0.77420, 92.26134,50.00000,35.00000,1.682628e-08,0.90558,3
246.047,167.333,      0.77912, 92.24687,50.00000,35.00000,1.681591e-08,0.90539,3
247.044,168.333,      0.78425, 92.25400,50.00000,35.00000,1.681968e-08,0.90523,3
248.048,169.333,      0.78979, 92.23218,50.00000,35.00000,1.680576e-08,0.90503,3
249.051,170.333,      0.79693, 92.23952,50.00000,35.00000,1.678118e-08,0.90484,3
250.056,171.333,      0.79993, 92.26134,50.00000,35.00000,1.682088e-08,0.90464,3
251.05,172.333,      0.80332, 92.23952,50.00000,35.00000,1.683635e-08,0.90446,3
252.05,173.333,      0.80871, 92.23218,50.00000,35.00000,1.680655e-08,0.90426,3
253.04,174.333,      0.81570, 92.23218,50.00000,35.00000,1.683078e-08,0.90407,3
254.053,175.333,      0.82113, 92.23218,50.00000,35.00000,1.682943e-08,0.90388,3
255.049,176.333,      0.82298, 92.20281,50.00000,35.00000,1.679817e-08,0.90367,3
256.038,177.333,      0.82981, 92.20043,50.00000,35.00000,1.683089e-08,0.90348,3
257.046,178.333,      0.83408, 92.20518,50.00000,35.00000,1.680764e-08,0.90328,3
258.04,179.333,      0.83754, 92.20518,50.00000,35.00000,1.680066e-08,0.90309,3
259.03,180.333,      0.84582, 92.21015,50.00000,35.00000,1.684479e-08,0.90292,3
260.036,181.333,      0.84672, 92.20281,50.00000,35.00000,1.677473e-08,0.90271,3
261.043,182.333,      0.85343, 92.20281,50.00000,35.00000,1.681506e-08,0.90252,3
262.03,183.333,      0.86035, 92.22484,50.00000,35.00000,1.681263e-08,0.90232,3
263.032,184.333,      0.86528, 92.19546,50.00000,35.00000,1.683506e-08,0.90212,3
264.056,185.333,      0.86824, 92.16609,50.00000,35.00000,1.680723e-08,0.90192,3
265.037,186.333,      0.87137, 92.19546,50.00000,35.00000,1.680243e-08,0.90172,3
266.038,187.333,      0.87977, 92.13931,50.00000,35.00000,1.681712e-08,0.90151,3
267.047,188.333,      0.88174, 92.12462,50.00000,35.00000,1.682032e-08,0.90131,3
268.042,189.333,      0.88693, 92.16134,50.00000,35.00000,1.680950e-08,0.90110,3
269.052,190.333,      0.89255, 92.10994,50.00000,35.00000,1.681340e-08,0.90089,3
270.046,191.333,      0.89535, 92.13197,50.00000,35.00000,1.679919e-08,0.90072,3
271.046,192.333,      0.90180, 92.10994,50.00000,35.00000,1.682605e-08,0.90051,3
272.045,193.333,      0.90583, 92.08056,50.00000,35.00000,1.681010e-08,0.90030,3
273.042,194.333,      0.91048, 92.05119,50.00000,35.00000,1.682351e-08,0.90010,3
274.04,195.333,      0.91453, 92.02203,50.00000,35.00000,1.684476e-08,0.89989,3
275.028,196.333,      0.91960, 92.05119,50.00000,35.00000,1.682818e-08,0.89967,3
276.034,197.333,      0.92511, 92.02203,50.00000,35.00000,1.680140e-08,0.89946,3
277.035,198.333,      0.92941, 91.99266,50.00000,35.00000,1.682495e-08,0.89925,3
278.04,199.333,      0.93351, 92.00000,50.00000,35.00000,1.683510e-08,0.89904,3
279.038,200.333,      0.93824, 91.96825,50.00000,35.00000,1.684073e-08,0.89883,3
280.046,201.333,      0.94298, 91.95356,50.00000,35.00000,1.681079e-08,0.89862,3
281.035,202.333,      0.94813, 91.92419,50.00000,35.00000,1.681958e-08,0.89839,3
282.037,203.333,      0.95187, 91.92419,50.00000,35.00000,1.680965e-08,0.89818,3
283.028,204.333,      0.95643, 91.92419,50.00000,35.00000,1.679961e-08,0.89796,3
284.044,205.333,      0.96144, 91.90950,50.00000,35.00000,1.681493e-08,0.89778,3
285.041,206.333,      0.96459, 91.87300,50.00000,35.00000,1.676493e-08,0.89757,3
286.038,207.333,      0.96837, 91.85832,50.00000,35.00000,1.679941e-08,0.89734,3
287.03,208.333,      0.97462, 91.85832,50.00000,35.00000,1.684797e-08,0.89713,3
288.04,209.333,      0.97865, 91.82160,50.00000,35.00000,1.681891e-08,0.89691,3
289.047,210.333,      0.98123, 91.80691,50.00000,35.00000,1.682345e-08,0.89668,3
290.041,211.333,      0.98587, 91.79222,50.00000,35.00000,1.680490e-08,0.89646,3
291.031,212.333,      0.98949, 91.77019,50.00000,35.00000,1.679075e-08,0.89624,3
292.043,213.333,      0.99501, 91.77019,50.00000,35.00000,1.682904e-08,0.89601,3
293.036,214.333,      0.99761, 91.74838,50.00000,35.00000,1.679910e-08,0.89579,3
294.039,215.333,      1.00273, 91.72376,50.00000,35.00000,1.680827e-08,0.89556,3
295.039,216.333,      1.00723, 91.72376,50.00000,35.00000,1.679671e-08,0.89534,3
296.028,217.333,      1.01007, 91.69460,50.00000,35.00000,1.680354e-08,0.89512,3
297.032,218.333,      1.01522, 91.71663,50.00000,35.00000,1.683257e-08,0.89493,3
298.032,219.333,      1.02039, 91.67257,50.00000,35.00000,1.680724e-08,0.89471,3
299.034,220.333,      1.02243, 91.67019,50.00000,35.00000,1.678453e-08,0.89448,3
300.048,221.333,      1.02470, 91.66285,50.00000,35.00000,1.680161e-08,0.89425,3
301.035,222.333,      1.03030, 91.65551,50.00000,35.00000,1.680503e-08,0.89402,3
302.029,223.333,      1.03257, 91.63348,50.00000,35.00000,1.676849e-08,0.89379,3
303.039,224.333,      1.03633, 91.60410,50.00000,35.00000,1.681837e-08,0.89356,3
304.034,225.333,      1.03694, 91.58207,50.00000,35.00000,1.679988e-08,0.89333,3
305.041,226.333,      1.04198, 91.54557,50.00000,35.00000,1.679210e-08,0.89310,3
306.03,227.333,      1.04405, 91.57473,50.00000,35.00000,1.678104e-08,0.89287,3
307.035,228.333,      1.04764, 91.55292,50.00000,35.00000,1.677722e-08,0.89264,3
308.023,229.333,      1.04994, 91.52354,50.00000,35.00000,1.679118e-08,0.89240,3
309.01,230.333,      1.05690, 91.51620,50.00000,35.00000,1.680173e-08,0.89221,3
310.027,231.333,      1.06138, 91.46242,50.00000,35.00000,1.681686e-08,0.89198,3
311.027,232.333,      1.06034, 91.46976,50.00000,35.00000,1.681864e-08,0.89174,3
312.035,233.333,      1.06694, 91.46976,50.00000,35.00000,1.683364e-08,0.89151,3
313.046,234.333,      1.06762, 91.46242,50.00000,35.00000,1.678973e-08,0.89127,3
314.028,235.333,      1.06826, 91.43305,50.00000,35.00000,1.679015e-08,0.89102,3
315.043,236.333,      1.07406, 91.43305,50.00000,35.00000,1.679993e-08,0.89079,3
316.034,237.333,      1.07600, 91.42570,50.00000,35.00000,1.680090e-08,0.89055,3
317.035,238.333,      1.07818, 91.39633,50.00000,35.00000,1.679473e-08,0.89032,3
318.041,239.333,      1.08293, 91.39633,50.00000,35.00000,1.679885e-08,0.89008,3
319.034,240.333,      1.08383, 91.36717,50.00000,35.00000,1.675650e-08,0.88984,3
320.032,241.333,      1.08709, 91.32549,50.00000,35.00000,1.681596e-08,0.88960,3
321.043,242.333,      1.08974, 91.32549,50.00000,35.00000,1.680509e-08,0.88939,3
322.03,243.333,      1.09150, 91.33283,50.00000,35.00000,1.678473e-08,0.88915,3
323.039,244.333,      1.09394, 91.34276,50.00000,35.00000,1.680908e-08,0.88890,3
324.044,245.333,      1.09638, 91.29374,50.00000,35.00000,1.678181e-08,0.88866,3
325.028,246.333,      1.09859, 91.28639,50.00000,35.00000,1.680873e-08,0.88842,3
326.045,247.333,      1.10127, 91.27171,50.00000,35.00000,1.678698e-08,0.88817,3
327.05,248.333,      1.10266, 91.22786,50.00000,35.00000,1.672925e-08,0.88793,3
328.039,249.333,      1.10532, 91.22786,50.00000,35.00000,1.682224e-08,0.88768,3
329.039,250.333,      1.10822, 91.19849,50.00000,35.00000,1.679578e-08,0.88744,3
330.043,251.333,      1.11049, 91.16911,50.00000,35.00000,1.682653e-08,0.88719,3
331.036,252.333,      1.11383, 91.19114,50.00000,34.00000,1.679430e-08,0.88698,3
332.032,253.333,      1.11631, 91.16177,50.00000,34.00000,1.676259e-08,0.88673,3
333.029,254.333,      1.11663, 91.15443,50.00000,34.00000,1.682042e-08,0.88649,3
334.029,255.333,      1.12218, 91.14708,50.00000,34.00000,1.679844e-08,0.88623,3
335.041,256.333,      1.12384, 91.11793,50.00000,34.00000,1.676732e-08,0.88598,3
336.036,257.333,      1.12285, 91.09590,50.00000,34.00000,1.680701e-08,0.88573,3
337.036,258.333,      1.12755, 91.05918,50.00000,34.00000,1.680356e-08,0.88548,3
338.039,259.333,      1.12833, 91.05184,50.00000,34.00000,1.679863e-08,0.88523,3
339.042,260.333,      1.13043, 91.02268,50.00000,34.00000,1.674433e-08,0.88497,3
340.033,261.333,      1.13208, 90.99806,50.00000,34.00000,1.675646e-08,0.88472,3
341.037,262.333,      1.13463, 90.96890,50.00000,34.00000,1.679978e-08,0.88450,3
342.029,263.333,      1.13408, 90.93952,50.00000,34.00000,1.677976e-08,0.88425,3
343.026,264.333,      1.14038, 90.93218,50.00000,34.00000,1.676239e-08,0.88400,3
344.036,265.333,      1.13899, 90.87343,50.00000,34.00000,1.678840e-08,0.88374,3
345.04,266.333,      1.14045, 90.81490,50.00000,34.00000,1.678104e-08,0.88348,3
346.042,267.333,      1.14170, 90.78553,50.00000,34.00000,1.679900e-08,0.88322,3
347.028,268.333,      1.14337, 90.76350,50.00000,34.00000,1.681346e-08,0.88297,3
348.029,269.333,      1.14617, 90.71965,50.00000,34.00000,1.677641e-08,0.88271,3
349.029,270.333,      1.14876, 90.64622,50.00000,34.00000,1.679571e-08,0.88244,3
350.028,271.333,      1.15047, 90.59978,50.00000,34.00000,1.677723e-08,0.88218,3
351.025,272.333,      1.15150, 90.57063,50.00000,34.00000,1.677040e-08,0.88193,3
352.033,273.333,      1.15233, 90.47279,50.00000,34.00000,1.678642e-08,0.88167,3
353.027,274.333,      1.15493, 90.42873,50.00000,34.00000,1.677423e-08,0.88141,3
354.035,275.333,      1.15264, 90.36285,50.00000,34.00000,1.679461e-08,0.88118,3
355.013,276.333,      1.15500, 90.27495,50.00000,34.00000,1.677643e-08,0.88091,3
356.036,277.333,      1.15855, 90.20151,50.00000,34.00000,1.677183e-08,0.88065,3
357.027,278.333,      1.16027, 90.13564,50.00000,34.00000,1.678133e-08,0.88038,3
358.031,279.333,      1.15976, 90.02570,50.00000,34.00000,1.677065e-08,0.88012,3
359.036,280.333,      1.17728, 89.90842,50.00000,34.00000,1.678280e-08,0.87985,3
360.023,281.333,      1.22212, 89.79827,50.00000,34.00000,1.677379e-08,0.87958,3
361.024,282.333,      1.24541, 89.66652,50.00000,34.00000,1.679102e-08,0.87931,3
362.028,283.333,      1.24207, 89.51987,50.00000,34.00000,1.677468e-08,0.87904,3
363.032,284.333,      1.24823, 89.35616,50.00000,34.00000,1.679392e-08,0.87879,3
364.031,285.333,      1.25758, 89.13369,50.00000,34.00000,1.677721e-08,0.87852,3
365.027,286.333,      1.27240, 88.92851,50.00000,34.00000,1.676799e-08,0.87830,3
366.028,287.333,      1.28498, 88.72333,50.00000,34.00000,1.675106e-08,0.87803,3
367.034,288.333,      1.30126, 88.45680,50.00000,34.00000,1.675319e-08,0.87776,3
368.021,289.333,      1.30910, 88.18575,50.00000,34.00000,1.679753e-08,0.87749,3
369.016,290.333,      1.32201, 87.89978,50.00000,34.00000,1.676737e-08,0.87721,3
370.03,291.333,      1.32834, 87.60648,50.00000,34.00000,1.675679e-08,0.87694,3
371.012,292.333,      1.33235, 87.28402,50.00000,34.00000,1.678623e-08,0.87666,3
372.026,293.333,      1.34331, 86.95659,50.00000,34.00000,1.676028e-08,0.87639,3
373.019,294.333,      1.35494, 86.57063,50.00000,34.00000,1.673437e-08,0.87612,3
374.021,295.333,      1.36960, 86.14536,50.00000,34.00000,1.675442e-08,0.87589,3
375.03,296.333,      1.37028, 85.67624,50.00000,34.00000,1.678484e-08,0.87561,3
376.032,297.333,      1.37394, 85.22894,50.00000,34.00000,1.675242e-08,0.87533,3
377.009,298.333,      1.37318, 84.68898,50.00000,34.00000,1.677035e-08,0.87507,3
378.003,299.333,      1.36829, 84.13931,50.00000,34.00000,1.678927e-08,0.87479,3
379.015,300.333,      1.36665, 83.47214,50.00000,34.00000,1.674870e-08,0.87452,3
380.005,301.333,      1.55008, 82.77581,50.00000,34.00000,1.676574e-08,0.87423,3
381.015,302.333,      1.58231, 81.97430,50.00000,34.00000,1.675464e-08,0.87395,3
382.015,303.333,      1.60184, 81.07257,50.00000,34.00000,1.673460e-08,0.87368,3
383.015,304.333,      1.61397, 80.10497,50.00000,34.00000,1.677449e-08,0.87339,3
384.018,305.333,      1.63126, 79.02009,50.00000,34.00000,1.676968e-08,0.87316,3
385.015,306.333,      1.64952, 77.78121,50.00000,34.00000,1.676088e-08,0.87288,3
386.017,307.333,      1.66760, 76.39590,50.00000,34.00000,1.674429e-08,0.87261,3
387.015,308.333,      1.68198, 74.90281,50.00000,34.00000,1.675725e-08,0.87232,3
388.028,309.333,      1.70088, 73.32678,50.00000,34.00000,1.678640e-08,0.87204,3
389.014,310.333,      1.71718, 71.58942,50.00000,34.00000,1.675493e-08,0.87175,3
390.021,311.333,      1.73311, 69.69093,50.00000,34.00000,1.675889e-08,0.87147,3
391.02,312.333,      1.74389, 67.70670,50.00000,34.00000,1.674722e-08,0.87120,3
392.018,313.333,      1.75728, 65.61512,50.00000,34.00000,1.675847e-08,0.87090,3
393.017,314.333,      1.76599, 63.37430,50.00000,34.00000,1.672817e-08,0.87061,3
394.022,315.333,      1.77143, 60.98467,50.00000,34.00000,1.676898e-08,0.87032,3
395.018,316.333,      1.77734, 58.62678,50.00000,34.00000,1.674066e-08,0.87009,3
396.019,317.333,      1.77830, 56.15875,50.00000,34.00000,1.677310e-08,0.86980,3
397.02,318.333,      1.77239, 53.68834,50.00000,34.00000,1.672182e-08,0.86952,3
398.016,319.333,      1.76384, 51.16911,50.00000,34.00000,1.669859e-08,0.86923,3
399.022,320.333,      1.75552, 48.61317,50.00000,34.00000,1.673898e-08,0.86895,3
399.652,320.963,      1.74797, 47.01771,50.00000,34.00000,1.675525e-08,0.86876,4
399.734,321.038,      1.76005, 46.82225,50.00000,34.00000,1.675525e-08,0.86876,4
399.897,321.113,      1.83752, 46.68294,50.00000,34.00000,1.673544e-08,0.86870,4
400.148,321.188,      1.99567, 46.53866,50.00000,34.00000,1.673544e-08,0.86870,4
400.519,321.263,      2.24429, 46.42397,50.00000,34.00000,1.675605e-08,0.86866,4
401.04,321.338,      2.57108, 46.35054,50.00000,34.00000,1.675605e-08,0.86866,4
401.721,321.413,      2.97336, 46.23564,50.00000,34.00000,1.669896e-08,0.86861,4
402.546,321.488,      3.43361, 46.14773,50.00000,34.00000,1.669896e-08,0.86861,4
403.519,321.563,      3.93198, 46.05983,50.00000,34.00000,1.669896e-08,0.86861,4
404.643,321.638,      4.45266, 45.99136,50.00000,34.00000,1.675617e-08,0.86857,4
405.866,321.713,      4.97388, 45.87408,50.00000,34.00000,1.675617e-08,0.86857,4
407.218,321.788,      5.48095, 45.77387,50.00000,34.00000,1.675620e-08,0.86851,4
408.645,321.863,      5.95482, 45.63456,50.00000,34.00000,1.675620e-08,0.86851,4
410.124,321.938,      6.38536, 45.45875,50.00000,34.00000,1.671382e-08,0.86846,4
411.639,322.013,      6.75992, 45.20950,50.00000,34.00000,1.671382e-08,0.86846,4
413.178,322.088,      7.07833, 45.02376,50.00000,34.00000,1.669887e-08,0.86842,4
414.713,322.163,      7.33878, 44.72808,50.00000,34.00000,1.669887e-08,0.86842,4
416.239,322.238,      7.53963, 44.43240,50.00000,34.00000,1.669887e-08,0.86842,4
417.737,322.313,      7.67910, 44.10259,50.00000,34.00000,1.674335e-08,0.86837,4
419.203,322.388,      7.77238, 43.72873,50.00000,34.00000,1.674335e-08,0.86837,4
420.636,322.463,      7.82675, 43.25227,50.00000,34.00000,1.676558e-08,0.86831,4
422.028,322.538,      7.84289, 42.80259,50.00000,34.00000,1.676558e-08,0.86831,4
423.368,322.613,      7.83665, 42.35054,50.00000,34.00000,1.675415e-08,0.86828,4
424.697,322.688,      7.81599, 41.81296,50.00000,34.00000,1.675415e-08,0.86828,4
425.969,322.763,      7.78772, 41.29741,50.00000,34.00000,1.675415e-08,0.86828,4
427.242,322.838,      7.76034, 40.71339,50.00000,34.00000,1.671381e-08,0.86822,4
428.48,322.913,      7.74088, 40.11965,50.00000,34.00000,1.671381e-08,0.86822,4
429.713,322.988,      7.73589, 39.47214,50.00000,34.00000,1.674365e-08,0.86817,4
430.957,323.063,      7.74461, 38.82225,50.00000,34.00000,1.674365e-08,0.86817,4
432.192,323.138,      7.77859, 38.13067,50.00000,34.00000,1.674037e-08,0.86812,4
433.445,323.213,      7.83225, 37.42937,50.00000,34.00000,1.674037e-08,0.86812,4
434.717,323.288,      7.90696, 36.75248,50.00000,34.00000,1.674037e-08,0.86812,4
436.009,323.363,      8.00384, 35.98531,50.00000,34.00000,1.670927e-08,0.86808,4
437.326,323.438,      8.11581, 35.22527,50.00000,34.00000,1.670927e-08,0.86808,4
438.684,323.513,      8.24539, 34.43369,50.00000,34.00000,1.678760e-08,0.86803,4
440.047,323.588,      8.38602, 33.62981,50.00000,34.00000,1.678760e-08,0.86803,4
441.467,323.663,      8.53557, 32.76220,50.00000,34.00000,1.672852e-08,0.86798,4
442.899,323.738,      8.68756, 31.93888,50.00000,34.00000,1.672852e-08,0.86798,4
444.353,323.813,      8.83984, 31.03715,50.00000,34.00000,1.674686e-08,0.86793,4
445.829,323.888,      8.98713, 30.16739,50.00000,34.00000,1.674686e-08,0.86793,4
447.342,323.963,      9.12526, 29.20950,50.00000,34.00000,1.674113e-08,0.86788,4
448.876,324.038,      9.25552, 28.30281,50.00000,34.00000,1.674113e-08,0.86788,4
450.405,324.113,      9.36864, 27.35724,50.00000,34.00000,1.674113e-08,0.86788,4
451.932,324.188,      9.46479, 26.41641,50.00000,34.00000,1.678902e-08,0.86784,4
453.497,324.263,      9.54286, 25.49050,50.00000,34.00000,1.678902e-08,0.86784,4
455.041,324.338,      9.59992, 24.59114,50.00000,34.00000,1.674311e-08,0.86779,4
456.6,324.413,      9.63732, 23.59914,50.00000,34.00000,1.674311e-08,0.86779,4
458.163,324.488,      9.65739, 22.74147,50.00000,34.00000,1.676105e-08,0.86773,4
459.726,324.563,      9.65505, 21.78121,50.00000,34.00000,1.676105e-08,0.86773,4
461.275,324.638,      9.63387, 20.91382,50.00000,34.00000,1.670782e-08,0.86769,4
462.84,324.713,      9.59514, 20.09762,50.00000,34.00000,1.670782e-08,0.86769,4
464.38,324.788,      9.54498, 19.30346,50.00000,34.00000,1.670782e-08,0.86769,4
465.938,324.863,      9.48075, 18.50929,50.00000,34.00000,1.675360e-08,0.86763,4
467.48,324.938,      9.41000, 17.83737,50.00000,34.00000,1.675360e-08,0.86763,4
469.019,325.013,      9.33156, 17.13369,50.00000,34.00000,1.673830e-08,0.86759,4
470.575,325.088,      9.25531, 16.52289,50.00000,34.00000,1.673830e-08,0.86759,4
472.118,325.163,      9.17590, 15.94622,50.00000,34.00000,1.673576e-08,0.86754,4
473.675,325.238,      9.10126, 15.37927,50.00000,34.00000,1.673576e-08,0.86754,4
475.218,325.313,      9.02977, 14.87343,50.00000,34.00000,1.670628e-08,0.86749,4
476.77,325.388,      8.96859, 14.42873,50.00000,34.00000,1.670628e-08,0.86749,4
478.326,325.463,      8.91216, 13.96436,50.00000,34.00000,1.670628e-08,0.86749,4
479.882,325.538,      8.86999, 13.56609,50.00000,34.00000,1.676388e-08,0.86745,4
481.452,325.613,      8.83545, 13.16307,50.00000,34.00000,1.676388e-08,0.86745,4
483.017,325.688,      8.80623, 12.80389,50.00000,34.00000,1.669552e-08,0.86740,4
484.58,325.763,      8.78320, 12.45184,50.00000,34.00000,1.669552e-08,0.86740,4
486.158,325.838,      8.76178, 12.13909,50.00000,34.00000,1.675661e-08,0.86734,4
487.733,325.913,      8.74258, 11.90454,50.00000,34.00000,1.675661e-08,0.86734,4
489.306,325.988,      8.72107, 11.60886,50.00000,34.00000,1.673180e-08,0.86730,4
490.881,326.063,      8.70185, 11.37927,50.00000,34.00000,1.673180e-08,0.86730,4
492.458,326.138,      8.67901, 11.20821,50.00000,34.00000,1.673180e-08,0.86730,4
494.038,326.213,      8.65767, 10.99806,50.00000,34.00000,1.674548e-08,0.86725,4
495.616,326.288,      8.63831, 10.86609,50.00000,34.00000,1.674548e-08,0.86725,4
497.195,326.363,      8.61286, 10.72678,50.00000,34.00000,1.669985e-08,0.86720,4
498.779,326.438,      8.59218, 10.60713,50.00000,34.00000,1.669985e-08,0.86720,4
500.359,326.513,      8.56832, 10.54104,50.00000,34.00000,1.674605e-08,0.86716,4
501.936,326.588,      8.54644, 10.47754,50.00000,34.00000,1.674605e-08,0.86716,4
503.518,326.663,      8.52637, 10.47754,50.00000,34.00000,1.671713e-08,0.86711,4
505.09,326.738,      8.50413, 10.44816,50.00000,34.00000,1.671713e-08,0.86711,4
506.666,326.813,      8.48862, 10.41901,50.00000,34.00000,1.671713e-08,0.86711,4
508.25,326.888,      8.47253, 10.41901,50.00000,34.00000,1.675960e-08,0.86706,4
509.819,326.963,      8.46192, 10.38963,50.00000,34.00000,1.675960e-08,0.86706,4
511.392,327.038,      8.45042, 10.38963,50.00000,34.00000,1.673435e-08,0.86701,4
512.959,327.113,      8.44151, 10.38963,50.00000,34.00000,1.673435e-08,0.86701,4
514.525,327.188,      8.43497, 10.38963,50.00000,34.00000,1.675209e-08,0.86696,4
516.098,327.263,      8.43258, 10.41901,50.00000,34.00000,1.675209e-08,0.86696,4
517.67,327.338,      8.42898, 10.44816,50.00000,34.00000,1.675927e-08,0.86690,4
519.228,327.413,      8.42794, 10.44816,50.00000,34.00000,1.675927e-08,0.86690,4
520.803,327.488,      8.42729, 10.44816,50.00000,34.00000,1.675927e-08,0.86690,4
522.351,327.563,      8.42908, 10.47754,50.00000,34.00000,1.675452e-08,0.86686,4
523.926,327.638,      8.42802, 10.47754,50.00000,34.00000,1.675452e-08,0.86686,4
525.479,327.713,      8.43030, 10.50691,50.00000,34.00000,1.675864e-08,0.86681,4
527.047,327.788,      8.43183, 10.53629,50.00000,34.00000,1.675864e-08,0.86681,4
528.618,327.863,      8.42939, 10.53629,50.00000,34.00000,1.671651e-08,0.86676,4
530.183,327.938,      8.43189, 10.56566,50.00000,34.00000,1.671651e-08,0.86676,4
531.742,328.013,      8.43313, 10.57279,50.00000,34.00000,1.671651e-08,0.86676,4
533.312,328.088,      8.43613, 10.59482,50.00000,34.00000,1.674131e-08,0.86671,4
534.87,328.163,      8.43469, 10.62419,50.00000,34.00000,1.674131e-08,0.86671,4
536.432,328.238,      8.43606, 10.62419,50.00000,34.00000,1.673888e-08,0.86667,4
537.989,328.313,      8.43332, 10.62419,50.00000,34.00000,1.673888e-08,0.86667,4
539.55,328.388,      8.43055, 10.65356,50.00000,34.00000,1.674250e-08,0.86662,4
541.1,328.463,      8.42845, 10.66825,50.00000,34.00000,1.674250e-08,0.86662,4
542.668,328.538,      8.42731, 10.68294,50.00000,34.00000,1.671891e-08,0.86657,4
544.217,328.613,      8.42159, 10.68294,50.00000,34.00000,1.671891e-08,0.86657,4
545.774,328.688,      8.41990, 10.71210,50.00000,34.00000,1.672340e-08,0.86652,4
547.327,328.763,      8.41723, 10.74147,50.00000,34.00000,1.672340e-08,0.86652,4
548.881,328.838,      8.41131, 10.74147,50.00000,34.00000,1.672340e-08,0.86652,4
550.425,328.913,      8.40780, 10.74147,50.00000,34.00000,1.673893e-08,0.86647,4
551.983,328.988,      8.40348, 10.77084,50.00000,34.00000,1.673893e-08,0.86647,4
553.542,329.063,      8.40054, 10.80022,50.00000,34.00000,1.673541e-08,0.86642,4
555.101,329.138,      8.39200, 10.80022,50.00000,34.00000,1.673541e-08,0.86642,4
556.644,329.213,      8.38815, 10.82937,50.00000,34.00000,1.674041e-08,0.86637,4
558.192,329.288,      8.38397, 10.85875,50.00000,34.00000,1.674041e-08,0.86637,4
559.736,329.363,      8.38055, 10.82937,50.00000,34.00000,1.673095e-08,0.86632,4
561.29,329.438,      8.37773, 10.87581,50.00000,34.00000,1.673095e-08,0.86632,4
562.828,329.513,      8.37204, 10.89050,50.00000,34.00000,1.673095e-08,0.86632,4
564.375,329.588,      8.36781, 10.91987,50.00000,34.00000,1.673969e-08,0.86628,4
565.918,329.663,      8.36464, 10.91987,50.00000,34.00000,1.673969e-08,0.86628,4
567.472,329.738,      8.35944, 10.91987,50.00000,34.00000,1.670731e-08,0.86623,4
569.006,329.813,      8.35514, 10.91987,50.00000,34.00000,1.670731e-08,0.86623,4
570.545,329.888,      8.35109, 10.97840,50.00000,34.00000,1.673237e-08,0.86617,4
572.095,329.963,      8.35094, 10.97840,50.00000,34.00000,1.673237e-08,0.86617,4
573.637,330.038,      8.34647, 10.97840,50.00000,34.00000,1.671913e-08,0.86612,4
575.183,330.113,      8.34404, 11.01037,50.00000,34.00000,1.671913e-08,0.86612,4
576.72,330.188,      8.34325, 11.01037,50.00000,34.00000,1.671913e-08,0.86612,4
578.253,330.263,      8.33935, 11.03952,50.00000,34.00000,1.673115e-08,0.86609,4
579.807,330.338,      8.33768, 11.03952,50.00000,34.00000,1.673115e-08,0.86609,4
581.342,330.413,      8.33605, 11.07624,50.00000,34.00000,1.677552e-08,0.86604,4
582.882,330.488,      8.33469, 11.12765,50.00000,34.00000,1.677552e-08,0.86604,4
584.422,330.563,      8.33417, 11.09827,50.00000,34.00000,1.673562e-08,0.86598,4
585.953,330.638,      8.33530, 11.12765,50.00000,34.00000,1.673562e-08,0.86598,4
587.486,330.713,      8.33519, 11.12765,50.00000,34.00000,1.675719e-08,0.86594,4
589.022,330.788,      8.33443, 11.15680,50.00000,34.00000,1.675719e-08,0.86594,4
590.561,330.863,      8.33666, 11.15680,50.00000,34.00000,1.675719e-08,0.86594,4
592.101,330.938,      8.33945, 11.15680,50.00000,34.00000,1.676777e-08,0.86588,4
593.634,331.013,      8.33877, 11.18618,50.00000,34.00000,1.676777e-08,0.86588,4
595.169,331.088,      8.34475, 11.21555,50.00000,34.00000,1.674736e-08,0.86584,4
596.7,331.163,      8.34760, 11.21555,50.00000,34.00000,1.674736e-08,0.86584,4
598.234,331.238,      8.35255, 11.24492,50.00000,34.00000,1.673701e-08,0.86579,4
599.763,331.313,      8.35711, 11.27408,50.00000,34.00000,1.673701e-08,0.86579,4
601.303,331.388,      8.36080, 11.27408,50.00000,34.00000,1.673790e-08,0.86573,4
602.83,331.463,      8.36924, 11.27408,50.00000,34.00000,1.673790e-08,0.86573,4
604.357,331.538,      8.37548, 11.30346,50.00000,34.00000,1.673790e-08,0.86573,4
605.885,331.613,      8.38200, 11.30346,50.00000,34.00000,1.673664e-08,0.86569,4
607.423,331.688,      8.39382, 11.30346,50.00000,34.00000,1.673664e-08,0.86569,4
608.966,331.763,      8.40164, 11.31814,50.00000,34.00000,1.673149e-08,0.86564,4
610.491,331.838,      8.41019, 11.33283,50.00000,34.00000,1.673149e-08,0.86564,4
612.022,331.913,      8.42217, 11.33283,50.00000,34.00000,1.674345e-08,0.86559,4
613.55,331.988,      8.43285, 11.36220,50.00000,34.00000,1.674345e-08,0.86559,4
615.087,332.063,      8.44390, 11.36220,50.00000,34.00000,1.676732e-08,0.86554,4
616.607,332.138,      8.45135, 11.39136,50.00000,34.00000,1.676732e-08,0.86554,4
618.125,332.213,      8.46342, 11.41339,50.00000,34.00000,1.676732e-08,0.86554,4
619.662,332.288,      8.47564, 11.42073,50.00000,34.00000,1.672647e-08,0.86550,4
621.175,332.363,      8.48637, 11.39136,50.00000,34.00000,1.672647e-08,0.86550,4
622.717,332.438,      8.49890, 11.45508,50.00000,34.00000,1.674811e-08,0.86544,4
624.228,332.513,      8.51271, 11.42333,50.00000,34.00000,1.674811e-08,0.86544,4
625.758,332.588,      8.52761, 11.42333,50.00000,34.00000,1.673943e-08,0.86540,4
627.278,332.663,      8.53989, 11.42333,50.00000,34.00000,1.673943e-08,0.86540,4
628.818,332.738,      8.55644, 11.43045,50.00000,34.00000,1.676276e-08,0.86535,4
630.329,332.813,      8.57113, 11.45248,50.00000,34.00000,1.676276e-08,0.86535,4
631.865,332.888,      8.59015, 11.48186,50.00000,34.00000,1.676276e-08,0.86535,4
633.388,332.963,      8.60589, 11.48186,50.00000,34.00000,1.674234e-08,0.86529,4
634.917,333.038,      8.62484, 11.51123,50.00000,34.00000,1.674234e-08,0.86529,4
636.424,333.113,      8.64392, 11.51123,50.00000,34.00000,1.676850e-08,0.86524,4
637.953,333.188,      8.66447, 11.51123,50.00000,34.00000,1.676850e-08,0.86524,4
639.468,333.263,      8.68650, 11.51123,50.00000,34.00000,1.673243e-08,0.86519,4
640.995,333.338,      8.70736, 11.51123,50.00000,34.00000,1.673243e-08,0.86519,4
642.518,333.413,      8.72916, 11.51123,50.00000,34.00000,1.675697e-08,0.86514,4
644.038,333.488,      8.75415, 11.51123,50.00000,34.00000,1.675697e-08,0.86514,4
645.563,333.563,      8.78016, 11.51123,50.00000,34.00000,1.675697e-08,0.86514,4
647.081,333.638,      8.80549, 11.53326,50.00000,34.00000,1.674571e-08,0.86510,4
648.603,333.713,      8.83410, 11.51857,50.00000,34.00000,1.674571e-08,0.86510,4
650.118,333.788,      8.86107, 11.51857,50.00000,34.00000,1.673045e-08,0.86505,4
651.63,333.863,      8.88739, 11.51857,50.00000,34.00000,1.673045e-08,0.86505,4
653.154,333.938,      8.91772, 11.51857,50.00000,34.00000,1.675962e-08,0.86500,4
654.673,334.013,      8.94804, 11.50389,50.00000,34.00000,1.675962e-08,0.86500,4
656.195,334.088,      8.97583, 11.48186,50.00000,34.00000,1.675673e-08,0.86496,4
657.705,334.163,      9.00582, 11.48186,50.00000,34.00000,1.675673e-08,0.86496,4
659.238,334.238,      9.03767, 11.45248,50.00000,34.00000,1.675673e-08,0.86496,4
660.74,334.313,      9.07157, 11.45248,50.00000,34.00000,1.673267e-08,0.86491,4
662.261,334.388,      9.10601, 11.42333,50.00000,34.00000,1.673267e-08,0.86491,4
663.775,334.463,      9.13652, 11.42333,50.00000,34.00000,1.670953e-08,0.86486,4
665.294,334.538,      9.16546, 11.36458,50.00000,34.00000,1.670953e-08,0.86486,4
666.811,334.613,      9.19606, 11.36458,50.00000,34.00000,1.676644e-08,0.86481,4
668.338,334.688,      9.22777, 11.33521,50.00000,34.00000,1.676644e-08,0.86481,4
669.85,334.763,      9.25643, 11.33521,50.00000,34.00000,1.673010e-08,0.86476,4
671.363,334.838,      9.28710, 11.27667,50.00000,34.00000,1.673010e-08,0.86476,4
672.878,334.913,      9.31354, 11.24730,50.00000,34.00000,1.673010e-08,0.86476,4
674.389,334.988,      9.34129, 11.21793,50.00000,34.00000,1.677514e-08,0.86470,4
675.909,335.063,      9.36551, 11.18855,50.00000,34.00000,1.677514e-08,0.86470,4
677.421,335.138,      9.39399, 11.15680,50.00000,34.00000,1.674743e-08,0.86465,4
678.938,335.213,      9.41856, 11.10562,50.00000,34.00000,1.674743e-08,0.86465,4
680.458,335.288,      9.44616, 11.06890,50.00000,34.00000,1.673467e-08,0.86461,4
681.969,335.363,      9.47039, 11.03952,50.00000,34.00000,1.673467e-08,0.86461,4
683.496,335.438,      9.49812, 11.03218,50.00000,34.00000,1.672453e-08,0.86456,4
685.013,335.513,      9.52044, 10.96393,50.00000,34.00000,1.672453e-08,0.86456,4
686.524,335.588,      9.54473, 10.91987,50.00000,34.00000,1.672453e-08,0.86456,4
688.041,335.663,      9.56909, 10.87581,50.00000,34.00000,1.673434e-08,0.86451,4
689.556,335.738,      9.59581, 10.85378,50.00000,34.00000,1.673434e-08,0.86451,4
691.075,335.813,      9.61856, 10.79028,50.00000,34.00000,1.672108e-08,0.86446,4
692.585,335.888,      9.64091, 10.74644,50.00000,34.00000,1.672108e-08,0.86446,4
694.1,335.963,      9.66197, 10.70734,50.00000,34.00000,1.674672e-08,0.86441,4
695.626,336.038,      9.68416, 10.64622,50.00000,34.00000,1.674672e-08,0.86441,4
697.137,336.113,      9.70589, 10.60950,50.00000,34.00000,1.672152e-08,0.86437,4
698.649,336.188,      9.72325, 10.55335,50.00000,34.00000,1.672152e-08,0.86437,4
700.162,336.263,      9.73927, 10.52397,50.00000,34.00000,1.672152e-08,0.86437,4
701.679,336.338,      9.75329, 10.45810,50.00000,34.00000,1.674795e-08,0.86431,4
703.192,336.413,      9.76558, 10.39698,50.00000,34.00000,1.674795e-08,0.86431,4
704.712,336.488,      9.77723, 10.36760,50.00000,34.00000,1.675815e-08,0.86426,4
706.226,336.563,      9.78883, 10.30173,50.00000,34.00000,1.675815e-08,0.86426,4
707.745,336.638,      9.79568, 10.24060,50.00000,34.00000,1.675545e-08,0.86421,4
709.266,336.713,      9.80116, 10.20389,50.00000,34.00000,1.675545e-08,0.86421,4
710.77,336.788,      9.80749, 10.10864,50.00000,34.00000,1.673719e-08,0.86416,4
712.29,336.863,      9.81017, 10.07927,50.00000,34.00000,1.673719e-08,0.86416,4
713.807,336.938,      9.81623, 10.04989,50.00000,34.00000,1.673719e-08,0.86416,4
715.319,337.013,      9.81981, 10.02073,50.00000,34.00000,1.677488e-08,0.86411,4
716.838,337.088,      9.82205,  9.99136,50.00000,34.00000,1.677488e-08,0.86411,4
718.35,337.163,      9.82110,  9.92786,50.00000,34.00000,1.672017e-08,0.86406,4
719.865,337.238,      9.82289,  9.89611,50.00000,34.00000,1.672017e-08,0.86406,4
721.38,337.313,      9.82085,  9.86674,50.00000,34.00000,1.674834e-08,0.86402,4
722.899,337.388,      9.81881,  9.80799,50.00000,34.00000,1.674834e-08,0.86402,4
724.411,337.463,      9.81597,  9.77883,50.00000,34.00000,1.675114e-08,0.86396,4
725.928,337.538,      9.80759,  9.77883,50.00000,34.00000,1.675114e-08,0.86396,4
727.44,337.613,      9.80014,  9.71771,50.00000,34.00000,1.675114e-08,0.86396,4
728.949,337.688,      9.79053,  9.68834,50.00000,34.00000,1.672822e-08,0.86392,4
730.463,337.763,      9.77847,  9.68834,50.00000,34.00000,1.672822e-08,0.86392,4
731.983,337.838,      9.77197,  9.65896,50.00000,34.00000,1.673242e-08,0.86386,4
733.497,337.913,      9.75245,  9.62959,50.00000,34.00000,1.673242e-08,0.86386,4
735.004,337.988,      9.73384,  9.62959,50.00000,34.00000,1.674401e-08,0.86382,4
736.523,338.063,      9.70931,  9.61512,50.00000,34.00000,1.674401e-08,0.86382,4
738.038,338.138,      9.68324,  9.60043,50.00000,34.00000,1.667506e-08,0.86376,4
739.544,338.213,      9.66717,  9.60043,50.00000,34.00000,1.667506e-08,0.86376,4
741.059,338.288,      9.65286,  9.62959,50.00000,34.00000,1.667506e-08,0.86376,4
742.576,338.363,      9.64625,  9.65896,50.00000,34.00000,1.671579e-08,0.86372,4
744.092,338.438,      9.64945,  9.65896,50.00000,34.00000,1.671579e-08,0.86372,4
745.598,338.513,      9.64901,  9.62959,50.00000,34.00000,1.673719e-08,0.86366,4
747.119,338.588,      9.65540,  9.69071,50.00000,34.00000,1.673719e-08,0.86366,4
748.624,338.663,      9.65880,  9.72009,50.00000,34.00000,1.674571e-08,0.86361,4
750.145,338.738,      9.66163,  9.69071,50.00000,34.00000,1.674571e-08,0.86361,4
751.65,338.813,      9.66465,  9.72009,50.00000,34.00000,1.674571e-08,0.86361,4
753.166,338.888,      9.66953,  9.72009,50.00000,34.00000,1.675345e-08,0.86357,4
754.672,338.963,      9.67289,  9.72009,50.00000,34.00000,1.675345e-08,0.86357,4
756.193,339.038,      9.67815,  9.77883,50.00000,34.00000,1.672045e-08,0.86352,4
757.707,339.113,      9.68191,  9.77883,50.00000,34.00000,1.672045e-08,0.86352,4
759.212,339.188,      9.68381,  9.77883,50.00000,34.00000,1.669884e-08,0.86346,4
760.716,339.263,      9.68496,  9.80799,50.00000,34.00000,1.669884e-08,0.86346,4
762.236,339.338,      9.68624,  9.80799,50.00000,34.00000,1.670907e-08,0.86341,4
763.736,339.413,      9.68733,  9.80799,50.00000,34.00000,1.670907e-08,0.86341,4
765.251,339.488,      9.68745,  9.83737,50.00000,34.00000,1.670907e-08,0.86341,4
766.759,339.563,      9.68750,  9.86674,50.00000,34.00000,1.673057e-08,0.86337,4
768.261,339.638,      9.67920,  9.86674,50.00000,34.00000,1.673057e-08,0.86337,4
769.775,339.713,      9.67493,  9.86674,50.00000,34.00000,1.672070e-08,0.86332,4
771.289,339.788,      9.66775,  9.89611,50.00000,34.00000,1.672070e-08,0.86332,4
772.805,339.863,      9.66344,  9.88143,50.00000,34.00000,1.673490e-08,0.86328,4
774.326,339.938,      9.66060,  9.87408,50.00000,34.00000,1.673490e-08,0.86328,4
775.817,340.013,      9.66146,  9.90346,50.00000,34.00000,1.673517e-08,0.86322,4
777.341,340.088,      9.66152,  9.90346,50.00000,34.00000,1.673517e-08,0.86322,4
778.841,340.163,      9.65953,  9.93261,50.00000,34.00000,1.673517e-08,0.86322,4
780.36,340.238,      9.65842,  9.93261,50.00000,34.00000,1.673427e-08,0.86317,4
781.86,340.313,      9.65932,  9.96199,50.00000,34.00000,1.673427e-08,0.86317,4
783.375,340.388,      9.65815,  9.96199,50.00000,34.00000,1.673520e-08,0.86312,4
784.887,340.463,      9.65402,  9.96199,50.00000,34.00000,1.673520e-08,0.86312,4
786.407,340.538,      9.65031,  9.99136,50.00000,34.00000,1.671462e-08,0.86307,4
787.913,340.613,      9.64902, 10.02073,50.00000,34.00000,            ,0.44974,4
789.419,340.688,      9.64332, 10.02073,50.00000,34.00000,            ,0.44913,4
790.923,340.763,      9.64052, 10.02073,50.00000,34.00000,            ,0.44853,4
792.438,340.838,      9.64148, 10.04255,50.00000,34.00000,            ,0.44792,4
793.941,340.913,      9.63385, 10.04989,50.00000,34.00000,            ,0.44732,4
794.147,340.923,      9.63527, 10.04989,50.00000,34.00000,            ,0.44723,4