File: data/TGA/commercial_samples/ExpDat_2025_09_09_SL_PS_Blue_Cup_SCF3_P5EER3_V3_4_dynamic.csv
#EXPORTTYPE:                 ,DATA ALL
#FILE:                       ,2025_09_09_SL_PS_Blue_Cup_SCF3_P5EER3_V3_4_Dynamic.ngb-ss5
#FORMAT:                     ,NETZSCH5
#FTYPE:                      ,ASCII
#IDENTITY:                   ,P5EER3-V3+4
#DECIMAL:                    ,POINT
#SEPARATOR:                  ,COMMA
#MTYPE:                      ,DSC
#INSTRUMENT:                 ,NETZSCH STA 449F5
#PROJECT:                    ,PS-SCF3
#DATE/TIME:                  ,9/8/2025 10:19:03 AM (UTC-4)
#CORR. FILE:                 ,
#TEMPCAL:                    ,05-05-2025 14:38
#SENSITIVITY:                ,28-06-2023 13:53
#LABORATORY:                 ,Tran
#OPERATOR:                   ,Stanley
#REMARK:                     ,2025_03_20_Styrofoam_dynamic
#SAMPLE:                     ,P5EER3-V3+4
#SAMPLE MASS /mg:            ,4.99
#MATERIAL:                   ,Polystyrene
#REFERENCE:                  ,
#REFERENCE MASS /mg:         ,0
#TYPE OF CRUCIBLE:           ,Al2O3 85 ‘l, open
#SAMPLE CRUCIBLE MASS /mg:   ,0
#REFERENCE CRUCIBLE MASS /mg:,0
#DSC RANGE /‘V:              ,5000
#TG RANGE /mg:               ,35000
#TAU-R:                      ,---
#CORR. CODE:                 ,000
#EXO:                        ,-1
#RANGE:                      ,20›C....800›C/0.0....20.0K/min
#SEGMENT:                    ,S1-4/4
#SEG. 1:                     ,20›C/5.0(K/min)/100›C
#SEG. 2:                     ,100›C/00:05/100›C
#SEG. 3:                     ,100›C/1.0(K/min)/400›C
#SEG. 4:                     ,400›C/20.0(K/min)/800›C

##Temp./›C,Time/min,DSC/(mW/mg),Mass/%,Gas Flow(purge2)/(ml/min),Gas Flow(protective)/(ml/min),TIC(scan:1)/A,Sensit./(uV/mW),Segment
 23.39900,  0.00000,      0.84240,    100,50.00000,38.00000,            ,0.92219,1
 26.86700,  1.00000,      0.77959,     98.26794,50.00000,36.00000,6.834999e-09,0.92251,1
 29.11500,  2.00000,      0.54774,     97.83487,50.00000,33.00000,6.834180e-09,0.92279,1
 30.86100,  3.00000,      0.44889,     90.08557,50.00000,33.00000,6.837457e-09,0.92301,1
 32.95500,  4.00000,      0.53558,     91.46613,50.00000,33.00000,6.865594e-09,0.92320,1
 35.85200,  5.00000,      0.73360,     91.79719,50.00000,33.00000,6.862482e-09,0.92336,1
 39.57700,  6.00000,      0.96246,     92.10561,50.00000,33.00000,6.878495e-09,0.92348,1
 44.05000,  7.00000,      1.18365,     92.50240,50.00000,33.00000,6.890073e-09,0.92360,1
 49.15400,  8.00000,      1.38444,     92.85832,50.00000,33.00000,6.882166e-09,0.92373,1
 54.74300,  9.00000,      1.55642,     93.18938,50.00000,33.00000,6.892309e-09,0.92387,1
 60.66700, 10.00000,      1.68842,     93.44088,50.00000,33.00000,6.890155e-09,0.92402,1
 66.79200, 11.00000,      1.78486,     93.65872,50.00000,33.00000,6.887957e-09,0.92419,1
 72.92800, 12.00000,      1.84762,     93.79459,50.00000,33.00000,6.905065e-09,0.92437,1
 79.01000, 13.00000,      1.88626,     93.87635,50.00000,33.00000,6.890302e-09,0.92456,1
 85.05300, 14.00000,      1.90638,     93.98517,50.00000,33.00000,6.906711e-09,0.92476,1
 91.01000, 15.00000,      1.91089,     94.03948,50.00000,33.00000,6.905464e-09,0.92496,1
 96.79500, 16.00000,      1.90448,     94.06673,50.00000,33.00000,6.914088e-09,0.92516,1
100.768, 16.75000,      1.78408,     93.77876,50.00000,33.00000,6.915551e-09,0.92529,2
103.495, 17.50000,      1.36488,     93.12585,50.00000,33.00000,6.916394e-09,0.92545,2
105.304, 18.25000,      0.96926,     92.63848,50.00000,33.00000,6.908762e-09,0.92557,2
106.647, 19.00000,      0.70171,     92.27114,50.00000,33.00000,6.918916e-09,0.92568,2
107.507, 19.75000,      0.47697,     91.85852,50.00000,33.00000,6.914417e-09,0.92582,2
107.903, 20.50000,      0.26090,     91.45030,50.00000,33.00000,6.924692e-09,0.92591,2
107.897, 21.33333, 5.740356e-02,     91.02866,50.00000,33.00000,6.924858e-09,0.92601,3
107.661, 22.33333,-4.309105e-02,     90.72024,50.00000,33.00000,6.933780e-09,0.92610,3
107.464, 23.33333,-5.390206e-02,     90.49820,50.00000,33.00000,6.930234e-09,0.92617,3
107.23, 24.33333,-5.522893e-02,     90.30762,50.00000,33.00000,6.939744e-09,0.92620,3
107.108, 25.33333,-2.944322e-02,     90.16713,50.00000,33.00000,6.940709e-09,0.92619,3
107.131, 26.33333, 2.179146e-02,     90.07876,50.00000,33.00000,6.928915e-09,0.92615,3
107.329, 27.33333, 8.051696e-02,     89.99699,50.00000,33.00000,6.922897e-09,0.92609,3
107.677, 28.33333,      0.13809,     89.94269,50.00000,33.00000,6.912107e-09,0.92598,3
108.203, 29.33333,      0.19270,     89.91543,50.00000,33.00000,6.917244e-09,0.92583,3
108.84, 30.33333,      0.24117,     89.88818,50.00000,33.00000,6.909558e-09,0.92565,3
109.607, 31.33333,      0.28485,     89.85651,50.00000,33.00000,6.928476e-09,0.92543,3
110.473, 32.33333,      0.31990,     89.79539,50.00000,33.00000,6.934355e-09,0.92517,3
111.409, 33.33333,      0.34748,     89.77034,50.00000,33.00000,6.926532e-09,0.92488,3
112.386, 34.33333,      0.36709,     89.72946,50.00000,33.00000,6.927031e-09,0.92456,3
113.414, 35.33333,      0.38189,     89.68196,50.00000,33.00000,6.944925e-09,0.92420,3
114.463, 36.33333,      0.39221,     89.63888,50.00000,33.00000,6.928661e-09,0.92381,3
115.532, 37.33333,      0.39836,     89.61162,50.00000,33.00000,6.924512e-09,0.92339,3
116.589, 38.33333,      0.40169,     89.57315,50.00000,33.00000,6.943834e-09,0.92294,3
117.65, 39.33333,      0.40101,     89.50281,50.00000,33.00000,6.929452e-09,0.92246,3
118.696, 40.33333,      0.40251,     89.47555,50.00000,33.00000,6.920945e-09,0.92205,3
119.753, 41.33333,      0.39933,     89.45531,50.00000,33.00000,6.921502e-09,0.92159,3
120.793, 42.33333,      0.39816,     89.41443,50.00000,33.00000,6.929079e-09,0.92120,3
121.823, 43.33333,      0.39665,     89.38717,50.00000,33.00000,6.925440e-09,0.92084,3
122.839, 44.33333,      0.39530,     89.34629,50.00000,33.00000,6.920881e-09,0.92052,3
123.853, 45.33333,      0.39396,     89.29419,50.00000,33.00000,6.922865e-09,0.92025,3
124.882, 46.33333,      0.39246,     89.29419,50.00000,33.00000,6.916823e-09,0.92002,3
125.898, 47.33333,      0.39128,     89.28297,50.00000,33.00000,6.921280e-09,0.91982,3
126.899, 48.33333,      0.38944,     89.27375,50.00000,33.00000,6.912483e-09,0.91964,3
127.915, 49.33333,      0.38877,     89.27375,50.00000,33.00000,6.925050e-09,0.91947,3
128.909, 50.33333,      0.38810,     89.24669,50.00000,33.00000,6.921915e-09,0.91933,3
129.918, 51.33333,      0.38845,     89.21944,50.00000,33.00000,6.930728e-09,0.91920,3
130.922, 52.33333,      0.38996,     89.21483,50.00000,33.00000,6.929528e-09,0.91910,3
131.919, 53.33333,      0.38846,     89.21263,50.00000,33.00000,6.925633e-09,0.91903,3
132.916, 54.33333,      0.38847,     89.19900,50.00000,33.00000,6.925553e-09,0.91896,3
133.919, 55.33333,      0.38916,     89.19900,50.00000,33.00000,6.932708e-09,0.91892,3
134.922, 56.33333,      0.38968,     89.17856,50.00000,33.00000,6.912004e-09,0.91889,3
135.909, 57.33333,      0.39054,     89.19900,50.00000,33.00000,6.928728e-09,0.91889,3
136.923, 58.33333,      0.38938,     89.22405,50.00000,33.00000,6.927047e-09,0.91890,3
137.914, 59.33333,      0.38957,     89.20581,50.00000,33.00000,6.929538e-09,0.91892,3
138.929, 60.33333,      0.38960,     89.23307,50.00000,33.00000,6.914678e-09,0.91895,3
139.917, 61.33333,      0.39097,     89.23307,50.00000,33.00000,6.923516e-09,0.91898,3
140.925, 62.33333,      0.39016,     89.21263,50.00000,33.00000,6.916121e-09,0.91900,3
141.918, 63.33333,      0.38952,     89.23988,50.00000,33.00000,6.895031e-09,0.91903,3
142.929, 64.33333,      0.39057,     89.26713,50.00000,33.00000,6.924228e-09,0.91906,3
143.933, 65.33333,      0.38942,     89.24669,50.00000,33.00000,6.923584e-09,0.91908,3
144.925, 66.33333,      0.39013,     89.27375,50.00000,33.00000,6.910134e-09,0.91910,3
145.935, 67.33333,      0.39034,     89.30100,50.00000,33.00000,6.926864e-09,0.91912,3
146.932, 68.33333,      0.39022,     89.30782,50.00000,33.00000,6.923366e-09,0.91913,3
147.931, 69.33333,      0.38941,     89.32144,50.00000,33.00000,6.915182e-09,0.91914,3
148.919, 70.33333,      0.38980,     89.32826,50.00000,33.00000,6.918337e-09,0.91913,3
149.935, 71.33333,      0.39188,     89.31924,50.00000,33.00000,6.918847e-09,0.91912,3
150.937, 72.33333,      0.39193,     89.34629,50.00000,33.00000,6.912159e-09,0.91911,3
151.937, 73.33333,      0.39148,     89.38257,50.00000,33.00000,6.928650e-09,0.91908,3
152.941, 74.33333,      0.39000,     89.35551,50.00000,33.00000,6.922012e-09,0.91904,3
153.931, 75.33333,      0.39040,     89.38717,50.00000,33.00000,6.927185e-09,0.91900,3
154.947, 76.33333,      0.38978,     89.40762,50.00000,33.00000,6.921909e-09,0.91897,3
155.943, 77.33333,      0.38780,     89.40762,50.00000,33.00000,6.900073e-09,0.91891,3
156.94, 78.33333,      0.38973,     89.42806,50.00000,33.00000,6.917673e-09,0.91885,3
157.951, 79.33333,      0.38860,     89.43487,50.00000,33.00000,6.895976e-09,0.91878,3
158.951, 80.33333,      0.38867,     89.46192,50.00000,33.00000,6.923939e-09,0.91871,3
159.956, 81.33333,      0.38772,     89.46874,50.00000,33.00000,6.912222e-09,0.91863,3
160.964, 82.33333,      0.38642,     89.48918,50.00000,33.00000,6.913130e-09,0.91854,3
161.955, 83.33333,      0.38598,     89.50281,50.00000,33.00000,6.903240e-09,0.91845,3
162.952, 84.33333,      0.38588,     89.53687,50.00000,33.00000,6.917309e-09,0.91835,3
163.955, 85.33333,      0.38287,     89.53687,50.00000,33.00000,6.916017e-09,0.91825,3
164.935, 86.33333,      0.38294,     89.55731,50.00000,33.00000,6.925729e-09,0.91814,3
165.943, 87.33333,      0.38199,     89.58437,50.00000,33.00000,6.920510e-09,0.91802,3
166.957, 88.33333,      0.38173,     89.61162,50.00000,33.00000,6.914158e-09,0.91791,3
167.943, 89.33333,      0.38078,     89.60721,50.00000,33.00000,6.916834e-09,0.91781,3
168.921, 90.33333,      0.38085,     89.60721,50.00000,33.00000,6.907254e-09,0.91768,3
169.941, 91.33333,      0.37802,     89.67295,50.00000,33.00000,6.917284e-09,0.91756,3
170.944, 92.33333,      0.37570,     89.65251,50.00000,33.00000,6.912923e-09,0.91743,3
171.931, 93.33333,      0.37389,     89.67976,50.00000,33.00000,6.910652e-09,0.91730,3
172.944, 94.33333,      0.37346,     89.70681,50.00000,33.00000,6.919389e-09,0.91717,3
173.95, 95.33333,      0.37182,     89.73868,50.00000,33.00000,6.915138e-09,0.91704,3
174.937, 96.33333,      0.36915,     89.76132,50.00000,33.00000,6.921031e-09,0.91690,3
175.942, 97.33333,      0.36872,     89.78858,50.00000,33.00000,6.908842e-09,0.91676,3
176.952, 98.33333,      0.36553,     89.76814,50.00000,33.00000,6.925200e-09,0.91662,3
177.94, 99.33333,      0.36078,     89.78176,50.00000,33.00000,6.930427e-09,0.91648,3
178.942,100.333,      0.35966,     89.78176,50.00000,33.00000,6.920994e-09,0.91636,3
179.938,101.333,      0.35767,     89.80661,50.00000,33.00000,6.919107e-09,0.91622,3
180.94,102.333,      0.35602,     89.83387,50.00000,33.00000,6.923223e-09,0.91607,3
181.937,103.333,      0.35403,     89.86112,50.00000,33.00000,6.911209e-09,0.91593,3
182.932,104.333,      0.35186,     89.87014,50.00000,33.00000,6.910917e-09,0.91578,3
183.935,105.333,      0.34970,     89.87234,50.00000,33.00000,6.919492e-09,0.91563,3
184.941,106.333,      0.34770,     89.91323,50.00000,33.00000,6.918985e-09,0.91549,3
185.938,107.333,      0.34397,     89.92004,50.00000,33.00000,6.923749e-09,0.91534,3
186.934,108.333,      0.34127,     89.92004,50.00000,33.00000,6.905709e-09,0.91519,3
187.948,109.333,      0.34119,     89.94729,50.00000,33.00000,6.906488e-09,0.91507,3
188.945,110.333,      0.33710,     89.94729,50.00000,33.00000,6.920702e-09,0.91493,3
189.941,111.333,      0.33318,     89.93808,50.00000,33.00000,6.919247e-09,0.91477,3
190.94,112.333,      0.33152,     89.96533,50.00000,33.00000,6.920670e-09,0.91462,3
191.945,113.333,      0.32881,     89.99479,50.00000,33.00000,6.917478e-09,0.91447,3
192.938,114.333,      0.32453,     89.99259,50.00000,33.00000,6.925236e-09,0.91432,3
193.95,115.333,      0.32217,     90.01984,50.00000,33.00000,6.927030e-09,0.91417,3
194.944,116.333,      0.31945,     90.02645,50.00000,33.00000,6.922668e-09,0.91402,3
195.94,117.333,      0.31638,     90.02645,50.00000,33.00000,6.928282e-09,0.91387,3
196.962,118.333,      0.31209,     90.02204,50.00000,33.00000,6.926659e-09,0.91374,3
197.928,119.333,      0.30795,     90.04008,50.00000,33.00000,6.925582e-09,0.91359,3
198.948,120.333,      0.30645,     90.05611,50.00000,33.00000,6.925390e-09,0.91344,3
199.934,121.333,      0.30582,     90.08557,50.00000,33.00000,6.920753e-09,0.91328,3
200.946,122.333,      0.30519,     90.07876,50.00000,33.00000,6.934761e-09,0.91313,3
201.95,123.333,      0.29947,     90.07194,50.00000,33.00000,6.923082e-09,0.91297,3
202.961,124.333,      0.29655,     90.07194,50.00000,33.00000,6.928552e-09,0.91282,3
203.957,125.333,      0.29275,     90.06733,50.00000,33.00000,6.928826e-09,0.91266,3
204.959,126.333,      0.28929,     90.06954,50.00000,33.00000,6.927900e-09,0.91250,3
205.966,127.333,      0.28689,     90.08317,50.00000,33.00000,6.918666e-09,0.91235,3
206.945,128.333,      0.28254,     90.05611,50.00000,33.00000,6.924846e-09,0.91219,3
207.948,129.333,      0.27854,     90.04930,50.00000,33.00000,6.930863e-09,0.91203,3
208.958,130.333,      0.27631,     90.06954,50.00000,33.00000,6.923846e-09,0.91190,3
209.957,131.333,      0.27389,     90.06954,50.00000,33.00000,6.922814e-09,0.91173,3
210.937,132.333,      0.27023,     90.07876,50.00000,33.00000,6.934990e-09,0.91158,3
211.936,133.333,      0.26692,     90.06513,50.00000,33.00000,6.934973e-09,0.91141,3
212.942,134.333,      0.26396,     90.06513,50.00000,33.00000,6.941710e-09,0.91125,3
213.941,135.333,      0.26135,     90.07194,50.00000,33.00000,6.933400e-09,0.91109,3
214.947,136.333,      0.25856,     90.07635,50.00000,33.00000,6.926102e-09,0.91091,3
215.937,137.333,      0.25185,     90.07635,50.00000,33.00000,6.931473e-09,0.91076,3
216.954,138.333,      0.24887,     90.07876,50.00000,33.00000,6.920041e-09,0.91059,3
217.935,139.333,      0.24535,     90.05150,50.00000,33.00000,6.922289e-09,0.91042,3
218.943,140.333,      0.24129,     90.05150,50.00000,33.00000,6.920432e-09,0.91025,3
219.936,141.333,      0.23954,     90.04469,50.00000,33.00000,6.928574e-09,0.91011,3
220.94,142.333,      0.23672,     90.01743,50.00000,33.00000,6.909217e-09,0.90995,3
221.939,143.333,      0.23515,     90.03106,50.00000,33.00000,6.912045e-09,0.90978,3
222.949,144.333,      0.23036,     90.02645,50.00000,33.00000,6.925680e-09,0.90961,3
223.949,145.333,      0.22573,     90.05371,50.00000,33.00000,6.927771e-09,0.90944,3
224.951,146.333,      0.22020,     89.99259,50.00000,33.00000,6.938282e-09,0.90926,3
225.946,147.333,      0.21610,     90.02645,50.00000,33.00000,6.922164e-09,0.90909,3
226.94,148.333,      0.21450,     90.01303,50.00000,33.00000,6.920926e-09,0.90892,3
227.939,149.333,      0.21003,     89.97435,50.00000,33.00000,6.931233e-09,0.90874,3
228.921,150.333,      0.20572,     89.97675,50.00000,33.00000,6.910905e-09,0.90857,3
229.93,151.333,      0.20231,     89.94048,50.00000,33.00000,6.924890e-09,0.90839,3
230.935,152.333,      0.19998,     89.94729,50.00000,33.00000,6.931038e-09,0.90821,3
231.935,153.333,      0.19277,     89.94048,50.00000,33.00000,6.930458e-09,0.90807,3
232.924,154.333,      0.19097,     89.94048,50.00000,33.00000,6.921762e-09,0.90789,3
233.935,155.333,      0.18898,     89.94048,50.00000,33.00000,6.911146e-09,0.90771,3
234.926,156.333,      0.18192,     89.88597,50.00000,33.00000,6.920643e-09,0.90753,3
235.933,157.333,      0.17666,     89.85872,50.00000,33.00000,6.936502e-09,0.90735,3
236.919,158.333,      0.17339,     89.85651,50.00000,33.00000,6.920177e-09,0.90717,3
237.942,159.333,      0.17029,     89.85190,50.00000,33.00000,6.926035e-09,0.90699,3
238.922,160.333,      0.16573,     89.83166,50.00000,33.00000,6.927821e-09,0.90681,3
239.932,161.333,      0.16317,     89.80441,50.00000,33.00000,6.934250e-09,0.90662,3
240.925,162.333,      0.15714,     89.79760,50.00000,33.00000,6.933937e-09,0.90643,3
241.919,163.333,      0.15492,     89.78397,50.00000,33.00000,6.944663e-09,0.90625,3
242.927,164.333,      0.15106,     89.77034,50.00000,33.00000,6.916607e-09,0.90607,3
243.938,165.333,      0.14501,     89.74549,50.00000,33.00000,6.915890e-09,0.90588,3
244.927,166.333,      0.14040,     89.71824,50.00000,33.00000,6.929585e-09,0.90569,3
245.931,167.333,      0.13743,     89.69098,50.00000,33.00000,6.915155e-09,0.90550,3
246.931,168.333,      0.13134,     89.66373,50.00000,33.00000,6.920108e-09,0.90530,3
247.929,169.333,      0.12615,     89.67735,50.00000,33.00000,6.924431e-09,0.90515,3
248.945,170.333,      0.12133,     89.63888,50.00000,33.00000,6.925945e-09,0.90496,3
249.937,171.333,      0.11465,     89.61162,50.00000,33.00000,6.932122e-09,0.90477,3
250.937,172.333,      0.11256,     89.55731,50.00000,33.00000,6.922585e-09,0.90458,3
251.927,173.333,      0.11121,     89.52786,50.00000,33.00000,6.912336e-09,0.90438,3
252.924,174.333,      0.10432,     89.50741,50.00000,33.00000,6.932612e-09,0.90419,3
253.92,175.333,      0.10313,     89.50060,50.00000,33.00000,6.919558e-09,0.90399,3
254.926,176.333, 9.825487e-02,     89.44609,50.00000,33.00000,6.920360e-09,0.90379,3
255.925,177.333, 9.244116e-02,     89.44389,50.00000,33.00000,6.918830e-09,0.90360,3
256.921,178.333, 8.846599e-02,     89.38717,50.00000,33.00000,6.906288e-09,0.90344,3
257.926,179.333, 8.151919e-02,     89.39399,50.00000,33.00000,6.917787e-09,0.90324,3
258.929,180.333, 7.492865e-02,     89.37355,50.00000,33.00000,6.927032e-09,0.90304,3
259.927,181.333, 6.906661e-02,     89.29198,50.00000,33.00000,6.902203e-09,0.90284,3
260.93,182.333, 6.598056e-02,     89.29198,50.00000,33.00000,6.911601e-09,0.90264,3
261.923,183.333, 6.307347e-02,     89.29198,50.00000,33.00000,6.916381e-09,0.90245,3
262.934,184.333, 5.699511e-02,     89.22405,50.00000,33.00000,6.917870e-09,0.90225,3
263.926,185.333, 5.052978e-02,     89.19679,50.00000,33.00000,6.913668e-09,0.90204,3
264.937,186.333, 4.442499e-02,     89.16954,50.00000,33.00000,6.933027e-09,0.90183,3
265.93,187.333, 3.606392e-02,     89.15812,50.00000,33.00000,6.925221e-09,0.90163,3
266.931,188.333, 3.086527e-02,     89.12425,50.00000,33.00000,6.924302e-09,0.90146,3
267.924,189.333, 2.621696e-02,     89.09018,50.00000,33.00000,6.925321e-09,0.90125,3
268.928,190.333, 1.893436e-02,     89.06293,50.00000,33.00000,6.923378e-09,0.90105,3
269.929,191.333, 1.482625e-02,     89.03587,50.00000,33.00000,6.925651e-09,0.90084,3
270.939,192.333, 7.703155e-03,     89.00180,50.00000,33.00000,6.910397e-09,0.90064,3
271.92,193.333, 1.880845e-03,     88.98597,50.00000,33.00000,6.917313e-09,0.90043,3
272.916,194.333,-5.083859e-03,     88.94509,50.00000,33.00000,6.922158e-09,0.90022,3
273.929,195.333,-1.036761e-02,     88.92685,50.00000,33.00000,6.908888e-09,0.90002,3
274.918,196.333,-1.471929e-02,     88.88397,50.00000,33.00000,6.918798e-09,0.89980,3
275.919,197.333,-2.285920e-02,     88.84309,50.00000,33.00000,6.917205e-09,0.89962,3
276.932,198.333,-2.855902e-02,     88.78858,50.00000,33.00000,6.919746e-09,0.89942,3
277.917,199.333,-3.483874e-02,     88.76373,50.00000,33.00000,6.918070e-09,0.89921,3
278.912,200.333,-4.113287e-02,     88.75010,50.00000,33.00000,6.917218e-09,0.89899,3
279.925,201.333,-4.611373e-02,     88.69579,50.00000,33.00000,6.903377e-09,0.89878,3
280.934,202.333,-5.395559e-02,     88.66854,50.00000,33.00000,6.926913e-09,0.89856,3
281.927,203.333,-6.428690e-02,     88.62084,50.00000,33.00000,6.914883e-09,0.89835,3
282.927,204.333,-6.912018e-02,     88.62545,50.00000,33.00000,6.916960e-09,0.89812,3
283.924,205.333,-7.396431e-02,     88.56653,50.00000,33.00000,6.922364e-09,0.89792,3
284.924,206.333,-8.015577e-02,     88.51202,50.00000,33.00000,6.923994e-09,0.89769,3
285.926,207.333,-8.865451e-02,     88.46453,50.00000,33.00000,6.929648e-09,0.89747,3
286.914,208.333,-9.583237e-02,     88.44409,50.00000,33.00000,6.907399e-09,0.89726,3
287.928,209.333,     -0.10667,     88.38958,50.00000,33.00000,6.917436e-09,0.89704,3
288.921,210.333,     -0.10947,     88.34649,50.00000,33.00000,6.921834e-09,0.89685,3
289.926,211.333,     -0.11728,     88.31263,50.00000,33.00000,6.928475e-09,0.89663,3
290.926,212.333,     -0.12395,     88.29218,50.00000,33.00000,6.931320e-09,0.89641,3
291.929,213.333,     -0.13275,     88.23768,50.00000,33.00000,6.919623e-09,0.89618,3
292.912,214.333,     -0.14003,     88.18337,50.00000,33.00000,6.916684e-09,0.89596,3
293.919,215.333,     -0.14656,     88.15611,50.00000,33.00000,6.916042e-09,0.89574,3
294.914,216.333,     -0.15619,     88.10621,50.00000,33.00000,6.931195e-09,0.89551,3
295.924,217.333,     -0.16488,     88.07214,50.00000,33.00000,6.923075e-09,0.89529,3
296.901,218.333,     -0.17049,     87.98597,50.00000,33.00000,6.916494e-09,0.89507,3
297.91,219.333,     -0.17418,     87.97916,50.00000,33.00000,6.899162e-09,0.89484,3
298.924,220.333,     -0.18137,     87.97695,50.00000,34.00000,6.933059e-09,0.89461,3
299.914,221.333,     -0.19226,     87.89539,50.00000,34.00000,6.913283e-09,0.89443,3
300.922,222.333,     -0.19988,     87.84329,50.00000,34.00000,6.916689e-09,0.89420,3
301.913,223.333,     -0.20926,     87.77515,50.00000,33.00000,6.917623e-09,0.89397,3
302.911,224.333,     -0.21653,     87.71403,50.00000,33.00000,6.924453e-09,0.89375,3
303.917,225.333,     -0.22655,     87.67996,50.00000,33.00000,6.923370e-09,0.89351,3
304.92,226.333,     -0.23463,     87.63246,50.00000,34.00000,6.913610e-09,0.89329,3
305.913,227.333,     -0.24058,     87.54850,50.00000,34.00000,6.926734e-09,0.89305,3
306.916,228.333,     -0.24949,     87.49399,50.00000,34.00000,6.923830e-09,0.89282,3
307.918,229.333,     -0.25665,     87.43747,50.00000,34.00000,6.930831e-09,0.89263,3
308.927,230.333,     -0.26246,     87.41022,50.00000,34.00000,6.933675e-09,0.89239,3
309.928,231.333,     -0.27300,     87.35351,50.00000,34.00000,6.915176e-09,0.89216,3
310.92,232.333,     -0.28140,     87.27194,50.00000,34.00000,6.919969e-09,0.89193,3
311.951,233.333,     -0.28411,     87.21523,50.00000,34.00000,6.906270e-09,0.89170,3
312.937,234.333,     -0.29373,     87.15391,50.00000,34.00000,6.913191e-09,0.89146,3
313.925,235.333,     -0.30415,     87.10641,50.00000,34.00000,6.895878e-09,0.89122,3
314.923,236.333,     -0.31263,     87.04509,50.00000,34.00000,6.924845e-09,0.89097,3
315.922,237.333,     -0.32192,     86.97034,50.00000,34.00000,6.912484e-09,0.89078,3
316.915,238.333,     -0.32965,     86.90681,50.00000,34.00000,6.912659e-09,0.89054,3
317.918,239.333,     -0.33541,     86.85010,50.00000,34.00000,6.917880e-09,0.89030,3
318.922,240.333,     -0.34040,     86.74810,50.00000,34.00000,6.912082e-09,0.89006,3
319.936,241.333,     -0.35137,     86.69820,50.00000,34.00000,6.922327e-09,0.88983,3
320.933,242.333,     -0.36136,     86.61663,50.00000,34.00000,6.922908e-09,0.88959,3
321.928,243.333,     -0.36640,     86.52144,50.00000,34.00000,6.910266e-09,0.88934,3
322.924,244.333,     -0.37484,     86.48056,50.00000,34.00000,6.924975e-09,0.88910,3
323.934,245.333,     -0.38290,     86.38096,50.00000,34.00000,6.925798e-09,0.88886,3
324.927,246.333,     -0.39679,     86.29920,50.00000,34.00000,6.916122e-09,0.88861,3
325.929,247.333,     -0.40049,     86.21764,50.00000,34.00000,6.935365e-09,0.88837,3
326.937,248.333,     -0.40722,     86.12926,50.00000,34.00000,6.911818e-09,0.88812,3
327.932,249.333,     -0.41576,     86.01804,50.00000,34.00000,6.928615e-09,0.88792,3
328.93,250.333,     -0.42473,     85.93647,50.00000,34.00000,6.928122e-09,0.88768,3
329.925,251.333,     -0.43513,     85.82766,50.00000,34.00000,6.928305e-09,0.88742,3
330.939,252.333,     -0.44537,     85.76413,50.00000,34.00000,6.933850e-09,0.88718,3
331.923,253.333,     -0.45360,     85.62144,50.00000,34.00000,6.935776e-09,0.88693,3
332.931,254.333,     -0.46004,     85.49900,50.00000,34.00000,6.923659e-09,0.88667,3
333.923,255.333,     -0.46851,     85.39018,50.00000,34.00000,6.935323e-09,0.88643,3
334.931,256.333,     -0.47478,     85.24269,50.00000,34.00000,6.935560e-09,0.88618,3
335.937,257.333,     -0.48635,     85.08176,50.00000,34.00000,6.923925e-09,0.88592,3
336.927,258.333,     -0.49631,     84.97756,50.00000,34.00000,6.925784e-09,0.88566,3
337.928,259.333,     -0.50345,     84.80741,50.00000,34.00000,6.927053e-09,0.88541,3
338.931,260.333,     -0.51041,     84.63747,50.00000,34.00000,6.924624e-09,0.88521,3
339.917,261.333,     -0.51798,     84.44689,50.00000,34.00000,6.933631e-09,0.88496,3
340.922,262.333,     -0.52478,     84.27455,50.00000,34.00000,6.943189e-09,0.88470,3
341.914,263.333,     -0.53587,     84.08417,50.00000,34.00000,6.940430e-09,0.88445,3
342.922,264.333,     -0.54557,     83.89379,50.00000,34.00000,6.936335e-09,0.88419,3
343.921,265.333,     -0.55427,     83.64429,50.00000,34.00000,6.926699e-09,0.88394,3
344.931,266.333,     -0.56012,     83.39499,50.00000,34.00000,6.935372e-09,0.88368,3
345.931,267.333,     -0.56433,     83.12064,50.00000,34.00000,6.944756e-09,0.88343,3
346.927,268.333,     -0.57329,     82.86212,50.00000,34.00000,6.928712e-09,0.88316,3
347.916,269.333,     -0.58597,     82.53347,50.00000,34.00000,6.922567e-09,0.88290,3
348.923,270.333,     -0.59107,     82.23407,50.00000,34.00000,6.942970e-09,0.88269,3
349.915,271.333,     -0.59885,     81.83287,50.00000,34.00000,6.937401e-09,0.88243,3
350.923,272.333,     -0.60460,     81.49739,50.00000,34.00000,6.943493e-09,0.88217,3
351.93,273.333,     -0.61201,     81.03928,50.00000,34.00000,6.941315e-09,0.88191,3
352.924,274.333,     -0.61550,     80.63347,50.00000,34.00000,6.936618e-09,0.88165,3
353.925,275.333,     -0.62170,     80.19138,50.00000,34.00000,6.924793e-09,0.88138,3
354.921,276.333,     -0.63186,     79.63828,50.00000,34.00000,6.927358e-09,0.88113,3
355.919,277.333,     -0.63705,     79.03968,50.00000,34.00000,6.939879e-09,0.88087,3
356.905,278.333,     -0.64600,     78.45932,50.00000,34.00000,6.920031e-09,0.88059,3
357.931,279.333,     -0.64561,     77.75411,50.00000,34.00000,6.921149e-09,0.88034,3
358.911,280.333,     -0.65605,     77.02645,50.00000,34.00000,6.908948e-09,0.88007,3
359.917,281.333,     -0.65859,     76.22385,50.00000,34.00000,6.924406e-09,0.87980,3
360.912,282.333,     -0.66091,     75.35311,50.00000,34.00000,6.916589e-09,0.87953,3
361.926,283.333,     -0.67082,     74.44168,50.00000,34.00000,6.932408e-09,0.87931,3
362.907,284.333,     -0.67315,     73.41242,50.00000,34.00000,6.938456e-09,0.87904,3
363.911,285.333,     -0.67509,     72.33768,50.00000,34.00000,6.934454e-09,0.87878,3
364.92,286.333,     -0.67408,     71.16553,50.00000,34.00000,6.934374e-09,0.87850,3
365.929,287.333,     -0.67392,     69.82345,50.00000,34.00000,6.940244e-09,0.87824,3
366.922,288.333,     -0.67881,     68.44729,50.00000,34.00000,6.929003e-09,0.87797,3
367.934,289.333,     -0.67422,     66.98036,50.00000,34.00000,6.932190e-09,0.87770,3
368.924,290.333,     -0.67806,     65.47034,50.00000,34.00000,6.937857e-09,0.87742,3
369.925,291.333,     -0.68150,     63.83567,50.00000,34.00000,6.915277e-09,0.87715,3
370.917,292.333,     -0.67559,     62.03547,50.00000,34.00000,6.921861e-09,0.87689,3
371.922,293.333,     -0.67628,     60.09479,50.00000,34.00000,6.922344e-09,0.87661,3
372.912,294.333,     -0.67546,     58.04529,50.00000,34.00000,6.934374e-09,0.87638,3
373.913,295.333,     -0.67614,     55.89820,50.00000,34.00000,6.928713e-09,0.87610,3
374.917,296.333,     -0.67661,     53.61743,50.00000,34.00000,6.923038e-09,0.87583,3
375.908,297.333,     -0.67664,     51.23687,50.00000,34.00000,6.926769e-09,0.87556,3
376.916,298.333,     -0.67904,     48.72705,50.00000,34.00000,6.918472e-09,0.87528,3
377.918,299.333,     -0.68766,     46.11964,50.00000,34.00000,6.931616e-09,0.87501,3
378.923,300.333,     -0.69008,     43.41723,50.00000,34.00000,6.933896e-09,0.87473,3
379.925,301.333,     -0.70024,     40.65110,50.00000,34.00000,6.918972e-09,0.87445,3
380.926,302.333,     -0.71322,     37.80581,50.00000,34.00000,6.915250e-09,0.87417,3
381.926,303.333,     -0.72753,     34.94008,50.00000,34.00000,6.927334e-09,0.87389,3
382.924,304.333,     -0.74619,     32.06533,50.00000,34.00000,6.927666e-09,0.87361,3
383.911,305.333,     -0.77267,     29.19038,50.00000,34.00000,6.921746e-09,0.87338,3
384.923,306.333,     -0.80054,     26.34289,50.00000,34.00000,6.926699e-09,0.87310,3
385.923,307.333,     -0.83345,     23.61303,50.00000,34.00000,6.936241e-09,0.87283,3
386.917,308.333,     -0.87165,     20.96052,50.00000,34.00000,6.917357e-09,0.87254,3
387.926,309.333,     -0.91367,     18.42124,50.00000,34.00000,6.924716e-09,0.87225,3
388.915,310.333,     -0.96838,     16.03146,50.00000,34.00000,6.929297e-09,0.87197,3
389.928,311.333,     -0.99931,     13.81202,50.00000,34.00000,6.913002e-09,0.87169,3
390.939,312.333,     -1.04058,     11.73287,50.00000,34.00000,6.935422e-09,0.87142,3
391.934,313.333,     -1.08935,      9.81483,50.00000,34.00000,6.932200e-09,0.87112,3
392.923,314.333,     -1.13540,      8.04409,50.00000,34.00000,6.935513e-09,0.87089,3
393.934,315.333,     -1.18030,      6.52966,50.00000,34.00000,6.931265e-09,0.87059,3
394.936,316.333,     -1.22727,      5.13768,50.00000,34.00000,6.925056e-09,0.87031,3
395.932,317.333,     -1.27150,      3.87255,50.00000,34.00000,6.933913e-09,0.87003,3
396.938,318.333,     -1.31147,      2.82044,50.00000,34.00000,6.935439e-09,0.86973,3
397.916,319.333,     -1.35634,      1.85691,50.00000,34.00000,6.920481e-09,0.86945,3
398.916,320.333,     -1.39188,      0.95912,50.00000,34.00000,6.929265e-09,0.86917,3
399.614,321.025,     -1.41658,      0.49659,50.00000,34.00000,6.916352e-09,0.86897,4
399.698,321.1,     -1.42004,      0.41042,50.00000,34.00000,6.916352e-09,0.86897,4
399.832,321.175,     -1.39117,      0.38317,50.00000,34.00000,6.929503e-09,0.86892,4
400.049,321.25,     -1.30171,      0.35611,50.00000,34.00000,6.929503e-09,0.86892,4
400.367,321.325,     -1.12712,      0.34248,50.00000,34.00000,6.913396e-09,0.86887,4
400.828,321.4,     -0.85398,      0.38317,50.00000,34.00000,6.913396e-09,0.86887,4
401.437,321.475,     -0.48485,      0.42405,50.00000,34.00000,6.919092e-09,0.86883,4
402.191,321.55,-2.346987e-02,      0.48297,50.00000,34.00000,6.919092e-09,0.86883,4
403.106,321.625,      0.51808,      0.51703,50.00000,34.00000,6.919092e-09,0.86883,4
404.142,321.7,      1.12018,      0.55772,50.00000,34.00000,6.930274e-09,0.86878,4
405.333,321.775,      1.76190,      0.63487,50.00000,34.00000,6.930274e-09,0.86878,4
406.616,321.85,      2.42222,      0.70301,50.00000,34.00000,6.932221e-09,0.86873,4
408,321.925,      3.07853,      0.73006,50.00000,34.00000,6.932221e-09,0.86873,4
409.465,322,      3.71064,      0.75731,50.00000,34.00000,6.922796e-09,0.86867,4
410.951,322.075,      4.29449,      0.78677,50.00000,34.00000,6.922796e-09,0.86867,4
412.485,322.15,      4.82688,      0.78677,50.00000,34.00000,6.946971e-09,0.86863,4
414.033,322.225,      5.28416,      0.81403,50.00000,34.00000,6.946971e-09,0.86863,4
415.559,322.3,      5.66741,      0.78677,50.00000,34.00000,6.946971e-09,0.86863,4
417.067,322.375,      5.97030,      0.75050,50.00000,34.00000,6.916726e-09,0.86858,4
418.554,322.45,      6.19704,      0.70060,50.00000,34.00000,6.916726e-09,0.86858,4
420,322.525,      6.34902,      0.64168,50.00000,34.00000,6.911637e-09,0.86853,4
421.403,322.6,      6.43689,      0.55110,50.00000,34.00000,6.911637e-09,0.86853,4
422.772,322.675,      6.46400,      0.47174,50.00000,34.00000,6.931741e-09,0.86849,4
424.097,322.75,      6.44451,      0.36733,50.00000,34.00000,6.931741e-09,0.86849,4
425.395,322.825,      6.38747,      0.29038,50.00000,34.00000,6.918523e-09,0.86844,4
426.667,322.9,      6.31145,      0.20180,50.00000,34.00000,6.918523e-09,0.86844,4
427.908,322.975,      6.22183, 9.979960e-02,50.00000,34.00000,6.934699e-09,0.86839,4
429.149,323.05,      6.12821, 2.404810e-03,50.00000,34.00000,6.934699e-09,0.86839,4
430.375,323.125,      6.04104,     -0.13828,50.00000,34.00000,6.934699e-09,0.86839,4
431.618,323.2,      5.96821,     -0.20160,50.00000,34.00000,6.926693e-09,0.86834,4
432.843,323.275,      5.91367,     -0.29699,50.00000,34.00000,6.926693e-09,0.86834,4
434.117,323.35,      5.88474,     -0.35591,50.00000,34.00000,6.940968e-09,0.86829,4
435.398,323.425,      5.87773,     -0.49198,50.00000,34.00000,6.940968e-09,0.86829,4
436.706,323.5,      5.89664,     -0.56212,50.00000,34.00000,6.932565e-09,0.86825,4
438.031,323.575,      5.94152,     -0.67776,50.00000,34.00000,6.932565e-09,0.86825,4
439.41,323.65,      6.00582,     -0.76633,50.00000,34.00000,6.927351e-09,0.86819,4
440.8,323.725,      6.09328,     -0.85230,50.00000,34.00000,6.927351e-09,0.86819,4
442.224,323.8,      6.19674,     -0.94088,50.00000,34.00000,6.927351e-09,0.86819,4
443.678,323.875,      6.31065,     -1.00661,50.00000,34.00000,6.928849e-09,0.86815,4
445.158,323.95,      6.43458,     -1.12224,50.00000,34.00000,6.928849e-09,0.86815,4
446.658,324.025,      6.55727,     -1.21523,50.00000,34.00000,6.932401e-09,0.86810,4
448.175,324.1,      6.68057,     -1.30802,50.00000,34.00000,6.932401e-09,0.86810,4
449.695,324.175,      6.80105,     -1.39659,50.00000,34.00000,6.923643e-09,0.86805,4
451.251,324.25,      6.91239,     -1.52806,50.00000,34.00000,6.923643e-09,0.86805,4
452.792,324.325,      7.01122,     -1.60962,50.00000,34.00000,6.925707e-09,0.86801,4
454.352,324.4,      7.10157,     -1.68898,50.00000,34.00000,6.925707e-09,0.86801,4
455.921,324.475,      7.17520,     -1.83627,50.00000,34.00000,6.925707e-09,0.86801,4
457.483,324.55,      7.23592,     -1.92926,50.00000,34.00000,6.923339e-09,0.86796,4
459.045,324.625,      7.28347,     -2.00421,50.00000,34.00000,6.923339e-09,0.86796,4
460.611,324.7,      7.31612,     -2.12886,50.00000,34.00000,6.926393e-09,0.86791,4
462.17,324.775,      7.33727,     -2.18317,50.00000,34.00000,6.926393e-09,0.86791,4
463.739,324.85,      7.34775,     -2.33747,50.00000,34.00000,6.931828e-09,0.86786,4
465.292,324.925,      7.34722,     -2.43046,50.00000,34.00000,6.931828e-09,0.86786,4
466.836,325,      7.34101,     -2.46673,50.00000,34.00000,6.927811e-09,0.86781,4
468.393,325.075,      7.32952,     -2.56633,50.00000,34.00000,6.927811e-09,0.86781,4
469.937,325.15,      7.31248,     -2.59820,50.00000,34.00000,6.927811e-09,0.86781,4
471.491,325.225,      7.29202,     -2.68437,50.00000,34.00000,6.915109e-09,0.86776,4
473.041,325.3,      7.27626,     -2.75230,50.00000,34.00000,6.915109e-09,0.86776,4
474.59,325.375,      7.25111,     -2.80000,50.00000,34.00000,6.936192e-09,0.86771,4
476.146,325.45,      7.23565,     -2.83387,50.00000,34.00000,6.936192e-09,0.86771,4
477.702,325.525,      7.21640,     -2.89058,50.00000,34.00000,6.923399e-09,0.86767,4
479.264,325.6,      7.19905,     -2.92004,50.00000,34.00000,6.923399e-09,0.86767,4
480.815,325.675,      7.18319,     -2.94729,50.00000,34.00000,6.920710e-09,0.86762,4
482.387,325.75,      7.16963,     -2.97455,50.00000,34.00000,6.920710e-09,0.86762,4
483.952,325.825,      7.16010,     -2.97455,50.00000,34.00000,6.920710e-09,0.86762,4
485.53,325.9,      7.14788,     -2.99499,50.00000,34.00000,6.915699e-09,0.86757,4
487.088,325.975,      7.13785,     -2.99499,50.00000,34.00000,6.915699e-09,0.86757,4
488.676,326.05,      7.13123,     -2.99499,50.00000,34.00000,6.916904e-09,0.86751,4
490.25,326.125,      7.12341,     -2.99499,50.00000,34.00000,6.916904e-09,0.86751,4
491.836,326.2,      7.11711,     -2.99499,50.00000,34.00000,6.925875e-09,0.86747,4
493.42,326.275,      7.10847,     -2.99499,50.00000,34.00000,6.925875e-09,0.86747,4
495.004,326.35,      7.10199,     -2.96774,50.00000,34.00000,6.925875e-09,0.86747,4
496.592,326.425,      7.09170,     -2.96774,50.00000,34.00000,6.917512e-09,0.86742,4
498.174,326.5,      7.07950,     -2.96774,50.00000,34.00000,6.917512e-09,0.86742,4
499.752,326.575,      7.06842,     -2.92004,50.00000,34.00000,6.923668e-09,0.86738,4
501.338,326.65,      7.05377,     -2.91323,50.00000,34.00000,6.923668e-09,0.86738,4
502.918,326.725,      7.03947,     -2.91323,50.00000,34.00000,6.917112e-09,0.86733,4
504.496,326.8,      7.02174,     -2.88617,50.00000,34.00000,6.917112e-09,0.86733,4
506.08,326.875,      7.00241,     -2.88617,50.00000,34.00000,6.921833e-09,0.86728,4
507.666,326.95,      6.98092,     -2.88617,50.00000,34.00000,6.921833e-09,0.86728,4
509.242,327.025,      6.96202,     -2.88617,50.00000,34.00000,6.921833e-09,0.86728,4
510.825,327.1,      6.93818,     -2.85892,50.00000,34.00000,6.921767e-09,0.86723,4
512.399,327.175,      6.91463,     -2.85892,50.00000,34.00000,6.921767e-09,0.86723,4
513.97,327.25,      6.88988,     -2.83166,50.00000,34.00000,6.925046e-09,0.86718,4
515.541,327.325,      6.86472,     -2.83166,50.00000,34.00000,6.925046e-09,0.86718,4
517.127,327.4,      6.84005,     -2.83166,50.00000,34.00000,6.932787e-09,0.86714,4
518.691,327.475,      6.81555,     -2.80441,50.00000,34.00000,6.932787e-09,0.86714,4
520.268,327.55,      6.78972,     -2.77735,50.00000,34.00000,6.930528e-09,0.86707,4
521.83,327.625,      6.76335,     -2.75010,50.00000,34.00000,6.930528e-09,0.86707,4
523.408,327.7,      6.73799,     -2.75010,50.00000,34.00000,6.930528e-09,0.86707,4
524.975,327.775,      6.71473,     -2.75010,50.00000,34.00000,6.917007e-09,0.86704,4
526.552,327.85,      6.68853,     -2.75010,50.00000,34.00000,6.917007e-09,0.86704,4
528.122,327.925,      6.66500,     -2.72285,50.00000,34.00000,6.930804e-09,0.86698,4
529.685,328,      6.63760,     -2.71603,50.00000,34.00000,6.930804e-09,0.86698,4
531.25,328.075,      6.61346,     -2.69559,50.00000,34.00000,6.927385e-09,0.86694,4
532.819,328.15,      6.58974,     -2.66834,50.00000,34.00000,6.927385e-09,0.86694,4
534.39,328.225,      6.56378,     -2.66834,50.00000,34.00000,6.921233e-09,0.86688,4
535.959,328.3,      6.53791,     -2.64128,50.00000,34.00000,6.921233e-09,0.86688,4
537.526,328.375,      6.51319,     -2.64128,50.00000,34.00000,6.921233e-09,0.86688,4
539.096,328.45,      6.48835,     -2.62084,50.00000,34.00000,6.921011e-09,0.86683,4
540.658,328.525,      6.46304,     -2.58677,50.00000,34.00000,6.921011e-09,0.86683,4
542.225,328.6,      6.43655,     -2.61403,50.00000,34.00000,6.921069e-09,0.86679,4
543.78,328.675,      6.40981,     -2.58677,50.00000,34.00000,6.921069e-09,0.86679,4
545.355,328.75,      6.38548,     -2.56633,50.00000,34.00000,6.915761e-09,0.86674,4
546.916,328.825,      6.35608,     -2.56633,50.00000,34.00000,6.915761e-09,0.86674,4
548.479,328.9,      6.32707,     -2.53246,50.00000,34.00000,6.915761e-09,0.86674,4
550.043,328.975,      6.29978,     -2.53246,50.00000,34.00000,6.924600e-09,0.86669,4
551.601,329.05,      6.27256,     -2.53246,50.00000,34.00000,6.924600e-09,0.86669,4
553.156,329.125,      6.24221,     -2.50521,50.00000,34.00000,6.925554e-09,0.86664,4
554.717,329.2,      6.21362,     -2.47796,50.00000,34.00000,6.925554e-09,0.86664,4
556.273,329.275,      6.18160,     -2.47796,50.00000,34.00000,6.926433e-09,0.86660,4
557.835,329.35,      6.15378,     -2.47796,50.00000,34.00000,6.926433e-09,0.86660,4
559.394,329.425,      6.12524,     -2.45070,50.00000,34.00000,6.917356e-09,0.86655,4
560.944,329.5,      6.09241,     -2.45070,50.00000,34.00000,6.917356e-09,0.86655,4
562.497,329.575,      6.06406,     -2.42365,50.00000,34.00000,6.917356e-09,0.86655,4
564.055,329.65,      6.03505,     -2.42365,50.00000,34.00000,6.921395e-09,0.86650,4
565.606,329.725,      6.00692,     -2.41683,50.00000,34.00000,6.921395e-09,0.86650,4
567.156,329.8,      5.97453,     -2.39639,50.00000,34.00000,6.915363e-09,0.86645,4
568.7,329.875,      5.94495,     -2.39639,50.00000,34.00000,6.915363e-09,0.86645,4
570.243,329.95,      5.91548,     -2.36914,50.00000,34.00000,6.924679e-09,0.86640,4
571.798,330.025,      5.88512,     -2.34188,50.00000,34.00000,6.924679e-09,0.86640,4
573.357,330.1,      5.85407,     -2.34188,50.00000,34.00000,6.924679e-09,0.86640,4
574.896,330.175,      5.82577,     -2.32164,50.00000,34.00000,6.916851e-09,0.86636,4
576.451,330.25,      5.79577,     -2.31483,50.00000,34.00000,6.916851e-09,0.86636,4
577.999,330.325,      5.76612,     -2.31483,50.00000,34.00000,6.925908e-09,0.86630,4
579.552,330.4,      5.73719,     -2.31483,50.00000,34.00000,6.925908e-09,0.86630,4
581.092,330.475,      5.71025,     -2.30120,50.00000,34.00000,6.925550e-09,0.86625,4
582.639,330.55,      5.67875,     -2.25812,50.00000,34.00000,6.925550e-09,0.86625,4
584.186,330.625,      5.64822,     -2.25812,50.00000,34.00000,6.921943e-09,0.86621,4
585.724,330.7,      5.61664,     -2.25812,50.00000,34.00000,6.921943e-09,0.86621,4
587.273,330.775,      5.58749,     -2.23086,50.00000,34.00000,6.921943e-09,0.86621,4
588.823,330.85,      5.55708,     -2.21042,50.00000,34.00000,6.922344e-09,0.86615,4
590.356,330.925,      5.52445,     -2.20361,50.00000,34.00000,6.922344e-09,0.86615,4
591.897,331,      5.49284,     -2.17635,50.00000,34.00000,6.931032e-09,0.86611,4
593.441,331.075,      5.46251,     -2.20361,50.00000,34.00000,6.931032e-09,0.86611,4
594.98,331.15,      5.42889,     -2.17635,50.00000,34.00000,6.927451e-09,0.86606,4
596.528,331.225,      5.40196,     -2.14930,50.00000,34.00000,6.927451e-09,0.86606,4
598.062,331.3,      5.36744,     -2.09038,50.00000,34.00000,6.923609e-09,0.86600,4
599.604,331.375,      5.33792,     -2.11743,50.00000,34.00000,6.923609e-09,0.86600,4
601.138,331.45,      5.30281,     -2.09038,50.00000,34.00000,6.923609e-09,0.86600,4
602.671,331.525,      5.27324,     -2.09038,50.00000,34.00000,6.919235e-09,0.86596,4
604.221,331.6,      5.24162,     -2.06072,50.00000,34.00000,6.919235e-09,0.86596,4
605.746,331.675,      5.20943,     -2.06072,50.00000,34.00000,6.941112e-09,0.86592,4
607.277,331.75,      5.17999,     -2.06072,50.00000,34.00000,6.941112e-09,0.86592,4
608.823,331.825,      5.14562,     -2.06072,50.00000,34.00000,6.932515e-09,0.86587,4
610.35,331.9,      5.11559,     -2.03367,50.00000,34.00000,6.932515e-09,0.86587,4
611.894,331.975,      5.08580,     -2.03367,50.00000,34.00000,6.918308e-09,0.86581,4
613.431,332.05,      5.05584,     -2.00641,50.00000,34.00000,6.918308e-09,0.86581,4
614.971,332.125,      5.02258,     -1.97916,50.00000,34.00000,6.918308e-09,0.86581,4
616.501,332.2,      4.99143,     -1.97916,50.00000,34.00000,6.937262e-09,0.86577,4
618.036,332.275,      4.95786,     -1.97916,50.00000,34.00000,6.937262e-09,0.86577,4
619.559,332.35,      4.92872,     -1.95190,50.00000,34.00000,6.944714e-09,0.86572,4
621.091,332.425,      4.89194,     -1.95190,50.00000,34.00000,6.944714e-09,0.86572,4
622.624,332.5,      4.86258,     -1.95190,50.00000,34.00000,6.905994e-09,0.86567,4
624.166,332.575,      4.82672,     -1.92024,50.00000,34.00000,6.905994e-09,0.86567,4
625.698,332.65,      4.79387,     -1.89299,50.00000,34.00000,6.921101e-09,0.86562,4
627.227,332.725,      4.76262,     -1.89299,50.00000,34.00000,6.921101e-09,0.86562,4
628.759,332.8,      4.72745,     -1.89299,50.00000,34.00000,6.921101e-09,0.86562,4
630.286,332.875,      4.69415,     -1.89299,50.00000,34.00000,6.933299e-09,0.86557,4
631.815,332.95,      4.65809,     -1.86593,50.00000,34.00000,6.933299e-09,0.86557,4
633.347,333.025,      4.62542,     -1.83868,50.00000,34.00000,6.935702e-09,0.86553,4
634.871,333.1,      4.59199,     -1.83868,50.00000,34.00000,6.935702e-09,0.86553,4
636.392,333.175,      4.55487,     -1.83868,50.00000,34.00000,6.916523e-09,0.86547,4
637.925,333.25,      4.51943,     -1.83868,50.00000,34.00000,6.916523e-09,0.86547,4
639.444,333.325,      4.48379,     -1.81142,50.00000,34.00000,6.916523e-09,0.86547,4
640.974,333.4,      4.44746,     -1.79098,50.00000,34.00000,6.918727e-09,0.86543,4
642.499,333.475,      4.41037,     -1.78417,50.00000,34.00000,6.918727e-09,0.86543,4
644.021,333.55,      4.37253,     -1.78417,50.00000,34.00000,6.913141e-09,0.86538,4
645.547,333.625,      4.33694,     -1.75691,50.00000,34.00000,6.913141e-09,0.86538,4
647.076,333.7,      4.30063,     -1.75691,50.00000,34.00000,6.916156e-09,0.86533,4
648.595,333.775,      4.26324,     -1.72986,50.00000,34.00000,6.916156e-09,0.86533,4
650.117,333.85,      4.22663,     -1.71623,50.00000,34.00000,6.927466e-09,0.86529,4
651.648,333.925,      4.18751,     -1.67535,50.00000,34.00000,6.927466e-09,0.86529,4
653.162,334,      4.14938,     -1.67535,50.00000,34.00000,6.927466e-09,0.86529,4
654.69,334.075,      4.11477,     -1.67535,50.00000,34.00000,6.921523e-09,0.86523,4
656.208,334.15,      4.07577,     -1.70261,50.00000,34.00000,6.921523e-09,0.86523,4
657.73,334.225,      4.03876,     -1.67535,50.00000,34.00000,6.931125e-09,0.86518,4
659.258,334.3,      3.99952,     -1.64810,50.00000,34.00000,6.931125e-09,0.86518,4
660.771,334.375,      3.95887,     -1.62104,50.00000,34.00000,6.931169e-09,0.86512,4
662.289,334.45,      3.92143,     -1.62104,50.00000,34.00000,6.931169e-09,0.86512,4
663.813,334.525,      3.88205,     -1.62104,50.00000,34.00000,6.931669e-09,0.86508,4
665.335,334.6,      3.84435,     -1.62104,50.00000,34.00000,6.931669e-09,0.86508,4
666.858,334.675,      3.80621,     -1.61423,50.00000,34.00000,6.931669e-09,0.86508,4
668.384,334.75,      3.76887,     -1.59379,50.00000,34.00000,6.929592e-09,0.86503,4
669.907,334.825,      3.72955,     -1.56653,50.00000,34.00000,6.929592e-09,0.86503,4
671.435,334.9,      3.69041,     -1.53928,50.00000,34.00000,6.937183e-09,0.86498,4
672.959,334.975,      3.65358,     -1.53928,50.00000,34.00000,6.937183e-09,0.86498,4
674.483,335.05,      3.61201,     -1.51222,50.00000,34.00000,6.926963e-09,0.86494,4
676.004,335.125,      3.57060,     -1.51222,50.00000,34.00000,6.926963e-09,0.86494,4
677.514,335.2,      3.52563,     -1.51222,50.00000,34.00000,6.922664e-09,0.86488,4
679.033,335.275,      3.48301,     -1.51222,50.00000,34.00000,6.922664e-09,0.86488,4
680.561,335.35,      3.43842,     -1.48497,50.00000,34.00000,6.922664e-09,0.86488,4
682.081,335.425,      3.39550,     -1.48497,50.00000,34.00000,6.920418e-09,0.86483,4
683.614,335.5,      3.34631,     -1.45772,50.00000,34.00000,6.920418e-09,0.86483,4
685.1,335.575,      3.20479,     -1.45772,50.00000,34.00000,6.930653e-09,0.86478,4
686.63,335.65,      3.17002,     -1.45772,50.00000,34.00000,6.930653e-09,0.86478,4
688.142,335.725,      3.13011,     -1.45772,50.00000,34.00000,6.926572e-09,0.86472,4
689.664,335.8,      3.08482,     -1.43046,50.00000,34.00000,6.926572e-09,0.86472,4
691.184,335.875,      3.03905,     -1.43046,50.00000,34.00000,6.928270e-09,0.86468,4
692.708,335.95,      2.99285,     -1.40341,50.00000,34.00000,6.928270e-09,0.86468,4
694.218,336.025,      2.94458,     -1.37615,50.00000,34.00000,6.928270e-09,0.86468,4
695.742,336.1,      2.89432,     -1.37615,50.00000,34.00000,6.919968e-09,0.86464,4
697.268,336.175,      2.84360,     -1.37615,50.00000,34.00000,6.919968e-09,0.86464,4
698.785,336.25,      2.79615,     -1.34669,50.00000,34.00000,6.934054e-09,0.86459,4
700.296,336.325,      2.74382,     -1.33307,50.00000,34.00000,6.934054e-09,0.86459,4
701.818,336.4,      2.69167,     -1.31944,50.00000,34.00000,6.925164e-09,0.86454,4
703.343,336.475,      2.64127,     -1.33988,50.00000,34.00000,6.925164e-09,0.86454,4
704.861,336.55,      2.58691,     -1.31263,50.00000,34.00000,6.928397e-09,0.86449,4
706.38,336.625,      2.53523,     -1.28537,50.00000,34.00000,6.928397e-09,0.86449,4
707.896,336.7,      2.48338,     -1.28537,50.00000,34.00000,6.928397e-09,0.86449,4
709.417,336.775,      2.42760,     -1.28537,50.00000,34.00000,6.919179e-09,0.86444,4
710.935,336.85,      2.37195,     -1.25832,50.00000,34.00000,6.919179e-09,0.86444,4
712.456,336.925,      2.31456,     -1.25832,50.00000,34.00000,6.936535e-09,0.86439,4
713.962,337,      2.25760,     -1.23106,50.00000,34.00000,6.936535e-09,0.86439,4
715.488,337.075,      2.19734,     -1.23106,50.00000,34.00000,6.921780e-09,0.86434,4
717.005,337.15,      2.13911,     -1.23106,50.00000,34.00000,6.921780e-09,0.86434,4
718.523,337.225,      2.07880,     -1.20381,50.00000,34.00000,6.940237e-09,0.86429,4
720.041,337.3,      2.01895,     -1.17655,50.00000,34.00000,6.940237e-09,0.86429,4
721.56,337.375,      1.96086,     -1.17655,50.00000,34.00000,6.940237e-09,0.86429,4
723.082,337.45,      1.89618,     -1.17655,50.00000,34.00000,6.916557e-09,0.86424,4
724.591,337.525,      1.83484,     -1.17655,50.00000,34.00000,6.916557e-09,0.86424,4
726.118,337.6,      1.77817,     -1.14930,50.00000,34.00000,6.901315e-09,0.86418,4
727.623,337.675,      1.70778,     -1.14930,50.00000,34.00000,6.901315e-09,0.86418,4
729.137,337.75,      1.64398,     -1.12224,50.00000,34.00000,6.913638e-09,0.86414,4
730.648,337.825,      1.57708,     -1.12224,50.00000,34.00000,6.913638e-09,0.86414,4
732.177,337.9,      1.51229,     -1.12224,50.00000,34.00000,6.915796e-09,0.86409,4
733.702,337.975,      1.44375,     -1.09499,50.00000,34.00000,6.915796e-09,0.86409,4
735.212,338.05,      1.37596,     -1.09499,50.00000,34.00000,6.915796e-09,0.86409,4
736.731,338.125,      1.30476,     -1.06774,50.00000,34.00000,6.923001e-09,0.86404,4
738.25,338.2,      1.23205,     -1.04048,50.00000,34.00000,6.923001e-09,0.86404,4
739.766,338.275,      1.16337,     -1.04048,50.00000,34.00000,6.928315e-09,0.86400,4
741.278,338.35,      1.08700,     -1.04048,50.00000,34.00000,6.928315e-09,0.86400,4
742.806,338.425,      1.01370,     -1.04048,50.00000,34.00000,6.913925e-09,0.86395,4
744.308,338.5,      0.93985,     -1.01343,50.00000,34.00000,6.913925e-09,0.86395,4
745.822,338.575,      0.86056,     -1.01343,50.00000,34.00000,6.934711e-09,0.86389,4
747.347,338.65,      0.78402,     -1.01343,50.00000,34.00000,6.934711e-09,0.86389,4
748.856,338.725,      0.70397,     -0.98617,50.00000,34.00000,6.934711e-09,0.86389,4
750.367,338.8,      0.62338,     -0.98617,50.00000,34.00000,6.934234e-09,0.86384,4
751.89,338.875,      0.53830,     -0.98617,50.00000,34.00000,6.934234e-09,0.86384,4
753.396,338.95,      0.45660,     -0.95892,50.00000,34.00000,6.928056e-09,0.86380,4
754.913,339.025,      0.37139,     -0.93166,50.00000,34.00000,6.928056e-09,0.86380,4
756.417,339.1,      0.28792,     -0.93166,50.00000,34.00000,6.925942e-09,0.86376,4
757.929,339.175,      0.20125,     -0.90461,50.00000,34.00000,6.925942e-09,0.86376,4
759.441,339.25,      0.11700,     -0.90461,50.00000,34.00000,6.925942e-09,0.86376,4
760.966,339.325, 3.053500e-02,     -0.87735,50.00000,34.00000,6.923753e-09,0.86371,4
762.479,339.4,-5.716400e-02,     -0.87735,50.00000,34.00000,6.923753e-09,0.86371,4
763.976,339.475,     -0.14476,     -0.87735,50.00000,34.00000,6.922950e-09,0.86365,4
765.489,339.55,     -0.23327,     -0.87735,50.00000,34.00000,6.922950e-09,0.86365,4
767.002,339.625,     -0.32234,     -0.87735,50.00000,34.00000,6.930863e-09,0.86360,4
768.513,339.7,     -0.40865,     -0.85010,50.00000,34.00000,6.930863e-09,0.86360,4
770.037,339.775,     -0.50121,     -0.85010,50.00000,34.00000,6.932237e-09,0.86355,4
771.553,339.85,     -0.59135,     -0.82966,50.00000,34.00000,6.932237e-09,0.86355,4
773.059,339.925,     -0.68708,     -0.82285,50.00000,34.00000,6.932237e-09,0.86355,4
774.572,340,     -0.77703,     -0.80261,50.00000,34.00000,6.937406e-09,0.86350,4
776.089,340.075,     -0.87261,     -0.79579,50.00000,34.00000,6.937406e-09,0.86350,4
777.595,340.15,     -0.96911,     -0.79579,50.00000,34.00000,6.922851e-09,0.86345,4
779.099,340.225,     -1.06384,     -0.79579,50.00000,34.00000,6.922851e-09,0.86345,4
780.61,340.3,     -1.15545,     -0.76854,50.00000,34.00000,6.926522e-09,0.86341,4
782.125,340.375,     -1.24630,     -0.76854,50.00000,34.00000,6.926522e-09,0.86341,4
783.644,340.45,     -1.35162,     -0.74128,50.00000,34.00000,6.932021e-09,0.86335,4
785.156,340.525,     -1.44298,     -0.74128,50.00000,34.00000,6.932021e-09,0.86335,4
786.675,340.6,     -1.54070,     -0.71403,50.00000,34.00000,6.912776e-09,0.86330,4
788.186,340.675,     -1.63256,     -0.71403,50.00000,34.00000,6.912776e-09,0.86330,4
789.704,340.75,     -1.73216,     -0.71403,50.00000,34.00000,            ,0.44902,4
791.216,340.825,     -1.82964,     -0.71403,50.00000,34.00000,            ,0.44841,4
792.733,340.9,     -1.92466,     -0.68457,50.00000,34.00000,            ,0.44780,4
794.241,340.975,     -2.02026,     -0.66413,50.00000,34.00000,            ,0.44720,4
794.746,341,     -2.05230,     -0.66413,50.00000,34.00000,            ,0.44699,4