File: data/TGA/commercial_samples/ExpDat_2025_08_14_SL_PS_Blue_Cup_Dynamic.csv
#EXPORTTYPE:                 ,DATA ALL
#FILE:                       ,2025_08_14_SL_PS_Blue_Cup_Dynamic.ngb-ss5
#FORMAT:                     ,NETZSCH5
#FTYPE:                      ,ASCII
#IDENTITY:                   ,PS-Blue-Cup
#DECIMAL:                    ,POINT
#SEPARATOR:                  ,COMMA
#MTYPE:                      ,TG
#INSTRUMENT:                 ,NETZSCH STA 449F5
#PROJECT:                    ,
#DATE/TIME:                  ,8/14/2025 8:52:56 AM (UTC-4)
#CORR. FILE:                 ,
#TEMPCAL:                    ,05-05-2025 14:38
#SENSITIVITY:                ,28-06-2023 13:53
#LABORATORY:                 ,Tran/AAG
#OPERATOR:                   ,Stanley
#REMARK:                     ,2025_03_20_Styrofoam_dynamic
#SAMPLE:                     ,PS-Blue-Cup
#SAMPLE MASS /mg:            ,4.75
#MATERIAL:                   ,Polystyrene
#REFERENCE:                  ,
#REFERENCE MASS /mg:         ,0
#TYPE OF CRUCIBLE:           ,Al2O3 85 ‘l, open
#SAMPLE CRUCIBLE MASS /mg:   ,0
#REFERENCE CRUCIBLE MASS /mg:,0
#DSC RANGE /‘V:              ,5000
#TG RANGE /mg:               ,35000
#TAU-R:                      ,---
#CORR. CODE:                 ,000
#EXO:                        ,-1
#RANGE:                      ,20›C....800›C/0.0....20.0K/min
#SEGMENT:                    ,S1-4/4
#SEG. 1:                     ,20›C/5.0(K/min)/100›C
#SEG. 2:                     ,100›C/00:05/100›C
#SEG. 3:                     ,100›C/1.0(K/min)/400›C
#SEG. 4:                     ,400›C/20.0(K/min)/800›C

##Temp./›C,Time/min,Mass/%,Sensit./(uV/mW),Segment
 28.87700,  0.00000,    100,0.92334,1
 30.17500,  0.53333,     99.64505,0.92359,1
 31.28000,  1.06667,     99.44253,0.92379,1
 32.18000,  1.60000,     90.41326,0.92394,1
 32.87900,  2.13333,     90.70632,0.92406,1
 33.49400,  2.66667,     91.00400,0.92416,1
 34.12300,  3.20000,     91.00400,0.92426,1
 34.86800,  3.73333,     90.97537,0.92438,1
 35.80900,  4.26667,     90.97537,0.92452,1
 37.00700,  4.80000,     91.10400,0.92469,1
 38.47700,  5.33333,     91.28989,0.92489,1
 40.19000,  5.86667,     91.47789,0.92510,1
 42.13700,  6.40000,     91.70905,0.92532,1
 44.33600,  6.93333,     91.90905,0.92554,1
 46.73400,  7.46667,     92.19958,0.92574,1
 49.35000,  8.00000,     92.43537,0.92592,1
 52.14400,  8.53333,     92.66421,0.92606,1
 55.07700,  9.06667,     92.87137,0.92616,1
 58.14000,  9.60000,     93.04526,0.92620,1
 61.28000, 10.13333,     93.22379,0.92618,1
 64.50600, 10.66667,     93.36905,0.92610,1
 67.75100, 11.20000,     93.51200,0.92595,1
 71.03400, 11.73333,     93.60021,0.92573,1
 74.30600, 12.26667,     93.71453,0.92545,1
 77.60900, 12.80000,     93.77158,0.92510,1
 80.87500, 13.33333,     93.81453,0.92469,1
 84.11800, 13.86667,     93.88589,0.92422,1
 87.35300, 14.40000,     93.91453,0.92369,1
 90.55800, 14.93333,     93.94316,0.92310,1
 93.74300, 15.46667,     93.97179,0.92246,1
 96.75500, 15.98417,     94.02884,0.92180,2
 98.99400, 16.38417,     93.93600,0.92127,2
100.932, 16.78417,     93.65495,0.92080,2
102.466, 17.18417,     93.33347,0.92040,2
103.7, 17.58417,     93.02147,0.92008,2
104.702, 17.98417,     92.73326,0.91981,2
105.569, 18.38417,     92.52126,0.91957,2
106.287, 18.78417,     92.31874,0.91936,2
106.891, 19.18417,     92.11389,0.91919,2
107.346, 19.58417,     91.98779,0.91906,2
107.674, 19.98417,     91.71621,0.91897,2
107.846, 20.38417,     91.52568,0.91892,2
107.91, 20.78417,     91.31137,0.91890,2
107.869, 21.26750,     91.05642,0.91891,3
107.769, 21.80083,     90.85642,0.91894,3
107.665, 22.33417,     90.74211,0.91897,3
107.562, 22.86750,     90.65389,0.91900,3
107.46, 23.40083,     90.51095,0.91903,3
107.336, 23.93417,     90.39432,0.91907,3
107.233, 24.46750,     90.33474,0.91910,3
107.154, 25.00083,     90.27768,0.91912,3
107.147, 25.53417,     90.24905,0.91912,3
107.14, 26.06750,     90.19179,0.91912,3
107.22, 26.60083,     90.16316,0.91910,3
107.328, 27.13417,     90.13474,0.91907,3
107.484, 27.66750,     90.11326,0.91902,3
107.681, 28.20083,     90.08463,0.91897,3
107.945, 28.73417,     90.09895,0.91889,3
108.226, 29.26750,     90.09895,0.91881,3
108.562, 29.80083,     90.09895,0.91871,3
108.932, 30.33417,     90.08463,0.91860,3
109.328, 30.86750,     90.05600,0.91848,3
109.756, 31.40083,     90.05600,0.91835,3
110.205, 31.93417,     90.03474,0.91822,3
110.69, 32.46750,     90.03474,0.91807,3
111.163, 33.00083,     90.04884,0.91792,3
111.685, 33.53417,     90.05600,0.91776,3
112.223, 34.06750,     90.02758,0.91759,3
112.75, 34.60083,     90.00611,0.91743,3
113.318, 35.13417,     90.01326,0.91725,3
113.855, 35.66750,     89.99895,0.91707,3
114.415, 36.20083,     89.98463,0.91689,3
114.985, 36.73417,     89.98463,0.91670,3
115.552, 37.26750,     89.95600,0.91652,3
116.108, 37.80083,     89.95600,0.91633,3
116.681, 38.33417,     89.95600,0.91614,3
117.233, 38.86750,     89.92737,0.91595,3
117.804, 39.40083,     89.92737,0.91575,3
118.38, 39.93417,     89.86800,0.91555,3
118.944, 40.46750,     89.90611,0.91536,3
119.493, 41.00083,     89.88463,0.91516,3
120.058, 41.53417,     89.85600,0.91496,3
120.605, 42.06750,     89.89179,0.91477,3
121.157, 42.60083,     89.86316,0.91457,3
121.719, 43.13417,     89.85600,0.91436,3
122.274, 43.66750,     89.85600,0.91416,3
122.796, 44.20083,     89.82737,0.91397,3
123.359, 44.73417,     89.82737,0.91376,3
123.902, 45.26750,     89.82989,0.91355,3
124.442, 45.80083,     89.82989,0.91335,3
124.968, 46.33417,     89.82989,0.91315,3
125.522, 46.86750,     89.81558,0.91294,3
126.057, 47.40083,     89.84400,0.91273,3
126.604, 47.93417,     89.81558,0.91252,3
127.14, 48.46750,     89.85116,0.91231,3
127.667, 49.00083,     89.85116,0.91210,3
128.203, 49.53417,     89.84884,0.91188,3
128.741, 50.06750,     89.84884,0.91167,3
129.283, 50.60083,     89.82737,0.91145,3
129.819, 51.13417,     89.82737,0.91123,3
130.341, 51.66750,     89.82737,0.91102,3
130.867, 52.20083,     89.85832,0.91080,3
131.413, 52.73417,     89.85832,0.91058,3
131.952, 53.26750,     89.85832,0.91035,3
132.484, 53.80083,     89.85832,0.91013,3
132.991, 54.33417,     89.85600,0.90991,3
133.548, 54.86750,     89.86316,0.90968,3
134.082, 55.40083,     89.88463,0.90945,3
134.607, 55.93417,     89.89179,0.90922,3
135.131, 56.46750,     89.89411,0.90900,3
135.684, 57.00083,     89.92737,0.90876,3
136.195, 57.53417,     89.92042,0.90853,3
136.728, 58.06750,     89.91326,0.90830,3
137.284, 58.60083,     89.92042,0.90805,3
137.813, 59.13417,     89.94168,0.90781,3
138.354, 59.66750,     89.94884,0.90757,3
138.887, 60.20083,     89.97747,0.90733,3
139.423, 60.73417,     89.94884,0.90709,3
139.948, 61.26750,     89.96316,0.90685,3
140.496, 61.80083,     89.99179,0.90660,3
141.017, 62.33417,     90.01326,0.90636,3
141.547, 62.86750,     90.02042,0.90611,3
142.079, 63.40083,     90.04884,0.90586,3
142.602, 63.93417,     90.04884,0.90562,3
143.153, 64.46750,     90.04884,0.90536,3
143.695, 65.00083,     90.05600,0.90510,3
144.212, 65.53417,     90.07032,0.90485,3
144.76, 66.06750,     90.09895,0.90459,3
145.303, 66.60083,     90.11326,0.90433,3
145.826, 67.13417,     90.12758,0.90407,3
146.352, 67.66750,     90.12758,0.90382,3
146.895, 68.20083,     90.15621,0.90355,3
147.427, 68.73417,     90.13705,0.90329,3
147.947, 69.26750,     90.15137,0.90303,3
148.486, 69.80083,     90.18000,0.90276,3
149.027, 70.33417,     90.20611,0.90249,3
149.567, 70.86750,     90.20611,0.90222,3
150.079, 71.40083,     90.22042,0.90196,3
150.612, 71.93417,     90.23474,0.90169,3
151.151, 72.46750,     90.21326,0.90142,3
151.686, 73.00083,     90.23474,0.90114,3
152.216, 73.53417,     90.29663,0.90087,3
152.764, 74.06750,     90.26568,0.90059,3
153.29, 74.60083,     90.27284,0.90031,3
153.821, 75.13417,     90.29432,0.90004,3
154.361, 75.66750,     90.31579,0.89975,3
154.894, 76.20083,     90.31579,0.89947,3
155.428, 76.73417,     90.34421,0.89919,3
155.958, 77.26750,     90.34421,0.89891,3
156.497, 77.80083,     90.34421,0.89862,3
157.032, 78.33417,     90.37284,0.89833,3
157.559, 78.86750,     90.37768,0.89805,3
158.097, 79.40083,     90.39200,0.89776,3
158.637, 79.93417,     90.42042,0.89746,3
159.172, 80.46750,     90.42042,0.89717,3
159.703, 81.00083,     90.44189,0.89688,3
160.234, 81.53417,     90.44905,0.89659,3
160.756, 82.06750,     90.44905,0.89630,3
161.3, 82.60083,     90.48232,0.89600,3
161.829, 83.13417,     90.49663,0.89570,3
162.368, 83.66750,     90.51095,0.89540,3
162.898, 84.20083,     90.51811,0.89510,3
163.452, 84.73417,     90.54674,0.89479,3
163.972, 85.26750,     90.54189,0.89449,3
164.507, 85.80083,     90.55621,0.89419,3
165.046, 86.33417,     90.58484,0.89388,3
165.578, 86.86750,     90.60632,0.89357,3
166.105, 87.40083,     90.59200,0.89327,3
166.651, 87.93417,     90.59916,0.89295,3
167.187, 88.46750,     90.65621,0.89264,3
167.716, 89.00083,     90.63495,0.89233,3
168.243, 89.53417,     90.66337,0.89202,3
168.764, 90.06750,     90.67768,0.89172,3
169.32, 90.60083,     90.70632,0.89139,3
169.847, 91.13417,     90.69916,0.89108,3
170.376, 91.66750,     90.74211,0.89076,3
170.914, 92.20083,     90.71347,0.89044,3
171.433, 92.73417,     90.73495,0.89013,3
171.965, 93.26750,     90.73495,0.88981,3
172.505, 93.80083,     90.76337,0.88948,3
173.04, 94.33417,     90.76337,0.88916,3
173.567, 94.86750,     90.79200,0.88884,3
174.108, 95.40083,     90.79453,0.88851,3
174.638, 95.93417,     90.82295,0.88818,3
175.169, 96.46750,     90.80863,0.88786,3
175.708, 97.00083,     90.81579,0.88752,3
176.24, 97.53417,     90.84442,0.88720,3
176.762, 98.06750,     90.87305,0.88687,3
177.287, 98.60083,     90.84674,0.88654,3
177.823, 99.13417,     90.88968,0.88621,3
178.379, 99.66750,     90.89684,0.88586,3
178.891,100.201,     90.92547,0.88554,3
179.427,100.734,     90.95411,0.88520,3
179.981,101.267,     90.95411,0.88485,3
180.494,101.801,     90.95411,0.88452,3
181.031,102.334,     91.01600,0.88418,3
181.579,102.868,     91.01600,0.88383,3
182.102,103.401,     91.01600,0.88349,3
182.632,103.934,     90.98737,0.88315,3
183.176,104.468,     91.01600,0.88280,3
183.708,105.001,     91.03747,0.88245,3
184.239,105.534,     91.02316,0.88211,3
184.779,106.067,     91.04442,0.88175,3
185.311,106.601,     91.04442,0.88141,3
185.854,107.134,     91.04442,0.88105,3
186.409,107.668,     91.06126,0.88068,3
186.931,108.201,     91.06126,0.88034,3
187.444,108.734,     91.06126,0.88000,3
187.978,109.267,     91.03263,0.87964,3
188.515,109.801,     91.06126,0.87928,3
189.05,110.334,     91.07558,0.87893,3
189.576,110.868,     91.07558,0.87857,3
190.1,111.401,     91.10400,0.87822,3
190.628,111.934,     91.08253,0.87786,3
191.171,112.468,     90.99684,0.87750,3
191.693,113.001,     91.02547,0.87714,3
192.228,113.534,     91.08253,0.87678,3
192.769,114.067,     91.08253,0.87641,3
193.306,114.601,     91.08253,0.87604,3
193.843,115.134,     91.11116,0.87567,3
194.369,115.668,     91.13263,0.87531,3
194.914,116.201,     91.16358,0.87493,3
195.436,116.734,     91.16358,0.87457,3
195.969,117.267,     91.16358,0.87420,3
196.503,117.801,     91.19221,0.87383,3
197.038,118.334,     91.19221,0.87346,3
197.568,118.868,     91.19705,0.87309,3
198.117,119.401,     91.22800,0.87270,3
198.641,119.934,     91.21368,0.87233,3
199.173,120.468,     91.23516,0.87196,3
199.698,121.001,     91.24211,0.87158,3
200.219,121.534,     91.24211,0.87121,3
200.776,122.067,     91.25642,0.87082,3
201.308,122.601,     91.26358,0.87044,3
201.836,123.134,     91.29221,0.87006,3
202.382,123.668,     91.31368,0.86967,3
202.919,124.201,     91.31368,0.86928,3
203.456,124.734,     91.34232,0.86890,3
203.982,125.267,     91.31368,0.86852,3
204.516,125.801,     91.34232,0.86813,3
205.041,126.334,     91.34232,0.86775,3
205.585,126.868,     91.34232,0.86735,3
206.113,127.401,     91.34232,0.86697,3
206.638,127.934,     91.37074,0.86658,3
207.169,128.468,     91.37074,0.86619,3
207.703,129.001,     91.40421,0.86580,3
208.242,129.534,     91.43284,0.86540,3
208.776,130.067,     91.39937,0.86501,3
209.303,130.601,     91.39937,0.86462,3
209.832,131.134,     91.42084,0.86423,3
210.377,131.667,     91.42084,0.86382,3
210.924,132.201,     91.42800,0.86342,3
211.44,132.734,     91.45663,0.86303,3
211.978,133.268,     91.43516,0.86263,3
212.51,133.801,     91.46379,0.86223,3
213.051,134.334,     91.46379,0.86182,3
213.575,134.868,     91.46379,0.86143,3
214.104,135.401,     91.46379,0.86103,3
214.635,135.934,     91.48505,0.86062,3
215.175,136.468,     91.45663,0.86021,3
215.705,137.001,     91.45663,0.85981,3
216.241,137.534,     91.45663,0.85940,3
216.776,138.067,     91.48505,0.85900,3
217.303,138.601,     91.47095,0.85859,3
217.832,139.134,     91.49937,0.85819,3
218.366,139.667,     91.49937,0.85778,3
218.896,140.201,     91.49937,0.85737,3
219.43,140.734,     91.49937,0.85696,3
219.965,141.268,     91.52084,0.85654,3
220.495,141.801,     91.49474,0.85613,3
221.036,142.334,     91.49474,0.85571,3
221.564,142.868,     91.52316,0.85530,3
222.097,143.401,     91.50905,0.85488,3
222.627,143.934,     91.51600,0.85447,3
223.153,144.468,     91.52316,0.85406,3
223.696,145.001,     91.52316,0.85363,3
224.233,145.534,     91.55895,0.85321,3
224.759,146.067,     91.50905,0.85280,3
225.297,146.601,     91.55895,0.85237,3
225.83,147.134,     91.55895,0.85195,3
226.365,147.667,     91.55663,0.85153,3
226.892,148.201,     91.53516,0.85111,3
227.433,148.734,     91.54947,0.85068,3
227.964,149.268,     91.55663,0.85026,3
228.494,149.801,     91.55663,0.84983,3
229.029,150.334,     91.55663,0.84941,3
229.56,150.868,     91.56379,0.84898,3
230.092,151.401,     91.54947,0.84855,3
230.619,151.934,     91.54232,0.84813,3
231.152,152.468,     91.57095,0.84770,3
231.702,153.001,     91.54232,0.84726,3
232.238,153.534,     91.54232,0.84683,3
232.767,154.067,     91.54232,0.84640,3
233.301,154.601,     91.57095,0.84596,3
233.824,155.134,     91.54232,0.84554,3
234.358,155.667,     91.57095,0.84511,3
234.893,156.201,     91.54947,0.84467,3
235.43,156.734,     91.55663,0.84423,3
235.963,157.268,     91.52800,0.84379,3
236.483,157.801,     91.53284,0.84337,3
237.018,158.334,     91.54000,0.84293,3
237.565,158.868,     91.53284,0.84248,3
238.079,159.401,     91.54716,0.84206,3
238.632,159.934,     91.52568,0.84160,3
239.166,160.468,     91.55432,0.84116,3
239.68,161.001,     91.52568,0.84074,3
240.22,161.534,     91.52568,0.84029,3
240.758,162.067,     91.54000,0.83984,3
241.292,162.601,     91.56126,0.83940,3
241.826,163.134,     91.53284,0.83895,3
242.349,163.667,     91.54000,0.83852,3
242.882,164.201,     91.52568,0.83807,3
243.418,164.734,     91.54716,0.83762,3
243.961,165.268,     91.54947,0.83717,3
244.483,165.801,     91.52084,0.83673,3
245.038,166.334,     91.52084,0.83627,3
245.56,166.868,     91.52800,0.83583,3
246.093,167.401,     91.52084,0.83538,3
246.626,167.934,     91.51368,0.83493,3
247.156,168.468,     91.51368,0.83448,3
247.679,169.001,     91.55432,0.83404,3
248.222,169.534,     91.46842,0.83358,3
248.754,170.067,     91.48274,0.83312,3
249.276,170.601,     91.48989,0.83268,3
249.822,171.134,     91.44695,0.83222,3
250.344,171.667,     91.47558,0.83177,3
250.893,172.201,     91.47558,0.83130,3
251.424,172.734,     91.47558,0.83085,3
251.952,173.268,     91.47558,0.83040,3
252.488,173.801,     91.45411,0.82994,3
253.02,174.334,     91.46126,0.82948,3
253.552,174.868,     91.44695,0.82902,3
254.091,175.401,     91.46126,0.82856,3
254.606,175.934,     91.43284,0.82812,3
255.151,176.468,     91.43979,0.82765,3
255.691,177.001,     91.41853,0.82718,3
256.213,177.534,     91.44695,0.82673,3
256.769,178.067,     91.41853,0.82625,3
257.3,178.601,     91.45179,0.82579,3
257.811,179.134,     91.39474,0.82534,3
258.355,179.667,     91.40168,0.82487,3
258.892,180.201,     91.40884,0.82440,3
259.424,180.734,     91.38042,0.82394,3
259.947,181.268,     91.38042,0.82348,3
260.484,181.801,     91.38042,0.82302,3
261.024,182.334,     91.38042,0.82254,3
261.54,182.868,     91.35179,0.82209,3
262.075,183.401,     91.35179,0.82162,3
262.627,183.934,     91.34463,0.82114,3
263.15,184.468,     91.31600,0.82068,3
263.68,185.001,     91.31600,0.82021,3
264.221,185.534,     91.33032,0.81974,3
264.75,186.067,     91.34463,0.81927,3
265.291,186.601,     91.29453,0.81879,3
265.817,187.134,     91.29453,0.81833,3
266.36,187.667,     91.29453,0.81785,3
266.892,188.201,     91.29453,0.81738,3
267.422,188.734,     91.29453,0.81691,3
267.953,189.268,     91.25895,0.81643,3
268.487,189.801,     91.25895,0.81596,3
269.021,190.334,     91.25895,0.81549,3
269.544,190.868,     91.28989,0.81502,3
270.075,191.401,     91.25642,0.81455,3
270.619,191.934,     91.23516,0.81406,3
271.136,192.468,     91.23516,0.81360,3
271.692,193.001,     91.23516,0.81310,3
272.219,193.534,     91.23263,0.81263,3
272.749,194.067,     91.17558,0.81216,3
273.293,194.601,     91.17558,0.81167,3
273.82,195.134,     91.19705,0.81120,3
274.349,195.667,     91.16842,0.81072,3
274.885,196.201,     91.16842,0.81024,3
275.414,196.734,     91.16842,0.80976,3
275.947,197.268,     91.12547,0.80928,3
276.473,197.801,     91.12547,0.80881,3
277.016,198.334,     91.11832,0.80832,3
277.541,198.868,     91.12547,0.80784,3
278.078,199.401,     91.11832,0.80736,3
278.602,199.934,     91.08968,0.80688,3
279.148,200.468,     91.06126,0.80639,3
279.674,201.001,     91.03263,0.80591,3
280.207,201.534,     91.04695,0.80543,3
280.738,202.067,     91.04695,0.80495,3
281.281,202.601,     91.03979,0.80445,3
281.818,203.134,     91.04695,0.80397,3
282.342,203.667,     91.00400,0.80349,3
282.872,204.201,     91.00400,0.80301,3
283.4,204.734,     90.97537,0.80252,3
283.938,205.268,     90.96821,0.80203,3
284.464,205.801,     90.98253,0.80155,3
285.005,206.334,     90.93263,0.80106,3
285.535,206.868,     90.90400,0.80057,3
286.067,207.401,     90.93263,0.80009,3
286.597,207.934,     90.90632,0.79960,3
287.137,208.468,     90.90632,0.79911,3
287.66,209.001,     90.87789,0.79863,3
288.211,209.534,     90.86358,0.79812,3
288.735,210.067,     90.85642,0.79764,3
289.267,210.601,     90.84926,0.79715,3
289.801,211.134,     90.84926,0.79666,3
290.346,211.667,     90.82063,0.79615,3
290.865,212.201,     90.82063,0.79568,3
291.41,212.734,     90.79200,0.79517,3
291.945,213.268,     90.77768,0.79468,3
292.469,213.801,     90.76337,0.79420,3
293.004,214.334,     90.75642,0.79370,3
293.536,214.868,     90.72779,0.79321,3
294.061,215.401,     90.72779,0.79272,3
294.602,215.934,     90.69916,0.79222,3
295.136,216.468,     90.72779,0.79173,3
295.673,217.001,     90.67768,0.79123,3
296.206,217.534,     90.64905,0.79074,3
296.746,218.067,     90.64189,0.79023,3
297.271,218.601,     90.63495,0.78975,3
297.813,219.134,     90.61347,0.78924,3
298.339,219.667,     90.59200,0.78875,3
298.863,220.201,     90.58484,0.78827,3
299.404,220.734,     90.55621,0.78776,3
299.939,221.268,     90.55621,0.78726,3
300.469,221.801,     90.51347,0.78677,3
301.003,222.334,     90.51347,0.78627,3
301.537,222.868,     90.48484,0.78577,3
302.065,223.401,     90.45621,0.78528,3
302.598,223.934,     90.44905,0.78478,3
303.124,224.468,     90.42042,0.78429,3
303.664,225.001,     90.42042,0.78378,3
304.196,225.534,     90.39200,0.78329,3
304.728,226.067,     90.37768,0.78279,3
305.261,226.601,     90.36337,0.78229,3
305.797,227.134,     90.34189,0.78179,3
306.317,227.667,     90.30611,0.78130,3
306.872,228.201,     90.28463,0.78078,3
307.397,228.734,     90.29179,0.78028,3
307.924,229.268,     90.23474,0.77979,3
308.457,229.801,     90.22758,0.77929,3
308.988,230.334,     90.19895,0.77879,3
309.537,230.868,     90.17032,0.77827,3
310.064,231.401,     90.15621,0.77778,3
310.601,231.934,     90.12989,0.77727,3
311.133,232.468,     90.12989,0.77677,3
311.681,233.001,     90.10842,0.77625,3
312.221,233.534,     90.08000,0.77575,3
312.743,234.067,     90.05853,0.77525,3
313.288,234.601,     90.05853,0.77474,3
313.804,235.134,     90.02989,0.77425,3
314.349,235.667,     89.96547,0.77374,3
314.885,236.201,     89.96547,0.77323,3
315.42,236.734,     89.95853,0.77273,3
315.956,237.268,     89.90842,0.77222,3
316.488,237.801,     89.90842,0.77172,3
317.018,238.334,     89.85832,0.77122,3
317.565,238.868,     89.85832,0.77070,3
318.078,239.401,     89.80842,0.77021,3
318.621,239.934,     89.80842,0.76970,3
319.149,240.468,     89.77263,0.76920,3
319.696,241.001,     89.74400,0.76868,3
320.22,241.534,     89.68695,0.76818,3
320.752,242.067,     89.65832,0.76768,3
321.274,242.601,     89.65832,0.76719,3
321.811,243.134,     89.60126,0.76668,3
322.346,243.667,     89.58695,0.76617,3
322.87,244.201,     89.55832,0.76567,3
323.407,244.734,     89.50105,0.76516,3
323.937,245.268,     89.47263,0.76466,3
324.484,245.801,     89.45116,0.76414,3
325.013,246.334,     89.38674,0.76364,3
325.55,246.868,     89.36295,0.76313,3
326.069,247.401,     89.32021,0.76263,3
326.613,247.934,     89.26295,0.76211,3
327.144,248.468,     89.20589,0.76161,3
327.677,249.001,     89.17726,0.76110,3
328.211,249.534,     89.12000,0.76060,3
328.753,250.067,     89.12000,0.76008,3
329.278,250.601,     89.00568,0.75958,3
329.819,251.134,     88.94863,0.75906,3
330.341,251.667,     88.89137,0.75857,3
330.88,252.201,     88.83432,0.75805,3
331.405,252.734,     88.77705,0.75755,3
331.939,253.268,     88.69137,0.75705,3
332.48,253.801,     88.63411,0.75653,3
333.023,254.334,     88.54842,0.75601,3
333.546,254.868,     88.49116,0.75551,3
334.069,255.401,     88.40547,0.75502,3
334.618,255.934,     88.31495,0.75449,3
335.152,256.467,     88.22442,0.75398,3
335.66,257.001,     88.13874,0.75350,3
336.208,257.534,     88.06021,0.75298,3
336.742,258.067,     87.94589,0.75247,3
337.267,258.601,     87.82905,0.75197,3
337.795,259.134,     87.68632,0.75146,3
338.328,259.668,     87.59579,0.75095,3
338.877,260.201,     87.45284,0.75043,3
339.399,260.734,     87.33368,0.74993,3
339.932,261.267,     87.20505,0.74942,3
340.476,261.801,     87.07642,0.74890,3
341.005,262.334,     86.92653,0.74840,3
341.526,262.868,     86.79074,0.74790,3
342.08,263.401,     86.61684,0.74737,3
342.602,263.934,     86.47389,0.74688,3
343.135,264.467,     86.30232,0.74637,3
343.672,265.001,     86.13095,0.74585,3
344.211,265.534,     85.92611,0.74534,3
344.746,266.067,     85.75453,0.74483,3
345.273,266.601,     85.54968,0.74433,3
345.806,267.134,     85.31874,0.74382,3
346.332,267.668,     85.11621,0.74331,3
346.862,268.201,     84.85200,0.74281,3
347.405,268.734,     84.64000,0.74229,3
347.944,269.267,     84.33747,0.74178,3
348.457,269.801,     84.06842,0.74129,3
348.991,270.334,     83.77305,0.74078,3
349.541,270.868,     83.46105,0.74025,3
350.058,271.401,     83.11558,0.73976,3
350.588,271.934,     82.77495,0.73925,3
351.131,272.467,     82.39874,0.73873,3
351.665,273.001,     82.05326,0.73822,3
352.204,273.534,     81.69368,0.73771,3
352.738,274.067,     81.32695,0.73720,3
353.266,274.601,     80.96968,0.73670,3
353.807,275.134,     80.57179,0.73618,3
354.347,275.668,     80.10989,0.73566,3
354.873,276.201,     79.67389,0.73516,3
355.4,276.734,     79.20947,0.73466,3
355.933,277.267,     78.75705,0.73415,3
356.47,277.801,     78.17347,0.73364,3
357.006,278.334,     77.68042,0.73313,3
357.53,278.868,     77.09221,0.73263,3
358.067,279.401,     76.48716,0.73212,3
358.603,279.934,     75.87263,0.73161,3
359.132,280.467,     75.22484,0.73110,3
359.657,281.001,     74.55789,0.73060,3
360.198,281.534,     73.82674,0.73009,3
360.741,282.067,     73.04547,0.72957,3
361.262,282.601,     72.22379,0.72907,3
361.801,283.134,     71.44505,0.72856,3
362.327,283.668,     70.56611,0.72806,3
362.855,284.201,     69.65158,0.72755,3
363.387,284.734,     68.72021,0.72705,3
363.925,285.267,     67.75074,0.72654,3
364.467,285.801,     66.69811,0.72602,3
364.991,286.334,     65.62632,0.72552,3
365.535,286.868,     64.57600,0.72500,3
366.062,287.401,     63.41368,0.72450,3
366.59,287.934,     62.21789,0.72400,3
367.109,288.467,     61.01053,0.72351,3
367.653,289.001,     59.73853,0.72299,3
368.191,289.534,     58.38568,0.72248,3
368.72,290.067,     57.02568,0.72198,3
369.262,290.601,     55.60863,0.72146,3
369.783,291.134,     54.13432,0.72097,3
370.314,291.668,     52.63137,0.72046,3
370.856,292.201,     51.09032,0.71995,3
371.394,292.734,     49.47789,0.71944,3
371.925,293.267,     47.84884,0.71894,3
372.455,293.801,     46.19579,0.71843,3
372.975,294.334,     44.47621,0.71794,3
373.521,294.868,     42.75663,0.71742,3
374.059,295.401,     40.92968,0.71691,3
374.594,295.934,     39.15305,0.71641,3
375.134,296.467,     37.31432,0.71590,3
375.66,297.001,     35.44463,0.71540,3
376.193,297.534,     33.61053,0.71489,3
376.737,298.067,     31.71958,0.71438,3
377.264,298.601,     29.78316,0.71388,3
377.78,299.134,     27.95621,0.71339,3
378.314,299.668,     26.08189,0.71289,3
378.855,300.201,     24.25032,0.71238,3
379.398,300.734,     22.40442,0.71186,3
379.936,301.267,     20.56800,0.71136,3
380.457,301.801,     18.74126,0.71086,3
380.993,302.334,     16.95958,0.71036,3
381.515,302.868,     15.20674,0.70987,3
382.066,303.401,     13.53705,0.70935,3
382.599,303.934,     11.91979,0.70884,3
383.118,304.467,     10.37895,0.70836,3
383.666,305.001,      8.91179,0.70784,3
384.197,305.534,      7.47558,0.70734,3
384.728,306.067,      6.16779,0.70684,3
385.265,306.601,      4.93179,0.70633,3
385.817,307.134,      3.77432,0.70582,3
386.347,307.668,      2.71663,0.70532,3
386.878,308.201,      1.73074,0.70482,3
387.412,308.734,      0.83516,0.70432,3
387.932,309.267, 2.294737e-02,0.70383,3
388.472,309.801,     -0.69158,0.70332,3
389.005,310.334,     -1.31811,0.70282,3
389.539,310.868,     -1.87305,0.70232,3
390.066,311.401,     -2.37558,0.70183,3
390.61,311.934,     -2.79221,0.70132,3
391.144,312.467,     -3.18295,0.70082,3
391.676,313.001,     -3.49263,0.70032,3
392.208,313.534,     -3.75453,0.69982,3
392.742,314.067,     -4.00947,0.69933,3
393.268,314.601,     -4.22147,0.69883,3
393.796,315.134,     -4.39284,0.69834,3
394.336,315.668,     -4.54758,0.69784,3
394.87,316.201,     -4.64063,0.69734,3
395.407,316.734,     -4.74779,0.69684,3
395.941,317.267,     -4.85726,0.69634,3
396.468,317.801,     -4.92884,0.69585,3
396.993,318.334,     -5.01453,0.69536,3
397.53,318.868,     -5.07158,0.69486,3
398.074,319.401,     -5.10253,0.69435,3
398.591,319.934,     -5.15979,0.69387,3
399.128,320.467,     -5.23116,0.69337,3
399.6,320.939,     -5.23832,0.69294,4
399.643,320.979,     -5.23832,0.69290,4
399.694,321.019,     -5.23832,0.69285,4
399.76,321.059,     -5.23832,0.69279,4
399.844,321.099,     -5.23832,0.69271,4
399.944,321.139,     -5.23832,0.69262,4
400.089,321.179,     -5.20737,0.69248,4
400.265,321.219,     -5.17895,0.69232,4
400.479,321.259,     -5.15032,0.69212,4
400.722,321.299,     -5.11684,0.69190,4
401.02,321.339,     -5.08358,0.69162,4
401.35,321.379,     -5.02632,0.69131,4
401.727,321.419,     -4.95011,0.69096,4
402.141,321.459,     -4.88358,0.69058,4
402.609,321.499,     -4.84295,0.69015,4
403.122,321.539,     -4.76926,0.68967,4
403.676,321.579,     -4.70484,0.68916,4
404.272,321.619,     -4.66905,0.68861,4
404.896,321.659,     -4.59284,0.68803,4
405.548,321.699,     -4.55242,0.68743,4
406.229,321.739,     -4.45958,0.68680,4
406.942,321.779,     -4.39516,0.68615,4
407.681,321.819,     -4.34526,0.68546,4
408.45,321.859,     -4.29284,0.68476,4
409.217,321.899,     -4.26421,0.68405,4
410.002,321.939,     -4.23326,0.68333,4
410.804,321.979,     -4.20463,0.68260,4
411.613,322.019,     -4.17137,0.68185,4
412.422,322.059,     -4.14042,0.68111,4
413.246,322.099,     -4.10000,0.68036,4
414.052,322.139,     -4.07600,0.67962,4
414.863,322.179,     -4.07600,0.67888,4
415.667,322.219,     -4.04758,0.67815,4
416.465,322.259,     -4.01895,0.67742,4
417.257,322.299,     -4.01895,0.67670,4
418.041,322.339,     -4.01895,0.67599,4
418.809,322.379,     -3.99747,0.67529,4
419.57,322.419,     -3.99747,0.67460,4
420.323,322.459,     -3.99032,0.67392,4
421.077,322.499,     -3.99032,0.67323,4
421.8,322.539,     -3.99032,0.67258,4
422.519,322.579,     -3.99032,0.67193,4
423.233,322.619,     -3.99032,0.67128,4
423.928,322.659,     -3.99032,0.67066,4
424.618,322.699,     -3.99032,0.67004,4
425.297,322.739,     -3.99032,0.66942,4
425.977,322.779,     -3.99032,0.66881,4
426.644,322.819,     -4.01895,0.66821,4
427.308,322.859,     -4.01895,0.66762,4
427.967,322.899,     -4.01895,0.66703,4
428.633,322.939,     -4.01895,0.66643,4
429.285,322.979,     -4.01895,0.66585,4
429.941,323.019,     -4.01895,0.66526,4
430.601,323.059,     -4.01895,0.66467,4
431.26,323.099,     -4.01895,0.66408,4
431.924,323.139,     -4.01895,0.66349,4
432.588,323.179,     -4.04758,0.66290,4
433.26,323.219,     -4.01895,0.66230,4
433.93,323.259,     -4.01895,0.66170,4
434.611,323.299,     -3.99032,0.66110,4
435.306,323.339,     -3.99032,0.66048,4
436.005,323.379,     -3.99032,0.65986,4
436.719,323.419,     -3.96884,0.65923,4
437.417,323.459,     -3.96168,0.65862,4
438.135,323.499,     -3.96168,0.65798,4
438.863,323.539,     -3.96168,0.65734,4
439.602,323.579,     -3.94737,0.65669,4
440.358,323.619,     -3.93074,0.65602,4
441.104,323.659,     -3.93074,0.65537,4
441.854,323.699,     -3.90926,0.65471,4
442.618,323.739,     -3.90232,0.65404,4
443.409,323.779,     -3.87368,0.65335,4
444.201,323.819,     -3.87368,0.65265,4
444.986,323.859,     -3.84505,0.65197,4
445.77,323.899,     -3.84505,0.65129,4
446.562,323.939,     -3.81642,0.65060,4
447.376,323.979,     -3.81642,0.64989,4
448.194,324.019,     -3.81642,0.64918,4
448.997,324.059,     -3.80211,0.64848,4
449.811,324.099,     -3.78779,0.64778,4
450.648,324.139,     -3.75937,0.64705,4
451.463,324.179,     -3.75937,0.64635,4
452.285,324.219,     -3.75221,0.64564,4
453.113,324.259,     -3.73074,0.64493,4
453.947,324.299,     -3.73074,0.64421,4
454.761,324.339,     -3.70211,0.64351,4
455.6,324.379,     -3.70211,0.64279,4
456.436,324.419,     -3.70211,0.64208,4
457.256,324.459,     -3.68779,0.64138,4
458.09,324.499,     -3.67347,0.64067,4
458.91,324.539,     -3.67347,0.63997,4
459.742,324.579,     -3.67347,0.63926,4
460.583,324.619,     -3.67347,0.63855,4
461.405,324.659,     -3.67347,0.63785,4
462.225,324.699,     -3.64505,0.63716,4
463.056,324.739,     -3.64505,0.63646,4
463.889,324.779,     -3.64505,0.63575,4
464.714,324.819,     -3.62358,0.63506,4
465.542,324.859,     -3.62358,0.63436,4
466.359,324.899,     -3.61642,0.63368,4
467.189,324.939,     -3.60211,0.63298,4
468,324.979,     -3.60211,0.63230,4
468.836,325.019,     -3.60211,0.63160,4
469.655,325.059,     -3.60211,0.63092,4
470.477,325.099,     -3.58779,0.63024,4
471.298,325.139,     -3.58779,0.62956,4
472.125,325.179,     -3.58779,0.62887,4
472.955,325.219,     -3.58779,0.62818,4
473.779,325.259,     -3.55916,0.62750,4
474.613,325.299,     -3.55916,0.62681,4
475.424,325.339,     -3.53074,0.62614,4
476.261,325.379,     -3.53074,0.62546,4
477.091,325.419,     -3.53074,0.62477,4
477.915,325.459,     -3.53074,0.62410,4
478.741,325.499,     -3.53074,0.62342,4
479.566,325.539,     -3.53074,0.62275,4
480.399,325.579,     -3.50211,0.62207,4
481.228,325.619,     -3.50211,0.62140,4
482.074,325.659,     -3.48779,0.62071,4
482.911,325.699,     -3.47347,0.62003,4
483.728,325.739,     -3.44484,0.61937,4
484.572,325.779,     -3.44484,0.61869,4
485.402,325.819,     -3.42358,0.61802,4
486.241,325.859,     -3.42358,0.61734,4
487.076,325.899,     -3.42358,0.61667,4
487.908,325.939,     -3.41642,0.61601,4
488.759,325.979,     -3.38779,0.61533,4
489.592,326.019,     -3.38779,0.61466,4
490.436,326.059,     -3.38779,0.61399,4
491.281,326.099,     -3.35916,0.61332,4
492.121,326.139,     -3.34484,0.61265,4
492.967,326.179,     -3.34484,0.61198,4
493.809,326.219,     -3.34484,0.61131,4
494.655,326.259,     -3.33053,0.61065,4
495.493,326.299,     -3.33053,0.60999,4
496.326,326.339,     -3.33053,0.60933,4
497.169,326.379,     -3.33053,0.60867,4
498.016,326.419,     -3.32337,0.60801,4
498.854,326.459,     -3.30211,0.60735,4
499.69,326.499,     -3.27095,0.60670,4
500.538,326.539,     -3.23768,0.60604,4
501.383,326.579,     -3.23768,0.60538,4
502.224,326.619,     -3.23768,0.60473,4
503.058,326.659,     -3.23768,0.60408,4
503.893,326.699,     -3.23768,0.60344,4
504.733,326.739,     -3.23768,0.60279,4
505.574,326.779,     -3.22337,0.60215,4
506.419,326.819,     -3.20905,0.60150,4
507.257,326.859,     -3.20905,0.60086,4
508.093,326.899,     -3.20905,0.60022,4
508.933,326.939,     -3.20905,0.59958,4
509.779,326.979,     -3.18063,0.59893,4
510.617,327.019,     -3.18063,0.59830,4
511.454,327.059,     -3.18063,0.59766,4
512.293,327.099,     -3.15200,0.59703,4
513.125,327.139,     -3.15200,0.59640,4
513.962,327.179,     -3.15200,0.59577,4
514.805,327.219,     -3.13768,0.59514,4
515.64,327.259,     -3.12337,0.59451,4
516.478,327.299,     -3.10905,0.59388,4
517.317,327.339,     -3.09474,0.59326,4
518.155,327.379,     -3.09474,0.59263,4
518.99,327.419,     -3.09474,0.59201,4
519.829,327.459,     -3.06632,0.59139,4
520.666,327.499,     -3.06632,0.59077,4
521.498,327.539,     -3.06632,0.59015,4
522.332,327.579,     -3.05916,0.58954,4
523.171,327.619,     -3.05916,0.58892,4
524.007,327.659,     -3.05916,0.58831,4
524.839,327.699,     -3.03768,0.58770,4
525.68,327.739,     -3.00905,0.58709,4
526.518,327.779,     -3.00905,0.58647,4
527.352,327.819,     -3.00905,0.58587,4
528.174,327.859,     -3.00905,0.58527,4
529.016,327.899,     -2.98042,0.58466,4
529.852,327.939,     -2.98042,0.58406,4
530.687,327.979,     -2.98042,0.58346,4
531.528,328.019,     -2.98042,0.58285,4
532.361,328.059,     -2.98042,0.58225,4
533.182,328.099,     -2.98042,0.58166,4
534.029,328.139,     -2.95179,0.58106,4
534.859,328.179,     -2.95179,0.58047,4
535.702,328.219,     -2.93053,0.57987,4
536.533,328.259,     -2.92337,0.57928,4
537.362,328.299,     -2.90189,0.57869,4
538.198,328.339,     -2.89474,0.57810,4
539.035,328.379,     -2.89474,0.57751,4
539.867,328.419,     -2.89474,0.57693,4
540.696,328.459,     -2.89474,0.57634,4
541.53,328.499,     -2.89474,0.57576,4
542.358,328.539,     -2.86611,0.57518,4
543.191,328.579,     -2.86611,0.57460,4
544.02,328.619,     -2.86611,0.57402,4
544.851,328.659,     -2.86611,0.57345,4
545.684,328.699,     -2.86611,0.57287,4
546.513,328.739,     -2.83747,0.57230,4
547.347,328.779,     -2.83747,0.57172,4
548.182,328.819,     -2.80905,0.57115,4
549.011,328.859,     -2.80905,0.57058,4
549.835,328.899,     -2.78758,0.57002,4
550.662,328.939,     -2.78042,0.56945,4
551.491,328.979,     -2.78042,0.56889,4
552.319,329.019,     -2.78042,0.56833,4
553.157,329.059,     -2.78042,0.56776,4
553.983,329.099,     -2.78042,0.56720,4
554.801,329.139,     -2.78042,0.56665,4
555.628,329.179,     -2.76611,0.56609,4
556.462,329.219,     -2.75179,0.56553,4
557.292,329.259,     -2.75179,0.56498,4
558.12,329.299,     -2.75179,0.56442,4
558.942,329.339,     -2.72084,0.56388,4
559.764,329.379,     -2.69221,0.56333,4
560.6,329.419,     -2.69221,0.56277,4
561.43,329.459,     -2.69221,0.56223,4
562.253,329.499,     -2.69221,0.56168,4
563.077,329.539,     -2.68505,0.56114,4
563.899,329.579,     -2.66379,0.56060,4
564.727,329.619,     -2.66379,0.56006,4
565.556,329.659,     -2.64947,0.55951,4
566.378,329.699,     -2.64947,0.55898,4
567.206,329.739,     -2.64947,0.55844,4
568.031,329.779,     -2.64947,0.55790,4
568.856,329.819,     -2.64947,0.55737,4
569.683,329.859,     -2.63516,0.55683,4
570.509,329.899,     -2.61368,0.55630,4
571.328,329.939,     -2.60653,0.55577,4
572.152,329.979,     -2.60653,0.55525,4
572.986,330.019,     -2.60653,0.55471,4
573.81,330.059,     -2.57789,0.55419,4
574.625,330.099,     -2.57789,0.55367,4
575.444,330.139,     -2.54947,0.55315,4
576.274,330.179,     -2.54947,0.55262,4
577.092,330.219,     -2.55642,0.55210,4
577.91,330.259,     -2.57789,0.55159,4
578.734,330.299,     -2.55642,0.55107,4
579.561,330.339,     -2.54947,0.55055,4
580.385,330.379,     -2.52800,0.55003,4
581.197,330.419,     -2.52084,0.54952,4
582.037,330.459,     -2.49221,0.54900,4
582.856,330.499,     -2.49221,0.54849,4
583.671,330.539,     -2.49221,0.54799,4
584.499,330.579,     -2.49221,0.54747,4
585.314,330.619,     -2.46358,0.54697,4
586.133,330.659,     -2.46358,0.54647,4
586.965,330.699,     -2.46358,0.54596,4
587.777,330.739,     -2.43495,0.54546,4
588.593,330.779,     -2.43495,0.54496,4
589.422,330.819,     -2.43495,0.54445,4
590.249,330.859,     -2.43495,0.54395,4
591.057,330.899,     -2.43495,0.54346,4
591.887,330.939,     -2.43495,0.54296,4
592.702,330.979,     -2.40653,0.54247,4
593.527,331.019,     -2.40653,0.54197,4
594.345,331.059,     -2.40653,0.54148,4
595.159,331.099,     -2.37789,0.54099,4
595.982,331.139,     -2.37789,0.54050,4
596.801,331.179,     -2.37074,0.54001,4
597.626,331.219,     -2.35642,0.53952,4
598.444,331.259,     -2.35642,0.53903,4
599.264,331.299,     -2.35642,0.53854,4
600.084,331.339,     -2.32063,0.53806,4
600.899,331.379,     -2.32063,0.53758,4
601.724,331.419,     -2.32063,0.53709,4
602.536,331.459,     -2.32063,0.53662,4
603.358,331.499,     -2.32063,0.53614,4
604.175,331.539,     -2.32063,0.53566,4
605,331.579,     -2.28968,0.53518,4
605.81,331.619,     -2.28968,0.53471,4
606.641,331.659,     -2.26126,0.53423,4
607.455,331.699,     -2.26126,0.53376,4
608.27,331.739,     -2.26126,0.53329,4
609.094,331.779,     -2.26126,0.53281,4
609.913,331.819,     -2.26126,0.53234,4
610.729,331.859,     -2.26126,0.53188,4
611.55,331.899,     -2.23979,0.53141,4
612.371,331.939,     -2.23263,0.53094,4
613.178,331.979,     -2.23263,0.53048,4
613.994,332.019,     -2.23263,0.53002,4
614.821,332.059,     -2.22547,0.52955,4
615.636,332.099,     -2.20400,0.52909,4
616.456,332.139,     -2.20400,0.52863,4
617.266,332.179,     -2.17537,0.52817,4
618.089,332.219,     -2.17537,0.52771,4
618.91,332.259,     -2.17537,0.52725,4
619.717,332.299,     -2.17537,0.52680,4
620.53,332.339,     -2.17537,0.52635,4
621.354,332.379,     -2.17537,0.52589,4
622.177,332.419,     -2.14695,0.52544,4
622.989,332.459,     -2.14695,0.52499,4
623.803,332.499,     -2.14695,0.52454,4
624.61,332.539,     -2.14695,0.52410,4
625.427,332.579,     -2.14695,0.52365,4
626.242,332.619,     -2.13979,0.52320,4
627.066,332.659,     -2.11832,0.52275,4
627.878,332.699,     -2.11832,0.52231,4
628.692,332.739,     -2.10400,0.52187,4
629.498,332.779,     -2.08968,0.52143,4
630.324,332.819,     -2.06105,0.52099,4
631.137,332.859,     -2.06105,0.52055,4
631.943,332.899,     -2.06105,0.52011,4
632.759,332.939,     -2.06105,0.51968,4
633.569,332.979,     -2.03263,0.51924,4
634.387,333.019,     -2.03263,0.51881,4
635.2,333.059,     -2.03263,0.51837,4
636.01,333.099,     -2.03263,0.51794,4
636.815,333.139,     -2.03263,0.51751,4
637.638,333.179,     -2.03263,0.51708,4
638.446,333.219,     -2.00400,0.51665,4
639.264,333.259,     -2.00400,0.51622,4
640.073,333.299,     -2.00400,0.51580,4
640.888,333.339,     -1.97305,0.51537,4
641.691,333.379,     -1.97305,0.51495,4
642.509,333.419,     -1.97305,0.51452,4
643.33,333.459,     -1.97305,0.51409,4
644.133,333.499,     -1.97305,0.51368,4
644.95,333.539,     -1.95874,0.51325,4
645.762,333.579,     -1.95874,0.51283,4
646.571,333.619,     -1.94442,0.51241,4
647.383,333.659,     -1.94442,0.51200,4
648.194,333.699,     -1.94442,0.51158,4
649.01,333.739,     -1.91579,0.51116,4
649.822,333.779,     -1.91579,0.51075,4
650.637,333.819,     -1.91579,0.51033,4
651.447,333.859,     -1.91579,0.50992,4
652.241,333.899,     -1.90863,0.50951,4
653.058,333.939,     -1.88716,0.50910,4
653.868,333.979,     -1.88716,0.50869,4
654.686,334.019,     -1.88716,0.50828,4
655.49,334.059,     -1.86589,0.50787,4
656.301,334.099,     -1.85874,0.50746,4
657.108,334.139,     -1.85874,0.50706,4
657.927,334.179,     -1.84442,0.50665,4
658.746,334.219,     -1.83011,0.50624,4
659.547,334.259,     -1.83011,0.50584,4
660.359,334.299,     -1.83011,0.50544,4
661.165,334.339,     -1.83011,0.50504,4
661.99,334.379,     -1.81579,0.50463,4
662.791,334.419,     -1.81579,0.50423,4
663.603,334.459,     -1.80147,0.50383,4
664.408,334.499,     -1.80147,0.50344,4
665.224,334.539,     -1.77284,0.50304,4
666.028,334.579,     -1.75158,0.50264,4
666.84,334.619,     -1.74442,0.50225,4
667.655,334.659,     -1.77284,0.50185,4
668.47,334.699,     -1.77284,0.50145,4
669.278,334.739,     -1.77284,0.50106,4
670.085,334.779,     -1.77284,0.50067,4
670.89,334.819,     -1.74442,0.50028,4
671.704,334.859,     -1.74442,0.49989,4
672.514,334.899,     -1.74442,0.49950,4
673.327,334.939,     -1.71579,0.49911,4
674.131,334.979,     -1.71579,0.49872,4
674.948,335.019,     -1.71579,0.49833,4
675.753,335.059,     -1.71579,0.49795,4
676.565,335.099,     -1.71579,0.49756,4
677.383,335.139,     -1.68716,0.49717,4
678.185,335.179,     -1.68716,0.49679,4
678.999,335.219,     -1.68716,0.49640,4
679.807,335.259,     -1.68716,0.49602,4
680.618,335.299,     -1.68716,0.49564,4
681.423,335.339,     -1.65853,0.49526,4
682.227,335.379,     -1.65853,0.49488,4
683.049,335.419,     -1.65853,0.49450,4
683.858,335.459,     -1.65853,0.49412,4
684.668,335.499,     -1.63011,0.49374,4
685.483,335.539,     -1.63011,0.49336,4
686.286,335.579,     -1.63011,0.49299,4
687.099,335.619,     -1.61579,0.49261,4
687.914,335.659,     -1.60147,0.49223,4
688.715,335.699,     -1.60147,0.49186,4
689.525,335.739,     -1.60147,0.49148,4
690.333,335.779,     -1.60147,0.49111,4
691.15,335.819,     -1.60147,0.49074,4
691.947,335.859,     -1.58716,0.49037,4
692.76,335.899,     -1.57284,0.49000,4
693.576,335.939,     -1.57284,0.48962,4
694.379,335.979,     -1.57284,0.48926,4
695.183,336.019,     -1.57284,0.48889,4
696.001,336.059,     -1.54421,0.48852,4
696.805,336.099,     -1.54421,0.48815,4
697.617,336.139,     -1.54421,0.48778,4
698.423,336.179,     -1.54421,0.48742,4
699.24,336.219,     -1.54421,0.48705,4
700.049,336.259,     -1.54421,0.48668,4
700.852,336.299,     -1.51579,0.48632,4
701.659,336.339,     -1.51579,0.48596,4
702.47,336.379,     -1.51579,0.48560,4
703.284,336.419,     -1.49432,0.48523,4
704.089,336.459,     -1.49432,0.48487,4
704.899,336.499,     -1.49432,0.48451,4
705.706,336.539,     -1.49432,0.48415,4
706.523,336.579,     -1.49432,0.48379,4
707.33,336.619,     -1.48716,0.48343,4
708.137,336.659,     -1.45853,0.48307,4
708.946,336.699,     -1.45853,0.48271,4
709.755,336.739,     -1.45853,0.48235,4
710.569,336.779,     -1.45853,0.48199,4
711.372,336.819,     -1.45853,0.48164,4
712.185,336.859,     -1.42989,0.48128,4
712.996,336.899,     -1.42989,0.48092,4
713.801,336.939,     -1.42989,0.48057,4
714.603,336.979,     -1.42989,0.48022,4
715.421,337.019,     -1.40126,0.47986,4
716.226,337.059,     -1.40126,0.47951,4
717.027,337.099,     -1.40126,0.47916,4
717.839,337.139,     -1.40126,0.47881,4
718.651,337.179,     -1.40126,0.47845,4
719.458,337.219,     -1.37284,0.47810,4
720.262,337.259,     -1.37284,0.47776,4
721.068,337.299,     -1.37284,0.47741,4
721.881,337.339,     -1.35137,0.47706,4
722.693,337.379,     -1.35137,0.47670,4
723.494,337.419,     -1.35137,0.47636,4
724.306,337.459,     -1.34421,0.47601,4
725.112,337.499,     -1.34421,0.47566,4
725.92,337.539,     -1.34421,0.47532,4
726.722,337.579,     -1.31558,0.47497,4
727.535,337.619,     -1.31558,0.47463,4
728.347,337.659,     -1.34421,0.47428,4
729.161,337.699,     -1.34421,0.47393,4
729.974,337.739,     -1.31558,0.47358,4
730.773,337.779,     -1.31558,0.47324,4
731.581,337.819,     -1.31558,0.47290,4
732.394,337.859,     -1.28695,0.47255,4
733.201,337.899,     -1.28695,0.47221,4
734.016,337.939,     -1.28695,0.47187,4
734.818,337.979,     -1.28695,0.47153,4
735.629,338.019,     -1.26568,0.47118,4
736.45,338.059,     -1.25853,0.47084,4
737.249,338.099,     -1.25853,0.47050,4
738.06,338.139,     -1.25853,0.47016,4
738.865,338.179,     -1.22989,0.46982,4
739.677,338.219,     -1.22989,0.46948,4
740.49,338.259,     -1.22989,0.46914,4
741.286,338.299,     -1.22989,0.46880,4
742.096,338.339,     -1.22989,0.46847,4
742.896,338.379,     -1.22989,0.46813,4
743.717,338.419,     -1.20126,0.46779,4
744.519,338.459,     -1.20126,0.46745,4
745.322,338.499,     -1.20126,0.46712,4
746.139,338.539,     -1.20126,0.46678,4
746.938,338.579,     -1.17263,0.46645,4
747.747,338.619,     -1.17263,0.46611,4
748.559,338.659,     -1.14421,0.46577,4
749.361,338.699,     -1.14421,0.46544,4
750.159,338.739,     -1.14421,0.46511,4
750.969,338.779,     -1.14421,0.46477,4
751.78,338.819,     -1.14421,0.46444,4
752.59,338.859,     -1.14421,0.46410,4
753.392,338.899,     -1.12989,0.46377,4
754.203,338.939,     -1.11558,0.46344,4
755.009,338.979,     -1.11558,0.46311,4
755.83,339.019,     -1.11558,0.46277,4
756.633,339.059,     -1.11558,0.46244,4
757.436,339.099,     -1.11558,0.46211,4
758.249,339.139,     -1.07263,0.46177,4
759.056,339.179,     -1.02505,0.46144,4
759.859,339.219,     -1.02505,0.46111,4
760.665,339.259,     -1.02505,0.46078,4
761.474,339.299,     -1.02505,0.46045,4
762.285,339.339,     -1.04653,0.46012,4
763.077,339.379,     -1.05368,0.45980,4
763.903,339.419,     -1.05368,0.45946,4
764.713,339.459,     -1.03937,0.45913,4
765.514,339.499,     -1.02505,0.45880,4
766.324,339.539,     -1.05368,0.45847,4
767.135,339.579,     -1.05368,0.45814,4
767.943,339.619,     -1.05368,0.45781,4
768.752,339.659,     -1.02505,0.45748,4
769.561,339.699,     -1.02505,0.45715,4
770.372,339.739,     -1.01074,0.45682,4
771.169,339.779,     -0.99642,0.45650,4
771.983,339.819,     -0.99642,0.45617,4
772.79,339.859,     -1.02505,0.45584,4
773.585,339.899,     -0.99642,0.45552,4
774.398,339.939,     -0.99642,0.45519,4
775.2,339.979,     -0.96779,0.45487,4
776.009,340.019,     -0.96779,0.45454,4
776.818,340.059,     -0.96779,0.45421,4
777.621,340.099,     -0.96779,0.45389,4
778.433,340.139,     -0.93937,0.45356,4
779.242,340.179,     -0.91789,0.45323,4
780.036,340.219,     -0.91074,0.45291,4
780.846,340.259,     -0.91074,0.45258,4
781.647,340.299,     -0.91074,0.45226,4
782.458,340.339,     -0.93937,0.45193,4
783.264,340.379,     -0.93937,0.45161,4
784.066,340.419,     -0.91074,0.45129,4
784.872,340.459,     -0.91074,0.45096,4
785.68,340.499,     -0.91074,0.45064,4
786.496,340.539,     -0.91074,0.45031,4
787.291,340.579,     -0.91074,0.44999,4
788.1,340.619,     -0.88211,0.44966,4
788.911,340.659,     -0.88211,0.44934,4
789.715,340.699,     -0.88211,0.44901,4
790.522,340.739,     -0.88211,0.44869,4
791.329,340.779,     -0.88211,0.44836,4
792.131,340.819,     -0.85347,0.44804,4
792.937,340.859,     -0.85347,0.44772,4
793.742,340.899,     -0.85347,0.44740,4
794.442,340.934,     -0.85347,0.44711,4