File: data/TGA/commercial_samples/ExpDat_2025_09_07_SL_PS_Red_Solo_Cup_SCF3_P5EER3_V1_2_dynamic.csv
#EXPORTTYPE:                 ,DATA ALL
#FILE:                       ,2025_09_07_SL_PS_Red_Solo_Cup_SCF3_P5EER3_V1_2_Dynamic.ngb-ss5
#FORMAT:                     ,NETZSCH5
#FTYPE:                      ,ASCII
#IDENTITY:                   ,250821-P5EER3-V1+2
#DECIMAL:                    ,POINT
#SEPARATOR:                  ,COMMA
#MTYPE:                      ,DSC
#INSTRUMENT:                 ,NETZSCH STA 449F5
#PROJECT:                    ,PS-SCF3
#DATE/TIME:                  ,9/7/2025 2:06:17 PM (UTC-4)
#CORR. FILE:                 ,
#TEMPCAL:                    ,05-05-2025 14:38
#SENSITIVITY:                ,28-06-2023 13:53
#LABORATORY:                 ,Tran
#OPERATOR:                   ,Stanley
#REMARK:                     ,2025_03_20_Styrofoam_dynamic
#SAMPLE:                     ,250821-P5EER3-V1+2
#SAMPLE MASS /mg:            ,4.84
#MATERIAL:                   ,Polystyrene
#REFERENCE:                  ,
#REFERENCE MASS /mg:         ,0
#TYPE OF CRUCIBLE:           ,Al2O3 85 ‘l, open
#SAMPLE CRUCIBLE MASS /mg:   ,0
#REFERENCE CRUCIBLE MASS /mg:,0
#DSC RANGE /‘V:              ,5000
#TG RANGE /mg:               ,35000
#TAU-R:                      ,---
#CORR. CODE:                 ,000
#EXO:                        ,-1
#RANGE:                      ,20›C....800›C/0.0....20.0K/min
#SEGMENT:                    ,S1-4/4
#SEG. 1:                     ,20›C/5.0(K/min)/100›C
#SEG. 2:                     ,100›C/00:05/100›C
#SEG. 3:                     ,100›C/1.0(K/min)/400›C
#SEG. 4:                     ,400›C/20.0(K/min)/800›C

##Temp./›C,Time/min,DSC/(mW/mg),Mass/%,Gas Flow(purge2)/(ml/min),Gas Flow(protective)/(ml/min),TIC(scan:1)/A,Sensit./(uV/mW),Segment
 30.33600,  0.00000,      1.28582,    100,50.00000,37.00000,            ,0.92362,1
 34.40400,  1.00000,      0.73367,     98.43616,50.00000,35.00000,7.192894e-09,0.92396,1
 36.70500,  2.00000,      0.41562,     89.71054,50.00000,33.00000,7.218391e-09,0.92421,1
 37.95500,  3.00000,      0.23027,     90.05640,50.00000,33.00000,7.210748e-09,0.92439,1
 38.66900,  4.00000,      0.11913,     89.67066,50.00000,33.00000,7.212038e-09,0.92454,1
 39.45100,  5.00000,      0.14843,     89.55847,50.00000,33.00000,7.225091e-09,0.92465,1
 41.18100,  6.00000,      0.32780,     89.90207,50.00000,33.00000,7.236406e-09,0.92473,1
 44.04400,  7.00000,      0.54996,     90.36260,50.00000,33.00000,7.224182e-09,0.92479,1
 47.89700,  8.00000,      0.75988,     90.92831,50.00000,33.00000,7.227710e-09,0.92484,1
 52.66000,  9.00000,      0.95609,     91.43554,50.00000,34.00000,7.241309e-09,0.92488,1
 58.12100, 10.00000,      1.12446,     91.92872,50.00000,34.00000,7.229688e-09,0.92491,1
 64.09500, 11.00000,      1.25546,     92.30041,50.00000,34.00000,7.252954e-09,0.92494,1
 70.34000, 12.00000,      1.34972,     92.55517,50.00000,34.00000,7.235761e-09,0.92498,1
 76.67900, 13.00000,      1.41496,     92.75145,50.00000,34.00000,7.245675e-09,0.92503,1
 83.03500, 14.00000,      1.45664,     92.86364,50.00000,34.00000,7.237107e-09,0.92511,1
 89.33900, 15.00000,      1.47708,     92.92211,50.00000,34.00000,7.256342e-09,0.92520,1
 95.49500, 16.00000,      1.48301,     92.97831,50.00000,34.00000,7.262700e-09,0.92531,1
 99.71000, 16.75000,      1.37918,     92.71880,50.00000,34.00000,7.247632e-09,0.92539,2
102.694, 17.50000,      1.03416,     92.04566,50.00000,34.00000,7.273386e-09,0.92549,2
104.715, 18.25000,      0.72749,     91.55702,50.00000,34.00000,7.251913e-09,0.92557,2
106.228, 19.00000,      0.52962,     91.17376,50.00000,34.00000,7.244578e-09,0.92568,2
107.228, 19.75000,      0.36617,     90.77624,50.00000,34.00000,7.262874e-09,0.92577,2
107.764, 20.50000,      0.20361,     90.36260,50.00000,34.00000,7.248271e-09,0.92585,2
107.849, 21.33333, 5.386392e-02,     89.95124,50.00000,34.00000,7.252335e-09,0.92594,3
107.721, 22.33333,-1.886876e-02,     89.64029,50.00000,34.00000,7.244941e-09,0.92604,3
107.558, 23.33333,-3.053152e-02,     89.41591,50.00000,34.00000,7.259877e-09,0.92612,3
107.372, 24.33333,-3.601823e-02,     89.23822,50.00000,34.00000,7.245139e-09,0.92617,3
107.272, 25.33333,-1.800855e-02,     89.12376,50.00000,34.00000,7.251467e-09,0.92620,3
107.307, 26.33333, 1.612212e-02,     89.03264,50.00000,34.00000,7.255298e-09,0.92619,3
107.512, 27.33333, 5.420124e-02,     88.96240,50.00000,34.00000,7.245435e-09,0.92615,3
107.859, 28.33333, 9.366175e-02,     88.90640,50.00000,34.00000,7.232296e-09,0.92607,3
108.34, 29.33333,      0.13039,     88.92045,50.00000,34.00000,7.245447e-09,0.92595,3
108.972, 30.33333,      0.16508,     88.91095,50.00000,34.00000,7.251083e-09,0.92579,3
109.729, 31.33333,      0.19430,     88.88306,50.00000,34.00000,7.250955e-09,0.92562,3
110.553, 32.33333,      0.21856,     88.85496,50.00000,34.00000,7.245997e-09,0.92539,3
111.489, 33.33333,      0.23907,     88.82686,50.00000,34.00000,7.238165e-09,0.92511,3
112.451, 34.33333,      0.25410,     88.82686,50.00000,34.00000,7.254732e-09,0.92480,3
113.459, 35.33333,      0.26536,     88.79876,50.00000,34.00000,7.256944e-09,0.92445,3
114.492, 36.33333,      0.27267,     88.74277,50.00000,34.00000,7.259429e-09,0.92406,3
115.536, 37.33333,      0.27742,     88.72169,50.00000,34.00000,7.248663e-09,0.92364,3
116.59, 38.33333,      0.28148,     88.71467,50.00000,34.00000,7.246903e-09,0.92318,3
117.645, 39.33333,      0.28332,     88.66550,50.00000,34.00000,7.244781e-09,0.92269,3
118.704, 40.33333,      0.28343,     88.65393,50.00000,34.00000,7.262906e-09,0.92217,3
119.756, 41.33333,      0.28285,     88.62583,50.00000,34.00000,7.245388e-09,0.92174,3
120.804, 42.33333,      0.28228,     88.61426,50.00000,34.00000,7.241444e-09,0.92135,3
121.829, 43.33333,      0.28067,     88.60021,50.00000,34.00000,7.261580e-09,0.92104,3
122.86, 44.33333,      0.28096,     88.55103,50.00000,34.00000,7.253025e-09,0.92071,3
123.879, 45.33333,      0.28108,     88.53244,50.00000,34.00000,7.251583e-09,0.92043,3
124.906, 46.33333,      0.27947,     88.55103,50.00000,34.00000,7.256791e-09,0.92018,3
125.919, 47.33333,      0.27804,     88.52996,50.00000,34.00000,7.243858e-09,0.91997,3
126.907, 48.33333,      0.27902,     88.52996,50.00000,34.00000,7.251168e-09,0.91977,3
127.925, 49.33333,      0.27914,     88.50434,50.00000,34.00000,7.255373e-09,0.91959,3
128.923, 50.33333,      0.27909,     88.53244,50.00000,34.00000,7.243903e-09,0.91943,3
129.928, 51.33333,      0.27818,     88.50888,50.00000,34.00000,7.248719e-09,0.91929,3
130.931, 52.33333,      0.27952,     88.50207,50.00000,34.00000,7.250697e-09,0.91917,3
131.92, 53.33333,      0.27999,     88.49504,50.00000,34.00000,7.241117e-09,0.91908,3
132.924, 54.33333,      0.28064,     88.50888,50.00000,34.00000,7.245575e-09,0.91902,3
133.928, 55.33333,      0.28042,     88.48802,50.00000,34.00000,7.230065e-09,0.91896,3
134.907, 56.33333,      0.28073,     88.51591,50.00000,34.00000,7.245584e-09,0.91893,3
135.91, 57.33333,      0.28103,     88.52996,50.00000,34.00000,7.239760e-09,0.91892,3
136.91, 58.33333,      0.28256,     88.52293,50.00000,34.00000,7.239184e-09,0.91892,3
137.914, 59.33333,      0.28235,     88.52293,50.00000,34.00000,7.235821e-09,0.91894,3
138.916, 60.33333,      0.28319,     88.49959,50.00000,34.00000,7.252970e-09,0.91895,3
139.917, 61.33333,      0.28263,     88.49959,50.00000,34.00000,7.245611e-09,0.91896,3
140.921, 62.33333,      0.28295,     88.52066,50.00000,34.00000,7.253012e-09,0.91898,3
141.925, 63.33333,      0.28292,     88.54876,50.00000,34.00000,7.241703e-09,0.91900,3
142.925, 64.33333,      0.28359,     88.56983,50.00000,34.00000,7.249280e-09,0.91902,3
143.935, 65.33333,      0.28252,     88.53471,50.00000,34.00000,7.246818e-09,0.91904,3
144.916, 66.33333,      0.28337,     88.54876,50.00000,34.00000,7.241771e-09,0.91906,3
145.936, 67.33333,      0.28317,     88.56281,50.00000,34.00000,7.249155e-09,0.91908,3
146.935, 68.33333,      0.28315,     88.59070,50.00000,34.00000,7.258133e-09,0.91908,3
147.946, 69.33333,      0.28086,     88.61178,50.00000,34.00000,7.240784e-09,0.91909,3
148.94, 70.33333,      0.28242,     88.57686,50.00000,34.00000,7.247991e-09,0.91908,3
149.943, 71.33333,      0.28100,     88.60475,50.00000,34.00000,7.243757e-09,0.91907,3
150.95, 72.33333,      0.27906,     88.60475,50.00000,34.00000,7.242773e-09,0.91905,3
151.949, 73.33333,      0.27957,     88.64690,50.00000,34.00000,7.255782e-09,0.91903,3
152.956, 74.33333,      0.28008,     88.63285,50.00000,34.00000,7.251387e-09,0.91899,3
153.961, 75.33333,      0.27920,     88.67500,50.00000,34.00000,7.259729e-09,0.91895,3
154.948, 76.33333,      0.27603,     88.68905,50.00000,34.00000,7.239938e-09,0.91890,3
155.941, 77.33333,      0.27496,     88.70289,50.00000,34.00000,7.264392e-09,0.91885,3
156.953, 78.33333,      0.27653,     88.70289,50.00000,34.00000,7.249149e-09,0.91879,3
157.934, 79.33333,      0.27634,     88.70289,50.00000,34.00000,7.248147e-09,0.91873,3
158.945, 80.33333,      0.27528,     88.73802,50.00000,34.00000,7.252456e-09,0.91866,3
159.951, 81.33333,      0.27422,     88.73099,50.00000,34.00000,7.246807e-09,0.91858,3
160.96, 82.33333,      0.27386,     88.73802,50.00000,34.00000,7.241366e-09,0.91849,3
161.956, 83.33333,      0.27087,     88.76612,50.00000,34.00000,7.225612e-09,0.91840,3
162.961, 84.33333,      0.26910,     88.78017,50.00000,34.00000,7.255085e-09,0.91830,3
163.947, 85.33333,      0.26803,     88.75207,50.00000,34.00000,7.263033e-09,0.91820,3
164.967, 86.33333,      0.26662,     88.78017,50.00000,34.00000,7.229086e-09,0.91809,3
165.955, 87.33333,      0.26591,     88.78017,50.00000,34.00000,7.229493e-09,0.91798,3
166.962, 88.33333,      0.26361,     88.78017,50.00000,34.00000,7.251755e-09,0.91788,3
167.955, 89.33333,      0.26237,     88.80124,50.00000,34.00000,7.255015e-09,0.91777,3
168.955, 90.33333,      0.26060,     88.80351,50.00000,34.00000,7.244097e-09,0.91764,3
169.939, 91.33333,      0.25953,     88.82459,50.00000,34.00000,7.261497e-09,0.91752,3
170.946, 92.33333,      0.25847,     88.83161,50.00000,34.00000,7.229089e-09,0.91740,3
171.953, 93.33333,      0.25563,     88.83161,50.00000,34.00000,7.242651e-09,0.91727,3
172.957, 94.33333,      0.25403,     88.84566,50.00000,34.00000,7.246729e-09,0.91714,3
173.94, 95.33333,      0.25154,     88.88058,50.00000,34.00000,7.257163e-09,0.91701,3
174.946, 96.33333,      0.24923,     88.85269,50.00000,34.00000,7.233212e-09,0.91687,3
175.934, 97.33333,      0.24727,     88.87128,50.00000,34.00000,7.240440e-09,0.91673,3
176.936, 98.33333,      0.24478,     88.87128,50.00000,34.00000,7.225398e-09,0.91659,3
177.943, 99.33333,      0.24282,     88.87128,50.00000,34.00000,7.246622e-09,0.91645,3
178.941,100.333,      0.24050,     88.85723,50.00000,34.00000,7.238616e-09,0.91633,3
179.933,101.333,      0.24013,     88.88533,50.00000,34.00000,7.247758e-09,0.91619,3
180.94,102.333,      0.23763,     88.87128,50.00000,34.00000,7.246697e-09,0.91605,3
181.94,103.333,      0.23406,     88.87128,50.00000,34.00000,7.236066e-09,0.91591,3
182.935,104.333,      0.23280,     88.87128,50.00000,34.00000,7.245904e-09,0.91576,3
183.934,105.333,      0.23047,     88.85723,50.00000,34.00000,7.253907e-09,0.91561,3
184.944,106.333,      0.22796,     88.88533,50.00000,34.00000,7.255335e-09,0.91546,3
185.937,107.333,      0.22616,     88.88533,50.00000,34.00000,7.233305e-09,0.91532,3
186.948,108.333,      0.22347,     88.90640,50.00000,34.00000,7.248426e-09,0.91517,3
187.935,109.333,      0.21951,     88.86426,50.00000,34.00000,7.238610e-09,0.91502,3
188.946,110.333,      0.21753,     88.85950,50.00000,34.00000,7.248473e-09,0.91487,3
189.954,111.333,      0.21572,     88.82459,50.00000,34.00000,7.242114e-09,0.91472,3
190.951,112.333,      0.21230,     88.82459,50.00000,34.00000,7.244161e-09,0.91460,3
191.951,113.333,      0.21048,     88.79421,50.00000,34.00000,7.242913e-09,0.91445,3
192.961,114.333,      0.20813,     88.79421,50.00000,34.00000,7.237644e-09,0.91430,3
193.943,115.333,      0.20487,     88.76839,50.00000,34.00000,7.241181e-09,0.91415,3
194.956,116.333,      0.20179,     88.79174,50.00000,34.00000,7.237824e-09,0.91400,3
195.956,117.333,      0.19744,     88.75434,50.00000,34.00000,7.241348e-09,0.91385,3
196.953,118.333,      0.19580,     88.72872,50.00000,34.00000,7.240313e-09,0.91369,3
197.948,119.333,      0.19198,     88.72872,50.00000,34.00000,7.234781e-09,0.91354,3
198.938,120.333,      0.18978,     88.69360,50.00000,34.00000,7.234812e-09,0.91338,3
199.948,121.333,      0.18976,     88.68657,50.00000,34.00000,7.245867e-09,0.91323,3
200.937,122.333,      0.18412,     88.65847,50.00000,34.00000,7.243735e-09,0.91307,3
201.945,123.333,      0.18173,     88.63760,50.00000,34.00000,7.238292e-09,0.91292,3
202.945,124.333,      0.18025,     88.63058,50.00000,34.00000,7.239470e-09,0.91278,3
203.947,125.333,      0.17695,     88.60248,50.00000,34.00000,7.231516e-09,0.91263,3
204.949,126.333,      0.17311,     88.57438,50.00000,34.00000,7.242948e-09,0.91247,3
205.942,127.333,      0.16998,     88.55331,50.00000,34.00000,7.233153e-09,0.91231,3
206.941,128.333,      0.16721,     88.49731,50.00000,34.00000,7.248864e-09,0.91215,3
207.949,129.333,      0.16571,     88.46921,50.00000,34.00000,7.242056e-09,0.91199,3
208.949,130.333,      0.16312,     88.42025,50.00000,34.00000,7.246300e-09,0.91184,3
209.939,131.333,      0.15979,     88.42025,50.00000,34.00000,7.225365e-09,0.91167,3
210.942,132.333,      0.15537,     88.37107,50.00000,34.00000,7.241339e-09,0.91151,3
211.946,133.333,      0.15221,     88.32893,50.00000,34.00000,7.217577e-09,0.91135,3
212.947,134.333,      0.14851,     88.28223,50.00000,34.00000,7.240649e-09,0.91119,3
213.943,135.333,      0.14607,     88.25413,50.00000,34.00000,7.238375e-09,0.91103,3
214.945,136.333,      0.14144,     88.20269,50.00000,34.00000,7.227851e-09,0.91089,3
215.951,137.333,      0.13845,     88.18182,50.00000,34.00000,7.226581e-09,0.91072,3
216.946,138.333,      0.13416,     88.15372,50.00000,34.00000,7.230691e-09,0.91056,3
217.951,139.333,      0.13208,     88.09752,50.00000,34.00000,7.231177e-09,0.91039,3
218.932,140.333,      0.12760,     88.04607,50.00000,34.00000,7.229953e-09,0.91022,3
219.948,141.333,      0.12532,     88.01116,50.00000,34.00000,7.228151e-09,0.91005,3
220.947,142.333,      0.12175,     87.98306,50.00000,34.00000,7.235994e-09,0.90989,3
221.956,143.333,      0.12223,     87.95496,50.00000,34.00000,7.234149e-09,0.90972,3
222.951,144.333,      0.11607,     87.88492,50.00000,34.00000,7.232937e-09,0.90955,3
223.944,145.333,      0.11304,     87.82645,50.00000,34.00000,7.235921e-09,0.90938,3
224.944,146.333,      0.11203,     87.81240,50.00000,34.00000,7.225887e-09,0.90920,3
225.941,147.333,      0.10696,     87.74938,50.00000,34.00000,7.230315e-09,0.90903,3
226.94,148.333,      0.10428,     87.70021,50.00000,34.00000,7.232112e-09,0.90885,3
227.943,149.333, 9.955436e-02,     87.64401,50.00000,34.00000,7.234297e-09,0.90872,3
228.939,150.333, 9.556515e-02,     87.59979,50.00000,34.00000,7.234263e-09,0.90854,3
229.946,151.333, 9.231268e-02,     87.55062,50.00000,34.00000,7.223724e-09,0.90836,3
230.938,152.333, 8.663615e-02,     87.48740,50.00000,34.00000,7.234930e-09,0.90818,3
231.933,153.333, 8.262423e-02,     87.43140,50.00000,34.00000,7.232667e-09,0.90801,3
232.936,154.333, 7.916436e-02,     87.40331,50.00000,34.00000,7.221399e-09,0.90783,3
233.943,155.333, 7.402033e-02,     87.34256,50.00000,34.00000,7.220021e-09,0.90765,3
234.936,156.333, 6.755924e-02,     87.28657,50.00000,34.00000,7.239273e-09,0.90747,3
235.93,157.333, 6.276728e-02,     87.24442,50.00000,34.00000,7.238423e-09,0.90728,3
236.928,158.333, 5.497466e-02,     87.18822,50.00000,34.00000,7.221734e-09,0.90710,3
237.925,159.333, 5.296928e-02,     87.12521,50.00000,34.00000,7.232291e-09,0.90692,3
238.936,160.333, 4.758845e-02,     87.04814,50.00000,34.00000,7.234135e-09,0.90674,3
239.936,161.333, 4.238415e-02,     87.01302,50.00000,34.00000,7.218488e-09,0.90659,3
240.924,162.333, 3.547975e-02,     86.94277,50.00000,34.00000,7.222431e-09,0.90640,3
241.932,163.333, 3.250865e-02,     86.87045,50.00000,34.00000,7.223627e-09,0.90621,3
242.933,164.333, 2.671000e-02,     86.84008,50.00000,34.00000,7.225113e-09,0.90603,3
243.933,165.333, 2.033495e-02,     86.78388,50.00000,34.00000,7.223962e-09,0.90584,3
244.925,166.333, 1.602029e-02,     86.69979,50.00000,34.00000,7.221745e-09,0.90565,3
245.927,167.333, 1.075386e-02,     86.60868,50.00000,34.00000,7.212850e-09,0.90546,3
246.944,168.333, 5.288032e-03,     86.52438,50.00000,34.00000,7.224811e-09,0.90527,3
247.948,169.333,-7.562030e-04,     86.46839,50.00000,34.00000,7.223378e-09,0.90509,3
248.929,170.333,-6.055669e-03,     86.40764,50.00000,34.00000,7.231526e-09,0.90489,3
249.936,171.333,-1.193437e-02,     86.32335,50.00000,34.00000,7.215889e-09,0.90473,3
250.927,172.333,-1.801458e-02,     86.23698,50.00000,34.00000,7.228175e-09,0.90454,3
251.928,173.333,-2.239907e-02,     86.19483,50.00000,34.00000,7.237347e-09,0.90435,3
252.942,174.333,-2.736310e-02,     86.08264,50.00000,34.00000,7.223268e-09,0.90415,3
253.928,175.333,-3.233670e-02,     86.02665,50.00000,34.00000,7.210732e-09,0.90396,3
254.932,176.333,-3.979666e-02,     85.97045,50.00000,34.00000,7.225448e-09,0.90377,3
255.928,177.333,-4.670012e-02,     85.88636,50.00000,34.00000,7.221878e-09,0.90357,3
256.931,178.333,-5.151954e-02,     85.77417,50.00000,34.00000,7.228044e-09,0.90337,3
257.93,179.333,-5.730407e-02,     85.69690,50.00000,34.00000,7.239348e-09,0.90317,3
258.935,180.333,-6.329254e-02,     85.64793,50.00000,34.00000,7.225267e-09,0.90297,3
259.919,181.333,-7.178075e-02,     85.55682,50.00000,34.00000,7.213772e-09,0.90277,3
260.921,182.333,-7.837219e-02,     85.47252,50.00000,34.00000,7.217957e-09,0.90256,3
261.939,183.333,-8.229375e-02,     85.40248,50.00000,34.00000,7.224310e-09,0.90237,3
262.921,184.333,-9.063738e-02,     85.30434,50.00000,34.00000,7.225126e-09,0.90220,3
263.935,185.333,-9.669532e-02,     85.23182,50.00000,34.00000,7.210630e-09,0.90200,3
264.935,186.333,     -0.10277,     85.11963,50.00000,34.00000,7.213520e-09,0.90179,3
265.941,187.333,     -0.11000,     85.00041,50.00000,34.00000,7.239272e-09,0.90159,3
266.941,188.333,     -0.11533,     84.92087,50.00000,34.00000,7.213381e-09,0.90139,3
267.936,189.333,     -0.12337,     84.82975,50.00000,34.00000,7.213897e-09,0.90118,3
268.945,190.333,     -0.12931,     84.74091,50.00000,34.00000,7.219122e-09,0.90098,3
269.94,191.333,     -0.13544,     84.65455,50.00000,34.00000,7.217581e-09,0.90077,3
270.94,192.333,     -0.14489,     84.54236,50.00000,34.00000,7.227698e-09,0.90056,3
271.92,193.333,     -0.15242,     84.45103,50.00000,34.00000,7.215723e-09,0.90035,3
272.923,194.333,     -0.15588,     84.37397,50.00000,34.00000,7.214890e-09,0.90013,3
273.915,195.333,     -0.16111,     84.22913,50.00000,34.00000,7.204852e-09,0.89994,3
274.916,196.333,     -0.16985,     84.14483,50.00000,34.00000,7.211079e-09,0.89976,3
275.923,197.333,     -0.17354,     84.03264,50.00000,34.00000,7.212407e-09,0.89955,3
276.936,198.333,     -0.18154,     83.93450,50.00000,34.00000,7.213316e-09,0.89934,3
277.92,199.333,     -0.18877,     83.82231,50.00000,34.00000,7.222773e-09,0.89913,3
278.928,200.333,     -0.19660,     83.71012,50.00000,34.00000,7.215962e-09,0.89892,3
279.93,201.333,     -0.20269,     83.61674,50.00000,34.00000,7.211230e-09,0.89870,3
280.926,202.333,     -0.21056,     83.51136,50.00000,34.00000,7.197330e-09,0.89849,3
281.929,203.333,     -0.21609,     83.37831,50.00000,34.00000,7.213292e-09,0.89827,3
282.93,204.333,     -0.22498,     83.25207,50.00000,34.00000,7.216694e-09,0.89806,3
283.922,205.333,     -0.23093,     83.13988,50.00000,34.00000,7.220346e-09,0.89785,3
284.924,206.333,     -0.23808,     83.05558,50.00000,34.00000,7.217304e-09,0.89766,3
285.923,207.333,     -0.24564,     82.91550,50.00000,34.00000,7.213007e-09,0.89744,3
286.922,208.333,     -0.25164,     82.77748,50.00000,34.00000,7.214165e-09,0.89723,3
287.922,209.333,     -0.25904,     82.72128,50.00000,34.00000,7.205164e-09,0.89700,3
288.904,210.333,     -0.26882,     82.56715,50.00000,34.00000,7.204477e-09,0.89678,3
289.913,211.333,     -0.27349,     82.48533,50.00000,34.00000,7.210152e-09,0.89656,3
290.915,212.333,     -0.28450,     82.34504,50.00000,34.00000,7.199894e-09,0.89634,3
291.918,213.333,     -0.28940,     82.20475,50.00000,34.00000,7.209074e-09,0.89612,3
292.912,214.333,     -0.29708,     82.09256,50.00000,34.00000,7.207004e-09,0.89590,3
293.906,215.333,     -0.30518,     82.00847,50.00000,34.00000,7.201859e-09,0.89567,3
294.913,216.333,     -0.31469,     81.85661,50.00000,34.00000,7.217490e-09,0.89545,3
295.905,217.333,     -0.32024,     81.72789,50.00000,34.00000,7.191691e-09,0.89522,3
296.909,218.333,     -0.32840,     81.58760,50.00000,34.00000,7.214208e-09,0.89499,3
297.911,219.333,     -0.33558,     81.44752,50.00000,34.00000,7.212207e-09,0.89477,3
298.918,220.333,     -0.34338,     81.35868,50.00000,34.00000,7.205237e-09,0.89458,3
299.921,221.333,     -0.35039,     81.24649,50.00000,34.00000,7.199611e-09,0.89436,3
300.915,222.333,     -0.36023,     81.10620,50.00000,34.00000,7.208643e-09,0.89413,3
301.916,223.333,     -0.36929,     80.96364,50.00000,34.00000,7.204478e-09,0.89390,3
302.919,224.333,     -0.37796,     80.85145,50.00000,34.00000,7.203496e-09,0.89366,3
303.908,225.333,     -0.38646,     80.71818,50.00000,34.00000,7.204243e-09,0.89344,3
304.901,226.333,     -0.39437,     80.57087,50.00000,34.00000,7.194634e-09,0.89321,3
305.916,227.333,     -0.40352,     80.47273,50.00000,34.00000,7.199273e-09,0.89297,3
306.905,228.333,     -0.41046,     80.33244,50.00000,34.00000,7.205142e-09,0.89274,3
307.926,229.333,     -0.41703,     80.20620,50.00000,34.00000,7.202945e-09,0.89250,3
308.921,230.333,     -0.42785,     80.07293,50.00000,34.00000,7.205163e-09,0.89228,3
309.909,231.333,     -0.43343,     79.95372,50.00000,34.00000,7.205780e-09,0.89203,3
310.93,232.333,     -0.44168,     79.81818,50.00000,34.00000,7.196222e-09,0.89184,3
311.933,233.333,     -0.45074,     79.65702,50.00000,34.00000,7.201401e-09,0.89160,3
312.932,234.333,     -0.45922,     79.54483,50.00000,34.00000,7.193651e-09,0.89137,3
313.934,235.333,     -0.46834,     79.40455,50.00000,34.00000,7.191921e-09,0.89113,3
314.922,236.333,     -0.47583,     79.27128,50.00000,34.00000,7.196241e-09,0.89090,3
315.931,237.333,     -0.48438,     79.15207,50.00000,34.00000,7.190680e-09,0.89066,3
316.936,238.333,     -0.49295,     79.01178,50.00000,34.00000,7.185114e-09,0.89042,3
317.917,239.333,     -0.50275,     78.89959,50.00000,34.00000,7.188384e-09,0.89017,3
318.917,240.333,     -0.51197,     78.78740,50.00000,34.00000,7.206989e-09,0.88994,3
319.919,241.333,     -0.51938,     78.61219,50.00000,34.00000,7.186554e-09,0.88974,3
320.92,242.333,     -0.52905,     78.47893,50.00000,34.00000,7.191271e-09,0.88949,3
321.932,243.333,     -0.53897,     78.30826,50.00000,34.00000,7.193658e-09,0.88925,3
322.921,244.333,     -0.54478,     78.19607,50.00000,34.00000,7.194032e-09,0.88901,3
323.939,245.333,     -0.55227,     78.08140,50.00000,34.00000,7.181812e-09,0.88876,3
324.932,246.333,     -0.56245,     77.94132,50.00000,34.00000,7.189364e-09,0.88852,3
325.927,247.333,     -0.56624,     77.80103,50.00000,34.00000,7.191487e-09,0.88828,3
326.926,248.333,     -0.57936,     77.64442,50.00000,34.00000,7.190370e-09,0.88804,3
327.936,249.333,     -0.58590,     77.49236,50.00000,34.00000,7.188098e-09,0.88779,3
328.921,250.333,     -0.59347,     77.34752,50.00000,34.00000,7.184497e-09,0.88754,3
329.938,251.333,     -0.60232,     77.17913,50.00000,34.00000,7.184609e-09,0.88730,3
330.929,252.333,     -0.61097,     77.03430,50.00000,34.00000,7.184888e-09,0.88705,3
331.927,253.333,     -0.62153,     76.86591,50.00000,34.00000,7.176841e-09,0.88685,3
332.919,254.333,     -0.62898,     76.75372,50.00000,34.00000,7.202196e-09,0.88659,3
333.923,255.333,     -0.63812,     76.56446,50.00000,34.00000,7.189197e-09,0.88635,3
334.919,256.333,     -0.64394,     76.39607,50.00000,34.00000,7.180188e-09,0.88610,3
335.934,257.333,     -0.65293,     76.28388,50.00000,34.00000,7.193264e-09,0.88585,3
336.938,258.333,     -0.66256,     76.11343,50.00000,34.00000,7.187150e-09,0.88559,3
337.919,259.333,     -0.67031,     75.93802,50.00000,34.00000,7.181978e-09,0.88534,3
338.925,260.333,     -0.67705,     75.74174,50.00000,34.00000,7.182043e-09,0.88509,3
339.935,261.333,     -0.69012,     75.57107,50.00000,34.00000,7.191172e-09,0.88483,3
340.932,262.333,     -0.69668,     75.34897,50.00000,34.00000,7.177885e-09,0.88462,3
341.937,263.333,     -0.70454,     75.16426,50.00000,34.00000,7.193865e-09,0.88437,3
342.922,264.333,     -0.71408,     74.98202,50.00000,34.00000,7.185017e-09,0.88411,3
343.911,265.333,     -0.72429,     74.75517,50.00000,34.00000,7.188805e-09,0.88386,3
344.909,266.333,     -0.72945,     74.52851,50.00000,34.00000,7.195483e-09,0.88360,3
345.919,267.333,     -0.73760,     74.31116,50.00000,34.00000,7.191219e-09,0.88333,3
346.917,268.333,     -0.74810,     74.05868,50.00000,34.00000,7.200131e-09,0.88308,3
347.923,269.333,     -0.75544,     73.76880,50.00000,34.00000,7.172615e-09,0.88282,3
348.925,270.333,     -0.76471,     73.51178,50.00000,34.00000,7.187371e-09,0.88256,3
349.925,271.333,     -0.77444,     73.23120,50.00000,34.00000,7.180797e-09,0.88231,3
350.911,272.333,     -0.77905,     72.94607,50.00000,34.00000,7.179068e-09,0.88204,3
351.914,273.333,     -0.78967,     72.63512,50.00000,34.00000,7.181852e-09,0.88178,3
352.92,274.333,     -0.80097,     72.26343,50.00000,34.00000,7.178886e-09,0.88152,3
353.927,275.333,     -0.80351,     71.91983,50.00000,34.00000,7.190058e-09,0.88129,3
354.924,276.333,     -0.81592,     71.58099,50.00000,34.00000,7.179704e-09,0.88103,3
355.921,277.333,     -0.82921,     71.15083,50.00000,34.00000,7.176782e-09,0.88077,3
356.91,278.333,     -0.83587,     70.69979,50.00000,34.00000,7.175406e-09,0.88050,3
357.915,279.333,     -0.84213,     70.18781,50.00000,34.00000,7.184795e-09,0.88025,3
358.93,280.333,     -0.85165,     69.69938,50.00000,34.00000,7.174302e-09,0.87997,3
359.928,281.333,     -0.86139,     69.14773,50.00000,34.00000,7.172849e-09,0.87971,3
360.919,282.333,     -0.87029,     68.54690,50.00000,34.00000,7.184934e-09,0.87944,3
361.92,283.333,     -0.87575,     67.89711,50.00000,34.00000,7.195065e-09,0.87918,3
362.921,284.333,     -0.87863,     67.19814,50.00000,34.00000,7.175200e-09,0.87891,3
363.919,285.333,     -0.88716,     66.48058,50.00000,34.00000,7.172950e-09,0.87864,3
364.921,286.333,     -0.89223,     65.61343,50.00000,34.00000,7.189607e-09,0.87836,3
365.929,287.333,     -0.89885,     64.78822,50.00000,34.00000,7.179768e-09,0.87814,3
366.909,288.333,     -0.90306,     63.78306,50.00000,34.00000,7.178133e-09,0.87787,3
367.919,289.333,     -0.91058,     62.72893,50.00000,34.00000,7.172980e-09,0.87761,3
368.919,290.333,     -0.91506,     61.59050,50.00000,34.00000,7.178534e-09,0.87733,3
369.915,291.333,     -0.92151,     60.40558,50.00000,34.00000,7.153985e-09,0.87706,3
370.905,292.333,     -0.92446,     59.06839,50.00000,34.00000,7.160486e-09,0.87678,3
371.911,293.333,     -0.92744,     57.67541,50.00000,34.00000,7.163104e-09,0.87651,3
372.918,294.333,     -0.93395,     56.14194,50.00000,34.00000,7.155993e-09,0.87624,3
373.914,295.333,     -0.93517,     54.48926,50.00000,34.00000,7.171178e-09,0.87597,3
374.93,296.333,     -0.94127,     52.73864,50.00000,34.00000,7.167125e-09,0.87568,3
375.938,297.333,     -0.94826,     50.88264,50.00000,34.00000,7.165916e-09,0.87542,3
376.921,298.333,     -0.95391,     48.83740,50.00000,34.00000,7.172037e-09,0.87513,3
377.92,299.333,     -0.95937,     46.80599,50.00000,34.00000,7.174749e-09,0.87490,3
378.917,300.333,     -0.97303,     44.65083,50.00000,34.00000,7.177620e-09,0.87464,3
379.924,301.333,     -0.98475,     42.38822,50.00000,34.00000,7.167446e-09,0.87435,3
380.927,302.333,     -0.99405,     40.07417,50.00000,34.00000,7.174915e-09,0.87407,3
381.912,303.333,     -1.00712,     37.68285,50.00000,34.00000,7.168146e-09,0.87379,3
382.923,304.333,     -1.02850,     35.21446,50.00000,34.00000,7.160986e-09,0.87352,3
383.925,305.333,     -1.04769,     32.73678,50.00000,34.00000,7.158827e-09,0.87324,3
384.929,306.333,     -1.06739,     30.21219,50.00000,34.00000,7.170990e-09,0.87296,3
385.918,307.333,     -1.09604,     27.73450,50.00000,34.00000,7.167364e-09,0.87272,3
386.919,308.333,     -1.12211,     25.22417,50.00000,34.00000,7.153561e-09,0.87244,3
387.929,309.333,     -1.15901,     22.79070,50.00000,34.00000,7.162647e-09,0.87217,3
388.908,310.333,     -1.19550,     20.39731,50.00000,34.00000,7.146734e-09,0.87189,3
389.914,311.333,     -1.23237,     18.08554,50.00000,34.00000,7.167952e-09,0.87158,3
390.933,312.333,     -1.27474,     15.93492,50.00000,34.00000,7.173110e-09,0.87131,3
391.926,313.333,     -1.31764,     13.87810,50.00000,34.00000,7.160443e-09,0.87103,3
392.923,314.333,     -1.36020,     11.95186,50.00000,34.00000,7.181239e-09,0.87074,3
393.923,315.333,     -1.40627,     10.22211,50.00000,34.00000,7.157977e-09,0.87046,3
394.927,316.333,     -1.44840,      8.63037,50.00000,34.00000,7.157442e-09,0.87017,3
395.92,317.333,     -1.49198,      7.20455,50.00000,34.00000,7.171489e-09,0.86990,3
396.921,318.333,     -1.53161,      5.88140,50.00000,34.00000,7.164454e-09,0.86960,3
397.916,319.333,     -1.57042,      4.71983,50.00000,34.00000,7.165860e-09,0.86932,3
398.928,320.333,     -1.61232,      3.64917,50.00000,34.00000,7.167148e-09,0.86907,3
399.623,321.025,     -1.63748,      2.97376,50.00000,34.00000,7.160517e-09,0.86887,4
399.697,321.1,     -1.63878,      2.92686,50.00000,34.00000,7.163551e-09,0.86884,4
399.843,321.175,     -1.60975,      2.84752,50.00000,34.00000,7.163551e-09,0.86884,4
400.045,321.25,     -1.53006,      2.79835,50.00000,34.00000,7.163212e-09,0.86878,4
400.376,321.325,     -1.37885,      2.79132,50.00000,34.00000,7.163212e-09,0.86878,4
400.833,321.4,     -1.14728,      2.81942,50.00000,34.00000,7.162069e-09,0.86874,4
401.441,321.475,     -0.84240,      2.84752,50.00000,34.00000,7.162069e-09,0.86874,4
402.202,321.55,     -0.46546,      2.87541,50.00000,34.00000,7.162069e-09,0.86874,4
403.103,321.625,-3.016930e-02,      2.91983,50.00000,34.00000,7.159345e-09,0.86870,4
404.16,321.7,      0.44952,      2.97831,50.00000,34.00000,7.159345e-09,0.86870,4
405.339,321.775,      0.95090,      3.02748,50.00000,34.00000,7.167269e-09,0.86864,4
406.633,321.85,      1.46143,      3.08347,50.00000,34.00000,7.167269e-09,0.86864,4
408.012,321.925,      1.95832,      3.11632,50.00000,34.00000,7.161900e-09,0.86859,4
409.47,322,      2.43196,      3.11632,50.00000,34.00000,7.161900e-09,0.86859,4
410.966,322.075,      2.86162,      3.11632,50.00000,34.00000,7.160510e-09,0.86854,4
412.498,322.15,      3.24225,      3.11632,50.00000,34.00000,7.160510e-09,0.86854,4
414.039,322.225,      3.56580,      3.08822,50.00000,34.00000,7.164071e-09,0.86849,4
415.559,322.3,      3.82177,      3.06012,50.00000,34.00000,7.164071e-09,0.86849,4
417.074,322.375,      4.01843,      2.99711,50.00000,34.00000,7.164071e-09,0.86849,4
418.549,322.45,      4.15312,      2.89649,50.00000,34.00000,7.161370e-09,0.86844,4
420.004,322.525,      4.22812,      2.80537,50.00000,34.00000,7.161370e-09,0.86844,4
421.401,322.6,      4.25691,      2.66983,50.00000,34.00000,7.147490e-09,0.86839,4
422.776,322.675,      4.24578,      2.57397,50.00000,34.00000,7.147490e-09,0.86839,4
424.092,322.75,      4.19500,      2.45000,50.00000,34.00000,7.150334e-09,0.86834,4
425.392,322.825,      4.12580,      2.32851,50.00000,34.00000,7.150334e-09,0.86834,4
426.652,322.9,      4.04315,      2.16963,50.00000,34.00000,7.153536e-09,0.86830,4
427.906,322.975,      3.95403,      2.05041,50.00000,34.00000,7.153536e-09,0.86830,4
429.14,323.05,      3.86757,      1.89835,50.00000,34.00000,7.153536e-09,0.86830,4
430.382,323.125,      3.78726,      1.75124,50.00000,34.00000,7.169439e-09,0.86825,4
431.611,323.2,      3.72061,      1.65537,50.00000,34.00000,7.169439e-09,0.86825,4
432.858,323.275,      3.67451,      1.46136,50.00000,34.00000,7.160802e-09,0.86821,4
434.118,323.35,      3.64666,      1.32335,50.00000,34.00000,7.160802e-09,0.86821,4
435.399,323.425,      3.64005,      1.21591,50.00000,34.00000,7.178925e-09,0.86815,4
436.713,323.5,      3.65245,      1.08740,50.00000,34.00000,7.178925e-09,0.86815,4
438.052,323.575,      3.68704,      0.94236,50.00000,34.00000,7.147752e-09,0.86810,4
439.413,323.65,      3.73409,      0.77645,50.00000,34.00000,7.147752e-09,0.86810,4
440.816,323.725,      3.79907,      0.64793,50.00000,34.00000,7.162630e-09,0.86806,4
442.225,323.8,      3.87321,      0.50992,50.00000,34.00000,7.162630e-09,0.86806,4
443.68,323.875,      3.95414,      0.34876,50.00000,34.00000,7.162630e-09,0.86806,4
445.157,323.95,      4.04032,      0.23182,50.00000,34.00000,7.157548e-09,0.86802,4
446.643,324.025,      4.12542, 7.045455e-02,50.00000,34.00000,7.157548e-09,0.86802,4
448.172,324.1,      4.20743,-9.318182e-02,50.00000,34.00000,7.157381e-09,0.86796,4
449.706,324.175,      4.28833,     -0.25682,50.00000,34.00000,7.157381e-09,0.86796,4
451.254,324.25,      4.35791,     -0.37355,50.00000,34.00000,7.157100e-09,0.86791,4
452.802,324.325,      4.41969,     -0.49979,50.00000,34.00000,7.157100e-09,0.86791,4
454.368,324.4,      4.46835,     -0.68450,50.00000,34.00000,7.156665e-09,0.86786,4
455.928,324.475,      4.50586,     -0.83409,50.00000,34.00000,7.156665e-09,0.86786,4
457.497,324.55,      4.53396,     -0.99298,50.00000,34.00000,7.156665e-09,0.86786,4
459.063,324.625,      4.54958,     -1.16364,50.00000,34.00000,7.163208e-09,0.86782,4
460.619,324.7,      4.55702,     -1.29215,50.00000,34.00000,7.163208e-09,0.86782,4
462.191,324.775,      4.55244,     -1.45124,50.00000,34.00000,7.150384e-09,0.86777,4
463.746,324.85,      4.53977,     -1.56343,50.00000,34.00000,7.150384e-09,0.86777,4
465.3,324.925,      4.52453,     -1.72934,50.00000,34.00000,7.149805e-09,0.86771,4
466.852,325,      4.50272,     -1.84628,50.00000,34.00000,7.149805e-09,0.86771,4
468.396,325.075,      4.47626,     -1.97479,50.00000,34.00000,7.153214e-09,0.86767,4
469.948,325.15,      4.45070,     -2.10331,50.00000,34.00000,7.153214e-09,0.86767,4
471.504,325.225,      4.42203,     -2.21095,50.00000,34.00000,7.153214e-09,0.86767,4
473.058,325.3,      4.39395,     -2.32066,50.00000,34.00000,7.152375e-09,0.86761,4
474.61,325.375,      4.36420,     -2.42355,50.00000,34.00000,7.152375e-09,0.86761,4
476.162,325.45,      4.33935,     -2.51715,50.00000,34.00000,7.162711e-09,0.86758,4
477.706,325.525,      4.31735,     -2.58946,50.00000,34.00000,7.162711e-09,0.86758,4
479.273,325.6,      4.29435,     -2.70413,50.00000,34.00000,7.153107e-09,0.86752,4
480.826,325.675,      4.27241,     -2.73678,50.00000,34.00000,7.153107e-09,0.86752,4
482.402,325.75,      4.25328,     -2.79752,50.00000,34.00000,7.157822e-09,0.86747,4
483.963,325.825,      4.23752,     -2.82562,50.00000,34.00000,7.157822e-09,0.86747,4
485.547,325.9,      4.22051,     -2.89112,50.00000,34.00000,7.157822e-09,0.86747,4
487.125,325.975,      4.20644,     -2.94711,50.00000,34.00000,7.151814e-09,0.86743,4
488.696,326.05,      4.19019,     -2.97521,50.00000,34.00000,7.151814e-09,0.86743,4
490.284,326.125,      4.17394,     -2.97521,50.00000,34.00000,7.158390e-09,0.86738,4
491.856,326.2,      4.15853,     -3.00331,50.00000,34.00000,7.158390e-09,0.86738,4
493.442,326.275,      4.14285,     -3.00331,50.00000,34.00000,7.165518e-09,0.86733,4
495.044,326.35,      4.12638,     -3.03140,50.00000,34.00000,7.165518e-09,0.86733,4
496.624,326.425,      4.10607,     -3.03140,50.00000,34.00000,7.168822e-09,0.86729,4
498.201,326.5,      4.08693,     -3.04525,50.00000,34.00000,7.168822e-09,0.86729,4
499.793,326.575,      4.06282,     -3.08740,50.00000,34.00000,7.168822e-09,0.86729,4
501.377,326.65,      4.04036,     -3.08740,50.00000,34.00000,7.156542e-09,0.86724,4
502.963,326.725,      4.01465,     -3.05930,50.00000,34.00000,7.156542e-09,0.86724,4
504.541,326.8,      3.98851,     -3.03140,50.00000,34.00000,7.155776e-09,0.86718,4
506.121,326.875,      3.96067,     -3.03140,50.00000,34.00000,7.155776e-09,0.86718,4
507.71,326.95,      3.93352,     -3.03140,50.00000,34.00000,7.174241e-09,0.86714,4
509.287,327.025,      3.90512,     -3.03140,50.00000,34.00000,7.174241e-09,0.86714,4
510.85,327.1,      3.87229,     -3.03140,50.00000,34.00000,7.149126e-09,0.86709,4
512.425,327.175,      3.84806,     -3.00331,50.00000,34.00000,7.149126e-09,0.86709,4
514.01,327.25,      3.81794,     -3.03140,50.00000,34.00000,7.149126e-09,0.86709,4
515.582,327.325,      3.79158,     -3.03140,50.00000,34.00000,7.161851e-09,0.86704,4
517.159,327.4,      3.76140,     -3.03140,50.00000,34.00000,7.161851e-09,0.86704,4
518.73,327.475,      3.73369,     -3.00331,50.00000,34.00000,7.153421e-09,0.86700,4
520.303,327.55,      3.70559,     -3.03140,50.00000,34.00000,7.153421e-09,0.86700,4
521.876,327.625,      3.67548,     -3.03140,50.00000,34.00000,7.156203e-09,0.86694,4
523.442,327.7,      3.64786,     -3.00331,50.00000,34.00000,7.156203e-09,0.86694,4
525.018,327.775,      3.61881,     -2.97521,50.00000,34.00000,7.156203e-09,0.86694,4
526.592,327.85,      3.59149,     -2.97521,50.00000,34.00000,7.165674e-09,0.86690,4
528.155,327.925,      3.56614,     -2.97521,50.00000,34.00000,7.165674e-09,0.86690,4
529.723,328,      3.53448,     -2.94711,50.00000,34.00000,7.163616e-09,0.86684,4
531.288,328.075,      3.50562,     -2.94711,50.00000,34.00000,7.163616e-09,0.86684,4
532.857,328.15,      3.47638,     -2.94711,50.00000,34.00000,7.159248e-09,0.86679,4
534.437,328.225,      3.44731,     -2.94711,50.00000,34.00000,7.159248e-09,0.86679,4
535.987,328.3,      3.41824,     -2.92603,50.00000,34.00000,7.169344e-09,0.86675,4
537.563,328.375,      3.38915,     -2.91901,50.00000,34.00000,7.169344e-09,0.86675,4
539.125,328.45,      3.35903,     -2.89112,50.00000,34.00000,7.169344e-09,0.86675,4
540.686,328.525,      3.32959,     -2.86302,50.00000,34.00000,7.159301e-09,0.86670,4
542.255,328.6,      3.29731,     -2.86302,50.00000,34.00000,7.159301e-09,0.86670,4
543.827,328.675,      3.26818,     -2.80227,50.00000,34.00000,7.162708e-09,0.86666,4
545.382,328.75,      3.23829,     -2.83037,50.00000,34.00000,7.162708e-09,0.86666,4
546.94,328.825,      3.20663,     -2.83037,50.00000,34.00000,7.157289e-09,0.86660,4
548.503,328.9,      3.17843,     -2.80227,50.00000,34.00000,7.157289e-09,0.86660,4
550.054,328.975,      3.14341,     -2.77417,50.00000,34.00000,7.161818e-09,0.86655,4
551.619,329.05,      3.11438,     -2.74607,50.00000,34.00000,7.161818e-09,0.86655,4
553.181,329.125,      3.08327,     -2.77417,50.00000,34.00000,7.161818e-09,0.86655,4
554.725,329.2,      3.05417,     -2.78822,50.00000,34.00000,7.164256e-09,0.86650,4
556.284,329.275,      3.02360,     -2.78822,50.00000,34.00000,7.164256e-09,0.86650,4
557.837,329.35,      2.99651,     -2.76012,50.00000,34.00000,7.159103e-09,0.86646,4
559.381,329.425,      2.96981,     -2.73202,50.00000,34.00000,7.159103e-09,0.86646,4
560.942,329.5,      2.93633,     -2.70413,50.00000,34.00000,7.157304e-09,0.86641,4
562.505,329.575,      2.90748,     -2.70413,50.00000,34.00000,7.157304e-09,0.86641,4
564.045,329.65,      2.87983,     -2.69711,50.00000,34.00000,7.154764e-09,0.86636,4
565.605,329.725,      2.85156,     -2.67603,50.00000,34.00000,7.154764e-09,0.86636,4
567.164,329.8,      2.82203,     -2.67603,50.00000,34.00000,7.154764e-09,0.86636,4
568.715,329.875,      2.79206,     -2.64091,50.00000,34.00000,7.168274e-09,0.86631,4
570.272,329.95,      2.76453,     -2.61983,50.00000,34.00000,7.168274e-09,0.86631,4
571.818,330.025,      2.73258,     -2.64091,50.00000,34.00000,7.169541e-09,0.86626,4
573.364,330.1,      2.70448,     -2.62686,50.00000,34.00000,7.169541e-09,0.86626,4
574.923,330.175,      2.67516,     -2.61281,50.00000,34.00000,7.156525e-09,0.86622,4
576.473,330.25,      2.64939,     -2.55455,50.00000,34.00000,7.156525e-09,0.86622,4
578.02,330.325,      2.61636,     -2.55455,50.00000,34.00000,7.164157e-09,0.86616,4
579.57,330.4,      2.58777,     -2.55455,50.00000,34.00000,7.164157e-09,0.86616,4
581.126,330.475,      2.55794,     -2.55455,50.00000,34.00000,7.164157e-09,0.86616,4
582.661,330.55,      2.52849,     -2.52645,50.00000,34.00000,7.166697e-09,0.86612,4
584.222,330.625,      2.49813,     -2.49835,50.00000,34.00000,7.166697e-09,0.86612,4
585.763,330.7,      2.46845,     -2.47025,50.00000,34.00000,7.153516e-09,0.86607,4
587.298,330.775,      2.43748,     -2.50062,50.00000,34.00000,7.153516e-09,0.86607,4
588.838,330.85,      2.40726,     -2.47273,50.00000,34.00000,7.169501e-09,0.86601,4
590.377,330.925,      2.37547,     -2.50062,50.00000,34.00000,7.169501e-09,0.86601,4
591.929,331,      2.34504,     -2.47273,50.00000,34.00000,7.151830e-09,0.86597,4
593.465,331.075,      2.31502,     -2.44463,50.00000,34.00000,7.151830e-09,0.86597,4
595.004,331.15,      2.28285,     -2.41653,50.00000,34.00000,7.151830e-09,0.86597,4
596.54,331.225,      2.26134,     -2.41653,50.00000,34.00000,7.158632e-09,0.86591,4
598.077,331.3,      2.23214,     -2.41653,50.00000,34.00000,7.158632e-09,0.86591,4
599.604,331.375,      2.20281,     -2.41653,50.00000,34.00000,7.160402e-09,0.86587,4
601.152,331.45,      2.17399,     -2.38843,50.00000,34.00000,7.160402e-09,0.86587,4
602.697,331.525,      2.14887,     -2.38843,50.00000,34.00000,7.171086e-09,0.86582,4
604.228,331.6,      2.12244,     -2.36054,50.00000,34.00000,7.171086e-09,0.86582,4
605.764,331.675,      2.09386,     -2.34649,50.00000,34.00000,7.159028e-09,0.86577,4
607.3,331.75,      2.06575,     -2.33244,50.00000,34.00000,7.159028e-09,0.86577,4
608.842,331.825,      2.03962,     -2.33244,50.00000,34.00000,7.159028e-09,0.86577,4
610.371,331.9,      2.01247,     -2.33244,50.00000,34.00000,7.156915e-09,0.86572,4
611.918,331.975,      1.98881,     -2.30434,50.00000,34.00000,7.156915e-09,0.86572,4
613.447,332.05,      1.96473,     -2.27624,50.00000,34.00000,7.149314e-09,0.86567,4
614.984,332.125,      1.93848,     -2.27624,50.00000,34.00000,7.149314e-09,0.86567,4
616.516,332.2,      1.91153,     -2.27624,50.00000,34.00000,7.151567e-09,0.86562,4
618.05,332.275,      1.88806,     -2.24835,50.00000,34.00000,7.151567e-09,0.86562,4
619.584,332.35,      1.86001,     -2.22025,50.00000,34.00000,7.151567e-09,0.86562,4
621.108,332.425,      1.83514,     -2.22025,50.00000,34.00000,7.153318e-09,0.86557,4
622.644,332.5,      1.80780,     -2.21777,50.00000,34.00000,7.153318e-09,0.86557,4
624.17,332.575,      1.78514,     -2.18988,50.00000,34.00000,7.147903e-09,0.86553,4
625.696,332.65,      1.75788,     -2.16178,50.00000,34.00000,7.147903e-09,0.86553,4
627.22,332.725,      1.73294,     -2.16178,50.00000,34.00000,7.155232e-09,0.86547,4
628.764,332.8,      1.71246,     -2.13368,50.00000,34.00000,7.155232e-09,0.86547,4
630.289,332.875,      1.68522,     -2.13368,50.00000,34.00000,7.156842e-09,0.86543,4
631.82,332.95,      1.66002,     -2.16178,50.00000,34.00000,7.156842e-09,0.86543,4
633.341,333.025,      1.63895,     -2.13368,50.00000,34.00000,7.156842e-09,0.86543,4
634.873,333.1,      1.61236,     -2.13368,50.00000,34.00000,7.164808e-09,0.86538,4
636.39,333.175,      1.58899,     -2.13368,50.00000,34.00000,7.164808e-09,0.86538,4
637.918,333.25,      1.56342,     -2.10558,50.00000,34.00000,7.150391e-09,0.86532,4
639.453,333.325,      1.53900,     -2.10558,50.00000,34.00000,7.150391e-09,0.86532,4
640.989,333.4,      1.51510,     -2.07769,50.00000,34.00000,7.158340e-09,0.86528,4
642.512,333.475,      1.49017,     -2.04959,50.00000,34.00000,7.158340e-09,0.86528,4
644.035,333.55,      1.47007,     -2.04959,50.00000,34.00000,7.150545e-09,0.86522,4
645.552,333.625,      1.44651,     -2.02149,50.00000,34.00000,7.150545e-09,0.86522,4
647.083,333.7,      1.41796,     -2.04959,50.00000,34.00000,7.150545e-09,0.86522,4
648.595,333.775,      1.39484,     -2.02149,50.00000,34.00000,7.158333e-09,0.86518,4
650.125,333.85,      1.37197,     -1.99339,50.00000,34.00000,7.158333e-09,0.86518,4
651.658,333.925,      1.34718,     -1.99339,50.00000,34.00000,7.160291e-09,0.86513,4
653.176,334,      1.32599,     -1.99339,50.00000,34.00000,7.160291e-09,0.86513,4
654.7,334.075,      1.29884,     -1.96550,50.00000,34.00000,7.155519e-09,0.86509,4
656.219,334.15,      1.27844,     -1.93740,50.00000,34.00000,7.155519e-09,0.86509,4
657.745,334.225,      1.25424,     -1.93740,50.00000,34.00000,7.160518e-09,0.86504,4
659.275,334.3,      1.22871,     -1.93740,50.00000,34.00000,7.160518e-09,0.86504,4
660.793,334.375,      1.20403,     -1.93740,50.00000,34.00000,7.160518e-09,0.86504,4
662.313,334.45,      1.18020,     -1.90930,50.00000,34.00000,7.144769e-09,0.86498,4
663.837,334.525,      1.15724,     -1.90930,50.00000,34.00000,7.144769e-09,0.86498,4
665.352,334.6,      1.13545,     -1.88120,50.00000,34.00000,7.151897e-09,0.86493,4
666.875,334.675,      1.11422,     -1.88120,50.00000,34.00000,7.151897e-09,0.86493,4
668.392,334.75,      1.08600,     -1.85331,50.00000,34.00000,7.151908e-09,0.86488,4
669.915,334.825,      1.06431,     -1.85331,50.00000,34.00000,7.151908e-09,0.86488,4
671.433,334.9,      1.04096,     -1.82293,50.00000,34.00000,7.164527e-09,0.86483,4
672.956,334.975,      1.01597,     -1.82293,50.00000,34.00000,7.164527e-09,0.86483,4
674.484,335.05,      0.99249,     -1.80888,50.00000,34.00000,7.164527e-09,0.86483,4
675.994,335.125,      0.96891,     -1.80888,50.00000,34.00000,7.165209e-09,0.86478,4
677.52,335.2,      0.94464,     -1.79483,50.00000,34.00000,7.165209e-09,0.86478,4
679.034,335.275,      0.91679,     -1.76674,50.00000,34.00000,7.145261e-09,0.86473,4
680.561,335.35,      0.89237,     -1.74566,50.00000,34.00000,7.145261e-09,0.86473,4
682.07,335.425,      0.86785,     -1.74566,50.00000,34.00000,7.142158e-09,0.86468,4
683.59,335.5,      0.84072,     -1.75269,50.00000,34.00000,7.142158e-09,0.86468,4
685.112,335.575,      0.81222,     -1.72459,50.00000,34.00000,7.142158e-09,0.86468,4
686.623,335.65,      0.78780,     -1.69669,50.00000,34.00000,7.153143e-09,0.86464,4
688.14,335.725,      0.75945,     -1.69669,50.00000,34.00000,7.153143e-09,0.86464,4
689.662,335.8,      0.73135,     -1.66860,50.00000,34.00000,7.145939e-09,0.86459,4
691.181,335.875,      0.70605,     -1.69669,50.00000,34.00000,7.145939e-09,0.86459,4
692.688,335.95,      0.67971,     -1.69669,50.00000,34.00000,7.147439e-09,0.86454,4
694.204,336.025,      0.65426,     -1.66860,50.00000,34.00000,7.147439e-09,0.86454,4
695.726,336.1,      0.62647,     -1.66860,50.00000,34.00000,7.162877e-09,0.86449,4
697.243,336.175,      0.60022,     -1.64050,50.00000,34.00000,7.162877e-09,0.86449,4
698.759,336.25,      0.57228,     -1.64050,50.00000,34.00000,7.162877e-09,0.86449,4
700.27,336.325,      0.54327,     -1.61240,50.00000,34.00000,7.154803e-09,0.86444,4
701.796,336.4,      0.51679,     -1.61240,50.00000,34.00000,7.154803e-09,0.86444,4
703.312,336.475,      0.48698,     -1.58450,50.00000,34.00000,7.143667e-09,0.86438,4
704.837,336.55,      0.46326,     -1.59132,50.00000,34.00000,7.143667e-09,0.86438,4
706.344,336.625,      0.42775,     -1.59132,50.00000,34.00000,7.143949e-09,0.86435,4
707.875,336.7,      0.39866,     -1.57748,50.00000,34.00000,7.143949e-09,0.86435,4
709.395,336.775,      0.37079,     -1.57748,50.00000,34.00000,7.157718e-09,0.86430,4
710.909,336.85,      0.33859,     -1.53533,50.00000,34.00000,7.157718e-09,0.86430,4
712.43,336.925,      0.31024,     -1.53533,50.00000,34.00000,7.157718e-09,0.86430,4
713.947,337,      0.27360,     -1.50723,50.00000,34.00000,7.151248e-09,0.86424,4
715.469,337.075,      0.24047,     -1.50723,50.00000,34.00000,7.151248e-09,0.86424,4
716.983,337.15,      0.20593,     -1.50723,50.00000,34.00000,7.154981e-09,0.86420,4
718.501,337.225,      0.17064,     -1.50723,50.00000,34.00000,7.154981e-09,0.86420,4
720.021,337.3,      0.13393,     -1.45124,50.00000,34.00000,7.145550e-09,0.86415,4
721.536,337.375, 9.447270e-02,     -1.45124,50.00000,34.00000,7.145550e-09,0.86415,4
723.053,337.45, 5.920927e-02,     -1.45124,50.00000,34.00000,7.149407e-09,0.86409,4
724.563,337.525, 2.384855e-02,     -1.42314,50.00000,34.00000,7.149407e-09,0.86409,4
726.077,337.6,-1.260395e-02,     -1.42314,50.00000,34.00000,7.149407e-09,0.86409,4
727.595,337.675,-5.081702e-02,     -1.39504,50.00000,34.00000,7.150863e-09,0.86404,4
729.112,337.75,-9.046491e-02,     -1.42314,50.00000,34.00000,7.150863e-09,0.86404,4
730.63,337.825,     -0.13122,     -1.39504,50.00000,34.00000,7.155567e-09,0.86399,4
732.141,337.9,     -0.17042,     -1.39504,50.00000,34.00000,7.155567e-09,0.86399,4
733.654,337.975,     -0.20805,     -1.36467,50.00000,34.00000,7.166947e-09,0.86394,4
735.166,338.05,     -0.24646,     -1.36467,50.00000,34.00000,7.166947e-09,0.86394,4
736.688,338.125,     -0.28698,     -1.36467,50.00000,34.00000,7.140540e-09,0.86389,4
738.209,338.2,     -0.32962,     -1.33657,50.00000,34.00000,7.140540e-09,0.86389,4
739.726,338.275,     -0.37372,     -1.33657,50.00000,34.00000,7.156570e-09,0.86385,4
741.248,338.35,     -0.41356,     -1.33657,50.00000,34.00000,7.156570e-09,0.86385,4
742.769,338.425,     -0.45419,     -1.30868,50.00000,34.00000,7.156570e-09,0.86385,4
744.289,338.5,     -0.50471,     -1.29463,50.00000,34.00000,7.160452e-09,0.86380,4
745.816,338.575,     -0.54962,     -1.29463,50.00000,34.00000,7.160452e-09,0.86380,4
747.341,338.65,     -0.59871,     -1.28058,50.00000,34.00000,7.152980e-09,0.86374,4
748.846,338.725,     -0.64860,     -1.25248,50.00000,34.00000,7.152980e-09,0.86374,4
750.369,338.8,     -0.69931,     -1.28058,50.00000,34.00000,7.153612e-09,0.86369,4
751.884,338.875,     -0.75117,     -1.25248,50.00000,34.00000,7.153612e-09,0.86369,4
753.401,338.95,     -0.80623,     -1.25248,50.00000,34.00000,7.153612e-09,0.86369,4
754.918,339.025,     -0.85871,     -1.22438,50.00000,34.00000,7.139381e-09,0.86365,4
756.432,339.1,     -0.91201,     -1.22438,50.00000,34.00000,7.139381e-09,0.86365,4
757.945,339.175,     -0.96511,     -1.20331,50.00000,34.00000,7.147339e-09,0.86359,4
759.462,339.25,     -1.02075,     -1.21736,50.00000,34.00000,7.147339e-09,0.86359,4
760.977,339.325,     -1.07825,     -1.19649,50.00000,34.00000,7.144671e-09,0.86355,4
762.494,339.4,     -1.13316,     -1.18946,50.00000,34.00000,7.144671e-09,0.86355,4
764.013,339.475,     -1.19199,     -1.16136,50.00000,34.00000,7.158177e-09,0.86350,4
765.533,339.55,     -1.24788,     -1.13326,50.00000,34.00000,7.158177e-09,0.86350,4
767.025,339.625,     -1.30321,     -1.13326,50.00000,34.00000,7.158177e-09,0.86350,4
768.538,339.7,     -1.36353,     -1.13326,50.00000,34.00000,7.163165e-09,0.86345,4
770.05,339.775,     -1.42056,     -1.13326,50.00000,34.00000,7.163165e-09,0.86345,4
771.566,339.85,     -1.48050,     -1.11921,50.00000,34.00000,7.148562e-09,0.86340,4
773.079,339.925,     -1.53749,     -1.07479,50.00000,34.00000,7.148562e-09,0.86340,4
774.595,340,     -1.59533,     -1.07479,50.00000,34.00000,7.151009e-09,0.86335,4
776.106,340.075,     -1.65540,     -1.07479,50.00000,34.00000,7.151009e-09,0.86335,4
777.613,340.15,     -1.71736,     -1.04669,50.00000,34.00000,7.161157e-09,0.86330,4
779.128,340.225,     -1.77323,     -1.04669,50.00000,34.00000,7.161157e-09,0.86330,4
780.638,340.3,     -1.83482,     -1.01880,50.00000,34.00000,7.161157e-09,0.86330,4
782.152,340.375,     -1.89239,     -0.99070,50.00000,34.00000,7.141133e-09,0.86325,4
783.667,340.45,     -1.95675,     -0.99070,50.00000,34.00000,7.141133e-09,0.86325,4
785.166,340.525,     -2.01637,     -1.01880,50.00000,34.00000,7.138802e-09,0.86320,4
786.686,340.6,     -2.07793,     -0.99070,50.00000,34.00000,7.138802e-09,0.86320,4
788.198,340.675,     -2.13648,     -0.99070,50.00000,34.00000,7.148474e-09,0.86315,4
789.701,340.75,     -2.19517,     -0.96260,50.00000,34.00000,            ,0.44902,4
791.214,340.825,     -2.25932,     -0.93450,50.00000,34.00000,            ,0.44841,4
792.728,340.9,     -2.31871,     -0.93450,50.00000,34.00000,            ,0.44780,4
794.233,340.975,     -2.37824,     -0.93450,50.00000,34.00000,            ,0.44720,4
794.742,341,     -2.39943,     -0.93450,50.00000,34.00000,            ,0.44699,4