File: data/TGA/005d-L_M/005h-A3-temp_104 AMU_XIC
Time	Ion Current
min	mA
0.00	1.90000e-5
0.80	1.00000e-13
1.61	1.00000e-13
2.42	1.00000e-13
3.23	2.20122e-5
4.04	2.66463e-5
4.85	1.96951e-5
5.66	2.82682e-5
6.46	2.95426e-5
7.27	1.78414e-5
8.08	4.93536e-5
8.89	2.59512e-5
9.70	2.89634e-6
10.50	1.00000e-13
11.31	2.43292e-6
12.12	6.02438e-6
12.93	1.00000e-13
13.74	4.40243e-6
14.55	1.51768e-5
15.36	2.54878e-6
16.16	1.78414e-5
16.97	1.00000e-13
17.78	4.05487e-6
18.59	1.07744e-5
19.39	3.05853e-5
20.20	1.84207e-5
21.01	1.00000e-13
21.82	1.00000e-13
22.63	1.07744e-5
23.44	3.35975e-6
24.25	1.00000e-13
25.05	7.06706e-6
25.86	1.00000e-13
26.67	8.92072e-6
27.48	1.00000e-13
28.29	1.15853e-6
29.10	1.00000e-13
29.90	1.00000e-13
30.71	3.59146e-6
31.52	1.00000e-13
32.33	1.73780e-6
33.14	1.00000e-13
33.95	5.56097e-6
34.76	1.00793e-5
35.56	1.00000e-13
36.37	1.29756e-5
37.18	1.00000e-13
37.99	1.00000e-13
38.79	5.79267e-6
39.60	7.76218e-6
40.41	1.00000e-13
41.22	2.43292e-6
42.03	2.15487e-5
42.84	3.22073e-5
43.65	1.34390e-5
44.45	1.00000e-13
45.26	1.00000e-13
46.07	1.00000e-13
46.88	1.00000e-13
47.69	1.00000e-13
48.50	6.48779e-6
49.30	1.00000e-13
50.11	1.00000e-13
50.92	3.47560e-6
51.73	1.00000e-13
52.54	1.00000e-13
53.34	2.56036e-5
54.16	1.26280e-5
54.96	8.45730e-6
55.77	1.00000e-13
56.58	1.00000e-13
57.39	4.51829e-6
58.20	1.00000e-13
59.00	1.00000e-13
59.81	2.24756e-5
60.62	1.00000e-13
61.43	3.35975e-6
62.24	1.00000e-13
63.05	1.00000e-13
63.85	6.02438e-6
64.66	1.00000e-13
65.47	1.00000e-13
66.28	1.04268e-6
67.09	1.05427e-5
67.89	1.00000e-13
68.70	1.00000e-13
69.51	1.73780e-5
70.32	1.67988e-5
71.13	1.00000e-13
71.94	1.00000e-13
72.74	5.90853e-6
73.55	1.00000e-13
74.36	2.69939e-5
75.17	1.00000e-13
75.98	1.00000e-13
76.79	1.00000e-13
77.59	1.00000e-13
78.40	1.00000e-13
79.21	1.04268e-5
80.02	1.00000e-13
80.83	1.96951e-6
81.64	1.00000e-13
82.44	6.71950e-6
83.25	3.01219e-6
84.06	7.53048e-6
84.87	1.00000e-13
85.68	1.00000e-13
86.49	1.45975e-5
87.30	6.83536e-6
88.10	1.72622e-5
88.91	1.00000e-13
89.72	1.00000e-13
90.53	1.45975e-5
91.33	1.00000e-13
92.15	6.95121e-7
92.95	1.00000e-13
93.76	4.98170e-6
94.57	1.00000e-13
95.38	1.00000e-13
96.18	1.00000e-13
96.99	1.00000e-13
97.80	1.59878e-5
98.61	1.00000e-13
99.42	1.00000e-13
100.23	4.80792e-5
101.04	3.59146e-6
101.84	1.00000e-13
102.65	1.57561e-5
103.46	3.01219e-6
104.27	1.00000e-13
105.08	1.00000e-13
105.88	1.14695e-5
106.69	1.76097e-5
107.50	1.00000e-13
108.31	1.00000e-13
109.12	1.00000e-13
109.93	1.00000e-13
110.73	1.93475e-5
111.55	1.00000e-13
112.35	1.00000e-13
113.16	6.25609e-6
113.97	2.40975e-5
114.78	3.70731e-5
115.58	1.00000e-13
116.39	1.00000e-13
117.20	1.00000e-13
118.01	7.18292e-6
118.82	1.00000e-13
119.63	1.00000e-13
120.44	1.00000e-13
121.24	1.00000e-13
122.05	1.00000e-13
122.86	1.00000e-13
123.67	1.00000e-13
124.48	1.00000e-13
125.28	1.00000e-13
126.09	1.00000e-13
126.90	6.95121e-7
127.71	1.00000e-13
128.52	1.00000e-13
129.33	1.15853e-7
130.14	1.00000e-13
130.94	1.01951e-5
131.75	1.00000e-13
132.56	1.40183e-5
133.37	9.96340e-6
134.18	6.14023e-6
134.98	1.00000e-13
135.79	2.54878e-6
136.60	2.74573e-5
137.41	1.00000e-13
138.22	1.00000e-13
139.03	1.34390e-5
139.83	1.00000e-13
140.64	1.00000e-13
141.45	1.00000e-13
142.26	1.00000e-13
143.07	1.28597e-5
143.87	1.00000e-13
144.68	1.54085e-5
145.49	1.00000e-13
146.30	2.95426e-5
147.11	1.00000e-13
147.92	1.00000e-13
148.72	1.00000e-13
149.53	1.00000e-13
150.34	1.00000e-13
151.15	1.00000e-13
151.96	7.06706e-6
152.77	1.00000e-13
153.58	1.00000e-13
154.39	1.96951e-6
155.19	7.29877e-6
156.00	4.51829e-6
156.81	1.00000e-13
157.62	7.76218e-6
158.42	1.03110e-5
159.23	1.00000e-13
160.04	1.00000e-13
160.85	4.05487e-6
161.66	7.99389e-6
162.47	2.01585e-5
163.28	1.00000e-13
164.08	1.00000e-13
164.89	1.00000e-13
165.70	2.35183e-5
166.51	1.00000e-13
167.31	1.00000e-13
168.12	1.00000e-13
168.93	1.00000e-13
169.74	1.00000e-13
170.55	1.00000e-13
171.36	4.40243e-5
172.17	1.00000e-13
172.97	1.00000e-13
173.78	1.00000e-13
174.59	1.00000e-13
175.40	1.00000e-13
176.21	1.00000e-13
177.02	1.00000e-13
177.82	4.74999e-6
178.63	1.00000e-13
179.44	1.00000e-13
180.25	1.00000e-13
181.06	3.82316e-6
181.87	1.00000e-13
182.68	5.79267e-7
183.48	2.78048e-6
184.29	1.00000e-13
185.10	1.00000e-13
185.91	1.00000e-13
186.72	1.44817e-5
187.52	1.00000e-13
188.33	1.00000e-13
189.14	1.00000e-13
189.95	1.00000e-13
190.76	1.00000e-13
191.57	1.50610e-6
192.37	1.00000e-13
193.18	1.00000e-13
193.99	1.00000e-13
194.80	1.00000e-13
195.61	1.00000e-13
196.41	1.00000e-13
197.23	8.57316e-6
198.03	1.00000e-13
198.84	1.73780e-6
199.65	1.00000e-13
200.46	1.27439e-5
201.27	1.00000e-13
202.07	1.00000e-13
202.88	1.00000e-13
203.69	1.00000e-13
204.50	1.00000e-13
205.31	1.00000e-13
206.11	1.00000e-13
206.92	1.00000e-13
207.73	5.09755e-6
208.54	1.00000e-13
209.35	1.00000e-13
210.16	1.00000e-13
210.97	1.00000e-13
211.77	1.00000e-13
212.58	1.00000e-13
213.39	1.00000e-13
214.20	1.00000e-13
215.01	1.00000e-13
215.82	1.00000e-13
216.62	1.00000e-13
217.43	1.00000e-13
218.24	1.00000e-13
219.05	1.00000e-13
219.86	1.00000e-13
220.66	1.00000e-13
221.47	1.00000e-13
222.28	1.19329e-5
223.09	8.92072e-6
223.90	1.00000e-13
224.71	1.00000e-13
225.51	1.00000e-13
226.32	1.00000e-13
227.13	1.00000e-13
227.94	1.00000e-13
228.75	1.00000e-13
229.56	1.00000e-13
230.36	1.00000e-13
231.17	1.00000e-13
231.98	1.00000e-13
232.79	1.00000e-13
233.60	1.00000e-13
234.41	1.00000e-13
235.21	1.00000e-13
236.02	1.00000e-13
236.83	1.00000e-13
237.64	1.00000e-13
238.45	3.47560e-7
239.26	1.00000e-13
240.06	1.00000e-13
240.87	1.62195e-6
241.68	1.00000e-13
242.49	1.00000e-13
243.30	1.00000e-13
244.11	1.00000e-13
244.91	3.70731e-6
245.72	1.00000e-13
246.53	1.00000e-13
247.34	1.00000e-13
248.15	1.00000e-13
248.95	1.73780e-6
249.76	1.00000e-13
250.57	1.00000e-13
251.38	1.00000e-13
252.19	1.00000e-13
253.00	1.00000e-13
253.81	1.00000e-13
254.61	1.00000e-13
255.42	4.63414e-7
256.23	1.00000e-13
257.04	1.96951e-6
257.85	1.00000e-13
258.65	1.00000e-13
259.46	1.00000e-13
260.27	1.00000e-13
261.08	1.00000e-13
261.89	3.92743e-5
262.70	1.00000e-13
263.50	1.00000e-13
264.31	1.76097e-5
265.12	1.00000e-13
265.93	1.00000e-13
266.74	1.00000e-13
267.55	1.06585e-5
268.36	1.00000e-13
269.16	1.00000e-13
269.97	1.00000e-13
270.78	1.00000e-13
271.59	1.00000e-13
272.40	1.00000e-13
273.20	1.00000e-13
274.01	1.11219e-5
274.82	1.00000e-13
275.63	1.00000e-13
276.44	1.00000e-13
277.24	1.00000e-13
278.05	1.00000e-13
278.86	1.00000e-13
279.67	1.00000e-13
280.48	1.00000e-13
281.29	1.00000e-13
282.10	1.00000e-13
282.90	1.00000e-13
283.71	3.24390e-6
284.52	1.00000e-13
285.33	1.00000e-13
286.14	1.00000e-13
286.95	1.00000e-13
287.75	1.00000e-13
288.56	1.00000e-13
289.37	1.00000e-13
290.18	1.00000e-13
290.99	6.95121e-6
291.79	1.00000e-13
292.60	1.00000e-13
293.41	1.00000e-13
294.22	5.87377e-5
295.03	1.00000e-13
295.84	5.67682e-6
296.65	1.00000e-13
297.45	1.00000e-13
298.26	1.00000e-13
299.07	1.00000e-13
299.88	4.74999e-6
300.69	1.00000e-13
301.50	5.90853e-6
302.30	1.00000e-13
303.11	1.00000e-13
303.92	1.00000e-13
304.73	1.00000e-13
305.54	1.00000e-13
306.35	1.00000e-13
307.15	1.00000e-13
307.96	1.00000e-13
308.77	1.00000e-13
309.58	3.12804e-5
310.39	1.00000e-13
311.20	5.90853e-6
312.00	1.00000e-13
312.81	1.00000e-13
313.62	1.00000e-13
314.43	1.00000e-13
315.23	1.00000e-13
316.04	1.00000e-13
316.85	1.00000e-13
317.66	1.00000e-13
318.47	1.00000e-13
319.28	1.00000e-13
320.09	1.00000e-13
320.89	1.10061e-5
321.70	1.00000e-13
322.51	4.05487e-6
323.32	1.00000e-13
324.13	1.00000e-13
324.94	1.00000e-13
325.74	9.03657e-6
326.55	1.00000e-13
327.36	1.00000e-13
328.17	1.00000e-13
328.98	1.00000e-13
329.78	1.00000e-13
330.59	1.00000e-13
331.40	4.86585e-6
332.21	1.00000e-13
333.02	1.00000e-13
333.83	1.00000e-13
334.63	1.00000e-13
335.44	9.96340e-6
336.25	1.00000e-13
337.06	1.00000e-13
337.87	1.00000e-13
338.68	1.00000e-13
339.48	1.00000e-13
340.30	1.00000e-13
341.10	1.00000e-13
341.91	1.00000e-13
342.72	1.00000e-13
343.53	1.00000e-13
344.34	1.00000e-13
345.14	1.00000e-13
345.95	1.00000e-13
346.76	1.00000e-13
347.57	1.00000e-13
348.37	1.00000e-13
349.19	8.34145e-6
349.99	1.00000e-13
350.80	1.00000e-13
351.61	1.00000e-13
352.42	1.00000e-13
353.23	1.05427e-5
354.03	1.00000e-13
354.84	1.00000e-13
355.65	1.00000e-13
356.46	1.00000e-13
357.27	3.35975e-6
358.08	1.00000e-13
358.88	1.00000e-13
359.69	1.00000e-13
360.50	1.00000e-13
361.31	1.00000e-13
362.12	1.00000e-13
362.93	1.00000e-13
363.73	1.00000e-13
364.54	1.00000e-13
365.35	1.00000e-13
366.16	1.00000e-13
366.97	1.00000e-13
367.77	1.00000e-13
368.59	1.00000e-13
369.39	1.00000e-13
370.20	2.18963e-5
371.01	1.00000e-13
371.82	1.00000e-13
372.63	6.95121e-7
373.44	1.00000e-13
374.24	1.00000e-13
375.05	1.00000e-13
375.86	1.00000e-13
376.67	1.00000e-13
377.47	1.00000e-13
378.28	1.00000e-13
379.09	1.00000e-13
379.90	1.00000e-13
380.71	1.00000e-13
381.52	2.54878e-6
382.32	1.00000e-13
383.14	1.00000e-13
383.94	1.00000e-13
384.75	1.00000e-13
385.56	1.00000e-13
386.37	1.00000e-13
387.18	1.00000e-13
387.98	1.00000e-13
388.79	1.15853e-7
389.60	1.00000e-13
390.41	1.00000e-13
391.22	1.00000e-13
392.02	8.10974e-7
392.84	1.00000e-13
393.64	1.00000e-13
394.45	1.00000e-13
395.26	1.00000e-13
396.07	1.00000e-13
396.87	1.00000e-13
397.68	1.00000e-13
398.49	1.00000e-13
399.30	1.00000e-13
400.11	4.40243e-6
400.91	1.00000e-13
401.72	1.00000e-13
402.53	5.09755e-6
403.34	1.00000e-13
404.15	1.00000e-13
404.96	1.00000e-13
405.77	1.00000e-13
406.57	1.00000e-13
407.38	1.00000e-13
408.19	1.00000e-13
409.00	1.00000e-13
409.81	1.00000e-13
410.62	1.00000e-13
411.42	1.00000e-13
412.23	1.00000e-13
413.04	1.00000e-13
413.85	1.05427e-5
414.66	1.00000e-13
415.47	1.00000e-13
416.27	1.00000e-13
417.08	1.00000e-13
417.89	2.80365e-5
418.70	1.00000e-13
419.51	1.00000e-13
420.31	1.00000e-13
421.12	1.00000e-13
421.93	5.67682e-6
422.74	1.00000e-13
423.55	1.00000e-13
424.36	1.00000e-13
425.17	1.00000e-13
425.97	1.00000e-13
426.78	1.00000e-13
427.59	1.00000e-13
428.40	1.00000e-13
429.21	1.00000e-13
430.02	1.00000e-13
430.82	1.00000e-13
431.63	1.00000e-13
432.44	1.00000e-13
433.25	1.00000e-13
434.06	1.00000e-13
434.87	1.00000e-13
435.68	1.00000e-13
436.48	1.00000e-13
437.29	1.00000e-13
438.10	7.06706e-6
438.91	2.54878e-6
439.72	1.00000e-13
440.52	1.00000e-13
441.33	1.00000e-13
442.14	1.00000e-13
442.95	1.00000e-13
443.76	1.00000e-13
444.56	1.00000e-13
445.37	1.00000e-13
446.18	1.00000e-13
446.99	1.00000e-13
447.80	1.00000e-13
448.61	1.00000e-13
449.42	1.00000e-13
450.22	1.00000e-13
451.03	1.00000e-13
451.84	1.00000e-13
452.65	1.00000e-13
453.46	1.00000e-13
454.27	1.00000e-13
455.07	1.00000e-13
455.88	1.00000e-13
456.69	1.00000e-13
457.50	1.00000e-13
458.31	1.00000e-13
459.11	1.00000e-13
459.92	1.00000e-13
460.73	1.00000e-13
461.54	1.00000e-13
462.35	1.00000e-13
463.16	1.00000e-13
463.96	1.00000e-13
464.77	1.00000e-13
465.58	1.00000e-13
466.39	1.00000e-13
467.20	1.00000e-13
468.00	1.00000e-13
468.82	1.00000e-13
469.62	1.00000e-13
470.43	1.00000e-13
471.24	1.00000e-13
472.05	1.00000e-13
472.86	1.00000e-13
473.67	1.00000e-13
474.47	1.00000e-13
475.28	1.00000e-13
476.09	1.00000e-13
476.90	1.00000e-13
477.70	1.00000e-13
478.51	1.00000e-13
479.32	1.00000e-13
480.13	1.00000e-13
480.94	1.00000e-13
481.75	1.00000e-13
482.56	1.00000e-13
483.36	1.00000e-13
484.17	1.00000e-13
484.98	1.00000e-13
485.79	1.00000e-13
486.60	1.00000e-13
487.40	1.00000e-13
488.21	1.00000e-13
489.02	1.00000e-13
489.83	1.00000e-13
490.64	1.00000e-13
491.45	1.00000e-13
492.25	1.00000e-13
493.06	2.52561e-5
493.87	1.00000e-13
494.68	1.00000e-13
495.49	1.00000e-13
496.29	1.00000e-13
497.10	1.00000e-13
497.91	1.00000e-13
498.72	1.00000e-13
499.53	3.47560e-7
500.34	1.00000e-13
501.15	1.00000e-13
501.95	1.00000e-13
502.76	1.00000e-13
503.57	1.00000e-13
504.38	1.00000e-13
505.19	1.00000e-13
505.99	1.00000e-13
506.80	1.00000e-13
507.61	1.00000e-13
508.42	1.00000e-13
509.23	3.26707e-5
510.04	1.00000e-13
510.85	1.25122e-5
511.65	1.00000e-13
512.46	1.00000e-13
513.27	1.00000e-13
514.08	1.15853e-6
514.89	1.00000e-13
515.70	1.00000e-13
516.50	1.00000e-13
517.31	1.00000e-13
518.12	1.00000e-13
518.93	1.00000e-13
519.74	1.00000e-13
520.54	1.00000e-13
521.35	1.00000e-13
522.16	1.00000e-13
522.97	1.00000e-13
523.78	1.00000e-13
524.59	1.00000e-13
525.40	1.00000e-13
526.21	1.00000e-13
527.01	1.03110e-5
527.82	1.00000e-13
528.63	1.00000e-13
529.44	1.00000e-13
530.25	1.00000e-13
531.06	5.44511e-6
531.86	1.00000e-13
532.67	1.00000e-13
533.48	1.00000e-13
534.29	1.00000e-13
535.10	1.00000e-13
535.90	1.00000e-13
536.71	1.00000e-13
537.52	1.00000e-13
538.33	1.61036e-5
539.14	1.00000e-13
539.94	1.00000e-13
540.75	1.00000e-13
541.56	1.00000e-13
542.37	1.00000e-13
543.18	1.00000e-13
543.99	1.00000e-13
544.79	1.00000e-13
545.60	1.00000e-13
546.41	1.00000e-13
547.22	1.00000e-13
548.03	3.78841e-5
548.84	1.62195e-6
549.64	1.00000e-13
550.45	1.15853e-7
551.26	1.00000e-13
552.07	1.00000e-13
552.88	1.00000e-13
553.68	1.00000e-13
554.50	1.00000e-13
555.30	1.00000e-13
556.11	1.00000e-13
556.92	1.00000e-13
557.73	1.00000e-13
558.53	1.00000e-13
559.34	1.00000e-13
560.15	1.00000e-13
560.96	1.00000e-13
561.77	1.00000e-13
562.58	1.00000e-13
563.39	1.00000e-13
564.19	1.23963e-5
565.00	1.00000e-13
565.81	1.00000e-13
566.62	1.00000e-13
567.43	1.00000e-13
568.23	1.00000e-13
569.05	1.00000e-13
569.85	1.50610e-6
570.66	1.00000e-13
571.47	1.00000e-13
572.28	1.00000e-13
573.08	1.00000e-13
573.90	1.00000e-13
574.70	1.00000e-13
575.51	1.00000e-13
576.32	1.00000e-13
577.13	1.43658e-5
577.93	1.00000e-13
578.74	1.00000e-13
579.55	1.00000e-13
580.36	5.44511e-6
581.17	1.00000e-13
581.98	1.04268e-6
582.78	4.63414e-7
583.59	1.00000e-13
584.40	3.59146e-6
585.21	1.00000e-13
586.02	1.00000e-13
586.83	1.00000e-13
587.63	5.21341e-6
588.44	1.00000e-13
589.25	1.00000e-13
590.06	1.00000e-13
590.87	8.22560e-6
591.67	1.00000e-13
592.48	1.50610e-6
593.29	1.00000e-13
594.10	1.00000e-13
594.91	1.00000e-13
595.72	1.00000e-13
596.53	1.00000e-13
597.34	1.00000e-13
598.14	1.00000e-13
598.95	1.00000e-13
599.76	1.00000e-13
600.57	1.00000e-13
601.38	1.00000e-13
602.18	1.00000e-13
602.99	1.00000e-13
603.80	1.00000e-13
604.61	1.00000e-13
605.42	1.00000e-13
606.23	7.99389e-6
607.04	1.00000e-13
607.84	1.00000e-13
608.65	1.00000e-13
609.46	1.00000e-13
610.27	1.00000e-13
611.07	1.00000e-13
611.88	1.00000e-13
612.69	1.00000e-13
613.50	1.00000e-13
614.31	1.00000e-13
615.12	1.00000e-13
615.93	1.00000e-13
616.73	5.09755e-6
617.54	1.00000e-13
618.35	1.00000e-13
619.16	1.00000e-13
619.97	1.00000e-13
620.77	1.00000e-13
621.58	1.00000e-13
622.39	1.00000e-13
623.20	5.44511e-6
624.01	1.00000e-13
624.82	1.00000e-13
625.62	1.00000e-13
626.43	1.00000e-13
627.24	1.00000e-13
628.05	1.00000e-13
628.86	1.00000e-13
629.67	1.00000e-13
630.47	1.00000e-13
631.28	1.00000e-13
632.09	1.00000e-13
632.90	1.00000e-13
633.71	1.00000e-13
634.52	1.00000e-13
635.33	1.00000e-13
636.13	1.00000e-13
636.94	1.00000e-13
637.75	1.00000e-13
638.56	1.00000e-13
639.37	1.00000e-13
640.17	1.00000e-13
640.98	1.00000e-13
641.79	1.00000e-13
642.60	1.00000e-13
643.41	1.00000e-13
644.22	1.00000e-13
645.02	1.00000e-13
645.83	1.00000e-13
646.64	1.00000e-13
647.45	1.00000e-13
648.26	1.00000e-13
649.06	1.00000e-13
649.87	1.00000e-13
650.68	1.00000e-13
651.49	8.68901e-6
652.30	1.00000e-13
653.11	1.00000e-13
653.91	1.00000e-13
654.72	1.00000e-13
655.53	1.00000e-13
656.34	1.00000e-13
657.15	1.00000e-13
657.96	1.00000e-13
658.76	1.00000e-13
659.57	1.00000e-13
660.38	1.00000e-13
661.19	1.00000e-13
662.00	1.00000e-13
662.81	1.00000e-13
663.61	1.00000e-13
664.42	2.54878e-6
665.23	1.00000e-13
666.04	1.00000e-13
666.85	1.00000e-13
667.66	1.00000e-13
668.46	1.00000e-13
669.27	1.00000e-13
670.08	1.00000e-13
670.89	1.00000e-13
671.70	1.00000e-13
672.50	1.00000e-13
673.32	1.00000e-13
674.12	1.00000e-13
674.93	1.00000e-13
675.74	1.00000e-13
676.55	1.00000e-13
677.36	1.00000e-13
678.16	1.00000e-13
678.97	1.00000e-13
679.78	1.00000e-13
680.59	2.34024e-5
681.40	1.00000e-13
682.21	1.00000e-13
683.01	1.00000e-13
683.82	1.00000e-13
684.63	3.35975e-6
685.44	1.00000e-13
686.25	1.00000e-13
687.06	2.78048e-6
687.87	1.00000e-13
688.67	1.00000e-13
689.48	1.00000e-13
690.29	1.00000e-13
691.10	1.00000e-13
691.90	1.00000e-13
692.71	1.00000e-13
693.52	1.00000e-13
694.33	1.85366e-6
695.14	1.00000e-13
695.95	1.00000e-13
696.76	1.00000e-13
697.56	1.00000e-13
698.37	1.00000e-13
699.18	1.00000e-13
699.99	1.00000e-13
700.80	4.51829e-6
701.60	1.00000e-13
702.41	1.00000e-13
703.22	1.00000e-13
704.03	1.00000e-13
704.84	1.00000e-13
705.65	1.00000e-13
706.45	1.00000e-13
707.26	1.00000e-13
708.07	1.00000e-13
708.88	1.00000e-13
709.69	1.00000e-13
710.50	1.00000e-13
711.30	1.00000e-13
712.12	1.00000e-13
712.92	8.45730e-6
713.73	1.00000e-13
714.54	1.00000e-13
715.35	1.00000e-13
716.16	1.85366e-6
716.96	1.00000e-13
717.77	4.28658e-6
718.58	1.00000e-13
719.39	4.17073e-6
720.20	1.00000e-13
721.01	1.23963e-5
721.81	1.00000e-13
722.62	1.00000e-13
723.43	1.00000e-13
724.24	1.00000e-13
725.05	1.00000e-13
725.85	1.00000e-13
726.66	1.00000e-13
727.47	1.00000e-13
728.28	1.00000e-13
729.09	1.00000e-13
729.89	1.00000e-13
730.70	1.00000e-13
731.51	1.00000e-13
732.32	1.00000e-13
733.13	1.00000e-13
733.94	1.00000e-13
734.75	1.00000e-13
735.56	1.00000e-13
736.36	1.00000e-13
737.17	1.00000e-13
737.98	1.00000e-13
738.79	1.00000e-13
739.59	1.00000e-13
740.41	1.00000e-13
741.21	1.00000e-13
742.02	1.00000e-13
742.83	1.00000e-13
743.64	1.00000e-13
744.44	1.00000e-13
745.25	1.00000e-13
746.06	1.00000e-13
746.87	1.00000e-13
747.68	1.00000e-13
748.49	1.00000e-13
749.29	1.00000e-13
750.11	1.00000e-13
750.91	1.00000e-13
751.72	1.00000e-13
752.53	1.00000e-13
753.34	4.63414e-7
754.14	1.00000e-13
754.95	1.00000e-13
755.76	1.00000e-13
756.57	1.00000e-13
757.38	1.00000e-13
758.19	1.00000e-13
758.99	1.00000e-13
759.80	1.00000e-13
760.61	1.00000e-13
761.42	1.00000e-13
762.23	1.00000e-13
763.04	1.00000e-13
763.84	1.00000e-13
764.65	1.00000e-13
765.46	1.00000e-13
766.27	1.00000e-13
767.08	1.00000e-13
767.89	1.00000e-13
768.69	1.00000e-13
769.50	1.00000e-13
770.31	1.00000e-13
771.12	1.00000e-13
771.93	1.00000e-13
772.74	1.00000e-13
773.54	1.00000e-13
774.35	3.47560e-6
775.16	5.67682e-6
775.97	1.00000e-13
776.78	3.35975e-6
777.58	1.00000e-13
778.39	1.00000e-13
779.20	1.00000e-13
780.01	1.00000e-13
780.82	1.00000e-13
781.63	1.00000e-13
782.44	6.83536e-6
783.24	7.99389e-6
784.05	1.00000e-13
784.86	1.00000e-13
785.67	1.00000e-13
786.48	1.00000e-13
787.29	1.00000e-13
788.10	1.00000e-13
788.90	1.00000e-13
789.71	1.00000e-13
790.52	1.00000e-13
791.33	1.00000e-13
792.13	1.10061e-5
792.94	1.00000e-13
793.75	1.00000e-13
794.56	1.00000e-13
795.37	1.00000e-13
796.18	1.00000e-13
796.98	1.00000e-13
797.79	1.00000e-13
798.60	1.00000e-13
799.41	1.00000e-13
800.22	1.00000e-13
801.03	1.00000e-13
801.84	1.00000e-13
802.64	1.00000e-13
803.45	1.00000e-13
804.26	1.00000e-13
805.07	1.62195e-6
805.88	1.00000e-13
806.68	1.00000e-13
807.49	1.00000e-13
808.30	1.00000e-13
809.11	1.00000e-13
809.92	1.00000e-13
810.73	1.00000e-13
811.53	1.00000e-13
812.34	1.00000e-13
813.15	1.00000e-13
813.96	5.67682e-6
814.77	1.00000e-13
815.58	1.00000e-13
816.39	1.00000e-13
817.19	1.00000e-13
818.00	1.00000e-13
818.81	1.00000e-13
819.62	1.00000e-13
820.43	1.00000e-13
821.23	1.00000e-13
822.04	1.00000e-13
822.85	1.00000e-13
823.66	1.00000e-13
824.47	1.00000e-13
825.28	1.00000e-13
826.09	1.00000e-13
826.89	1.00000e-13
827.70	1.00000e-13
828.51	1.00000e-13
829.32	1.00000e-13
830.13	1.00000e-13
830.93	1.00000e-13
831.74	1.00000e-13
832.55	1.00000e-13
833.36	1.00000e-13
834.17	1.00000e-13
834.98	1.00000e-13
835.78	1.00000e-13
836.59	1.00000e-13
837.40	1.00000e-13
838.21	1.00000e-13
839.02	1.00000e-13
839.83	1.00000e-13
840.63	1.00000e-13
841.44	1.00000e-13
842.25	1.00000e-13
843.06	1.00000e-13
843.87	1.00000e-13
844.67	1.00000e-13
845.48	1.00000e-13
846.29	1.00000e-13
847.10	1.00000e-13
847.91	1.00000e-13
848.72	1.00000e-13
849.52	1.00000e-13
850.33	1.00000e-13
851.14	1.00000e-13
851.95	1.00000e-13
852.76	1.00000e-13
853.57	1.00000e-13
854.37	1.00000e-13
855.18	1.00000e-13
855.99	1.37866e-5
856.80	1.00000e-13
857.61	1.00000e-13
858.42	1.00000e-13
859.22	1.00000e-13
860.03	1.00000e-13
860.84	1.00000e-13
861.65	1.00000e-13
862.46	1.00000e-13
863.27	3.12804e-6
864.07	1.00000e-13
864.88	1.00000e-13
865.69	4.40243e-6
866.50	1.00000e-13
867.31	1.00000e-13
868.11	1.00000e-13
868.92	1.00000e-13
869.73	1.06585e-5
870.54	1.00000e-13
871.35	1.00000e-13
872.16	1.00000e-13
872.96	1.00000e-13
873.77	1.00000e-13
874.58	1.00000e-13
875.39	1.00000e-13
876.20	1.00000e-13
877.01	1.00000e-13
877.81	1.00000e-13
878.62	1.00000e-13
879.43	1.00000e-13
880.24	1.00000e-13
881.05	1.00000e-13
881.86	1.00000e-13
882.67	1.00000e-13
883.47	1.00000e-13
884.28	1.00000e-13
885.09	1.00000e-13
885.90	1.00000e-13
886.71	1.00000e-13
887.51	1.00000e-13
888.32	1.00000e-13
889.13	1.00000e-13
889.94	1.00000e-13
890.75	1.00000e-13
891.56	1.00000e-13
892.36	1.00000e-13
893.17	1.00000e-13
893.98	1.00000e-13
894.79	1.00000e-13
895.60	1.00000e-13
896.41	1.00000e-13
897.21	1.00000e-13
898.02	1.00000e-13
898.83	1.00000e-13
899.64	1.00000e-13
900.45	1.00000e-13
901.26	1.00000e-13
902.06	1.00000e-13
902.87	1.00000e-13
903.68	1.00000e-13
904.49	1.00000e-13
905.30	1.00000e-13
906.11	1.00000e-13
906.91	1.00000e-13
907.72	1.00000e-13
908.53	1.00000e-13
909.34	1.00000e-13
910.15	1.00000e-13
910.96	1.00000e-13
911.76	1.00000e-13
912.57	1.00000e-13
913.38	1.00000e-13
914.19	2.54878e-6
915.00	2.20122e-6
915.80	1.00000e-13
916.62	1.00000e-13
917.42	1.00000e-13
918.23	1.00000e-13
919.04	1.00000e-13
919.85	1.00000e-13
920.66	1.00000e-13
921.46	1.00000e-13
922.27	1.74939e-5
923.08	1.00000e-13
923.89	1.00000e-13
924.70	1.00000e-13
925.50	1.00000e-13
926.31	1.00000e-13
927.12	1.00000e-13
927.93	1.00000e-13
928.74	1.00000e-13
929.55	1.00000e-13
930.35	1.00000e-13
931.16	1.00000e-13
931.97	1.00000e-13
932.78	1.15853e-6
933.59	1.00000e-13
934.40	1.00000e-13
935.21	1.00000e-13
936.01	1.00000e-13
936.82	1.00000e-13
937.63	1.00000e-13
938.44	1.00000e-13
939.25	1.00000e-13
940.06	1.00000e-13
940.86	1.00000e-13
941.67	5.79267e-7
942.48	1.00000e-13
943.29	1.00000e-13
944.10	1.00000e-13
944.91	1.00000e-13
945.71	1.00000e-13
946.52	1.00000e-13
947.33	1.00000e-13
948.14	1.00000e-13
948.95	1.00000e-13
949.75	1.00000e-13
950.56	1.00000e-13
951.37	1.00000e-13
952.18	1.00000e-13
952.99	1.00000e-13
953.80	1.00000e-13
954.60	1.00000e-13
955.41	8.68901e-6
956.22	1.00000e-13
957.03	1.00000e-13
957.84	1.00000e-13
958.65	1.00000e-13
959.45	1.37866e-5
960.26	1.00000e-13
961.07	1.00000e-13
961.88	1.00000e-13
962.69	1.00000e-13
963.50	1.00000e-13
964.31	3.47560e-7
965.11	2.20122e-6
965.92	1.00000e-13
966.73	1.00000e-13
967.54	1.00000e-13
968.35	1.00000e-13
969.15	1.00000e-13
969.96	1.00000e-13
970.77	1.00000e-13
971.58	1.00000e-13
972.39	1.00000e-13
973.20	1.00000e-13
974.00	1.00000e-13
974.81	1.00000e-13
975.62	1.00000e-13
976.43	1.00000e-13
977.24	1.00000e-13
978.04	1.00000e-13
978.85	1.00000e-13
979.66	1.00000e-13
980.47	1.00000e-13
981.28	1.00000e-13
982.09	1.00000e-13
982.90	1.00000e-13
983.70	1.00000e-13
984.51	1.00000e-13
985.32	1.00000e-13
986.13	1.00000e-13
986.94	1.00000e-13
987.74	1.00000e-13
988.55	1.00000e-13
989.36	1.00000e-13
990.17	1.00000e-13
990.98	1.00000e-13
991.79	1.00000e-13
992.59	1.00000e-13
993.40	1.00000e-13
994.21	1.00000e-13
995.02	1.00000e-13
995.83	1.00000e-13
996.64	1.00000e-13
997.44	1.00000e-13
998.25	1.00000e-13
999.06	1.00000e-13
999.87	1.00000e-13
1000.68	1.00000e-13
1001.49	1.00000e-13
1002.29	1.00000e-13
1003.10	1.00000e-13
1003.91	1.00000e-13
1004.72	1.00000e-13
1005.53	1.00000e-13
1006.34	1.00000e-13
1007.14	1.00000e-13
1007.95	4.28658e-6
1008.76	1.00000e-13
1009.57	1.00000e-13
1010.38	1.00000e-13
1011.19	1.00000e-13
1011.99	1.00000e-13
1012.80	1.00000e-13
1013.61	1.00000e-13
1014.42	1.00000e-13
1015.23	1.00000e-13
1016.04	1.00000e-13
1016.85	1.00000e-13
1017.65	1.00000e-13
1018.46	1.00000e-13
1019.27	1.00000e-13
1020.08	1.00000e-13
1020.89	1.00000e-13
1021.69	1.00000e-13
1022.50	5.09755e-6
1023.31	1.00000e-13
1024.12	1.00000e-13
1024.93	2.42134e-5
1025.74	1.00000e-13
1026.54	1.00000e-13
1027.35	1.00000e-13
1028.16	1.00000e-13
1028.97	1.00000e-13
1029.78	1.00000e-13
1030.58	1.00000e-13
1031.39	1.00000e-13
1032.20	1.00000e-13
1033.01	1.00000e-13
1033.82	1.00000e-13
1034.63	1.00000e-13
1035.43	1.00000e-13
1036.25	1.00000e-13
1037.05	1.00000e-13
1037.86	1.00000e-13
1038.67	1.73780e-6
1039.48	1.00000e-13
1040.28	1.00000e-13
1041.09	1.00000e-13
1041.90	1.00000e-13
1042.71	1.00000e-13
1043.52	1.00000e-13
1044.33	1.00000e-13
1045.14	1.00000e-13
1045.94	1.00000e-13
1046.75	1.00000e-13
1047.56	1.00000e-13
1048.37	1.00000e-13
1049.18	1.00000e-13
1049.98	1.00000e-13
1050.79	1.00000e-13
1051.60	1.00000e-13
1052.41	1.00000e-13
1053.22	1.00000e-13
1054.03	1.00000e-13
1054.83	1.00000e-13
1055.64	1.00000e-13
1056.45	1.00000e-13
1057.26	1.00000e-13
1058.07	1.00000e-13
1058.87	1.00000e-13
1059.69	1.00000e-13
1060.49	1.00000e-13
1061.30	1.00000e-13
1062.11	1.00000e-13
1062.92	1.00000e-13
1063.73	1.00000e-13
1064.53	1.06585e-5
1065.34	1.00000e-13
1066.15	1.00000e-13
1066.96	1.00000e-13
1067.77	1.00000e-13
1068.58	1.00000e-13
1069.38	1.00000e-13
1070.19	1.00000e-13
1071.00	1.00000e-13
1071.81	5.21341e-6
1072.62	1.00000e-13
1073.42	1.00000e-13
1074.23	1.00000e-13
1075.04	1.00000e-13
1075.85	1.00000e-13
1076.66	1.00000e-13
1077.47	1.00000e-13
1078.27	1.00000e-13
1079.08	1.00000e-13
1079.89	1.00000e-13
1080.70	1.00000e-13
1081.51	1.00000e-13
1082.32	1.00000e-13
1083.12	1.00000e-13
1083.93	1.00000e-13
1084.74	1.00000e-13
1085.55	1.00000e-13
1086.36	1.00000e-13
1087.17	1.00000e-13
1087.98	1.00000e-13
1088.78	1.00000e-13
1089.59	1.00000e-13
1090.40	1.00000e-13
1091.21	1.00000e-13
1092.02	1.00000e-13
1092.82	1.00000e-13
1093.63	1.00000e-13
1094.44	1.00000e-13
1095.25	1.00000e-13
1096.06	1.00000e-13
1096.86	1.00000e-13
1097.67	1.00000e-13
1098.48	1.00000e-13
1099.29	1.00000e-13
1100.10	1.00000e-13
1100.91	1.00000e-13
1101.71	1.00000e-13
1102.52	1.00000e-13
1103.33	1.00000e-13
1104.14	1.00000e-13
1104.95	1.00000e-13
1105.76	1.00000e-13
1106.57	1.00000e-13
1107.37	1.00000e-13
1108.18	1.00000e-13
1108.99	1.00000e-13
1109.80	1.00000e-13
1110.61	1.00000e-13
1111.41	1.00000e-13
1112.22	1.00000e-13
1113.03	1.00000e-13
1113.84	1.00000e-13
1114.65	1.00000e-13
1115.46	1.00000e-13
1116.27	1.00000e-13
1117.07	1.00000e-13
1117.88	1.00000e-13
1118.69	1.00000e-13
1119.50	1.00000e-13
1120.31	1.39024e-6
1121.11	1.00000e-13
1121.92	1.00000e-13
1122.73	1.00000e-13
1123.54	1.00000e-13
1124.35	1.00000e-13
1125.16	1.00000e-13
1125.96	1.00000e-13
1126.77	1.00000e-13
1127.58	1.00000e-13
1128.39	1.00000e-13
1129.20	4.86585e-6
1130.01	1.00000e-13
1130.81	1.00000e-13
1131.62	6.25609e-6
1132.43	1.00000e-13
1133.24	1.00000e-13
1134.05	1.00000e-13
1134.85	1.00000e-13
1135.66	1.00000e-13
1136.47	1.00000e-13
1137.28	1.00000e-13
1138.09	1.00000e-13
1138.90	1.00000e-13
1139.71	1.00000e-13
1140.52	1.00000e-13
1141.32	1.00000e-13
1142.13	1.00000e-13
1142.94	1.00000e-13
1143.75	1.00000e-13
1144.55	1.00000e-13
1145.37	1.00000e-13
1146.17	1.00000e-13
1146.98	1.00000e-13
1147.79	1.00000e-13
1148.60	1.00000e-13
1149.40	1.00000e-13
1150.22	1.00000e-13
1151.02	1.00000e-13
1151.83	1.00000e-13
1152.64	1.00000e-13
1153.45	1.00000e-13
1153.61	1.00000e-13