File: data/TGA/005d-L_M/005h-A3.txt
Filename	A3
Instrument name
Operator	Gwenael
rundate	2025-02-24
Sample name	A3
[step]
Step 1
Time	Temperature	Weight	Weight	Deriv. Weight
min	°C	mg	%	% / °C
0.01	26.51	2.223	100.023	-1.39564e-3
0.96	27.63	2.227	100.240	-1.80234e-3
1.96	29.39	2.228	100.257	-2.28283e-3
2.96	32.68	2.228	100.273	-2.64703e-3
3.96	37.19	2.228	100.273	-3.17446e-3
4.96	42.25	2.228	100.253	-4.00080e-3
5.96	47.35	2.227	100.217	-5.42165e-3
6.96	52.28	2.227	100.226	-7.89090e-3
7.96	57.03	2.226	100.167	-0.0117689
8.96	61.71	2.226	100.174	-0.0177276
9.96	66.43	2.225	100.126	-0.0250104
10.96	71.24	2.224	100.101	-0.0331278
11.96	76.15	2.223	100.067	-0.0421023
12.96	81.16	2.221	99.977	-0.0519425
13.96	86.21	2.218	99.805	-0.0627547
14.96	91.28	2.210	99.461	-0.0746296
15.96	96.31	2.197	98.889	-0.0879408
16.96	100.19	2.183	98.239	-0.103228
17.96	102.28	2.170	97.657	-0.121099
18.96	103.00	2.160	97.222	-0.143012
19.96	102.89	2.152	96.841	-0.167738
20.96	102.39	2.145	96.527	-0.184611
21.96	101.74	2.139	96.261	-0.172322
22.96	101.09	2.134	96.062	-0.130430
23.96	100.50	2.131	95.896	-0.0902754
24.96	100.06	2.128	95.780	-0.0662130
25.96	100.69	2.127	95.733	-0.0528610
26.96	103.46	2.125	95.648	-0.0442232
27.96	107.73	2.122	95.519	-0.0378942
28.96	112.52	2.118	95.316	-0.0330913
29.96	117.32	2.113	95.117	-0.0293578
30.96	122.05	2.110	94.967	-0.0264930
31.96	126.80	2.108	94.891	-0.0241069
32.96	131.64	2.106	94.790	-0.0219895
33.96	136.57	2.104	94.693	-0.0200341
34.96	141.58	2.102	94.610	-0.0177397
35.96	146.62	2.100	94.518	-0.0153117
36.96	151.68	2.098	94.421	-0.0129443
37.96	156.75	2.097	94.365	-0.0109372
38.96	161.80	2.095	94.278	-9.35393e-3
39.96	166.84	2.095	94.268	-7.98262e-3
40.96	171.86	2.094	94.252	-6.70648e-3
41.96	176.86	2.094	94.233	-5.61086e-3
42.96	181.87	2.095	94.269	-4.63815e-3
43.96	186.88	2.094	94.253	-3.86400e-3
44.96	191.89	2.094	94.234	-3.31839e-3
45.96	196.89	2.093	94.207	-3.02459e-3
46.96	201.89	2.093	94.197	-2.94456e-3
47.96	206.88	2.093	94.174	-3.07194e-3
48.96	211.88	2.092	94.167	-3.27380e-3
49.96	216.88	2.092	94.130	-3.51252e-3
50.96	221.89	2.091	94.126	-3.73616e-3
51.96	226.90	2.091	94.110	-3.80733e-3
52.96	231.91	2.091	94.085	-3.90493e-3
53.96	236.92	2.090	94.073	-4.03120e-3
54.96	241.93	2.090	94.041	-4.18825e-3
55.96	246.94	2.089	94.030	-4.39638e-3
56.96	251.95	2.089	94.016	-4.67054e-3
57.96	256.96	2.088	93.975	-5.03776e-3
58.96	261.97	2.088	93.952	-5.59105e-3
59.96	266.97	2.087	93.930	-6.25181e-3
60.96	271.98	2.087	93.912	-7.03242e-3
61.96	276.99	2.086	93.875	-7.95844e-3
62.96	282.00	2.085	93.838	-9.03720e-3
63.96	287.01	2.084	93.808	-0.0103133
64.96	292.03	2.084	93.768	-0.0117728
65.96	296.78	2.082	93.702	-0.0134671
66.96	299.70	2.081	93.642	-0.0156113
67.96	301.12	2.079	93.579	-0.0182015
68.96	301.80	2.078	93.515	-0.0214811
69.96	301.89	2.077	93.458	-0.0256368
70.96	301.57	2.076	93.408	-0.0312665
71.96	301.05	2.074	93.359	-0.0375186
72.96	300.51	2.073	93.313	-0.0398544
73.96	300.08	2.072	93.258	0.0156646
74.96	299.80	2.071	93.217	0.186809
75.96	299.67	2.070	93.165	0.234538
76.96	299.67	2.069	93.127	0.227279
77.96	299.74	2.068	93.070	0.226087
78.96	299.84	2.067	93.023	0.230740
79.96	299.94	2.066	92.974	0.187141
80.96	300.02	2.065	92.929	-0.160994
81.96	300.06	2.064	92.887	-0.978960
82.96	300.07	2.063	92.829	-1.24656
83.96	300.07	2.062	92.795	-1.20566
84.96	300.05	2.060	92.728	-1.19472
85.96	300.03	2.059	92.685	-1.13569
86.96	300.01	2.058	92.635	-0.405611
87.96	299.99	2.057	92.578	2.92240
88.96	299.99	2.056	92.524	6.31280
89.96	299.99	2.055	92.482	6.53899
90.96	299.99	2.054	92.430	6.43089
91.96	299.99	2.053	92.378	6.62172
92.96	300.00	2.052	92.330	6.16209
93.96	300.00	2.050	92.267	-0.259606
94.96	300.00	2.049	92.222	-23.0082
95.96	300.00	2.048	92.173	-36.7695
96.96	300.00	2.047	92.121	-35.4739
97.96	300.00	2.046	92.064	-34.6470
98.96	300.00	2.045	92.017	-30.9071
99.96	300.00	2.043	91.958	-17.6588
100.96	300.00	2.042	91.914	57.6778
101.96	300.00	2.041	91.865	136.294
102.96	300.00	2.040	91.822	145.047
103.96	300.00	2.039	91.771	145.848
104.96	300.00	2.037	91.694	128.382
105.96	300.00	2.036	91.642	96.2719
106.96	300.00	2.036	91.611	46.3421
107.96	300.00	2.034	91.555	46.9990
108.96	300.00	2.033	91.494	11.8635
109.96	300.00	2.032	91.443	-73.0087
110.96	300.00	2.031	91.388	-113.470
111.96	300.00	2.029	91.331	-107.629
112.96	300.00	2.028	91.287	-68.6877
113.96	300.00	2.027	91.231	-15.1319
114.96	300.00	2.026	91.177	32.4977
115.96	300.00	2.025	91.115	40.0891
116.96	300.00	2.024	91.071	35.7708
117.96	300.00	2.022	91.015	38.4496
118.96	300.00	2.021	90.961	85.1001
119.96	300.00	2.020	90.916	122.370
120.96	300.00	2.019	90.860	138.692
121.96	300.00	2.018	90.809	137.005
122.96	300.00	2.017	90.765	135.468
123.96	300.00	2.015	90.700	134.940
124.96	300.00	2.014	90.646	136.744
125.96	300.00	2.013	90.598	95.9845
126.96	300.00	2.011	90.520	31.4243
127.96	300.00	2.011	90.499	-46.5224
128.96	300.00	2.010	90.453	-89.9269
129.96	300.00	2.008	90.371	-106.716
130.96	300.00	2.008	90.354	-108.477
131.96	300.00	2.006	90.301	-97.0616
132.96	300.00	2.005	90.234	-86.0374
133.96	300.00	2.004	90.181	-89.6975
134.96	300.00	2.003	90.132	-70.6502
135.96	300.00	2.002	90.077	-39.2122
136.96	300.00	2.000	90.004	-40.5022
137.96	300.00	1.999	89.980	-36.4257
138.96	300.00	1.998	89.920	-24.1708
139.96	300.00	1.997	89.874	-33.1075
140.96	300.00	1.996	89.816	8.29596
141.96	300.00	1.995	89.772	14.7717
142.96	300.00	1.994	89.725	11.9911
143.96	300.00	1.993	89.672	24.4063
144.96	300.00	1.991	89.619	28.2920
145.96	300.00	1.990	89.559	33.9304
146.96	300.00	1.989	89.526	25.5539
147.96	300.00	1.988	89.463	3.30373
148.96	300.00	1.987	89.415	-24.7034
149.96	300.00	1.985	89.354	-28.5669
150.96	300.00	1.985	89.313	-53.4714
151.96	300.00	1.983	89.264	-31.5182
152.96	300.00	1.983	89.229	-0.649395
153.96	300.00	1.982	89.177	8.67916
154.96	300.00	1.980	89.123	36.9221
155.96	300.00	1.979	89.053	51.6528
156.96	300.00	1.978	89.012	36.7360
157.96	300.00	1.977	88.971	17.9829
158.96	300.00	1.976	88.931	6.46872
159.96	300.00	1.975	88.868	-4.35113
160.96	300.00	1.974	88.849	-22.6446
161.96	300.00	1.973	88.790	-18.8247
162.96	300.00	1.972	88.727	15.9900
163.96	300.00	1.970	88.680	46.5968
164.96	300.00	1.969	88.635	65.6658
165.96	300.00	1.968	88.586	69.0555
166.96	300.00	1.967	88.540	70.6556
167.96	300.00	1.966	88.483	51.3740
168.96	300.00	1.965	88.436	55.5513
169.96	300.00	1.964	88.383	50.3054
170.96	300.00	1.963	88.358	32.9041
171.96	300.00	1.962	88.300	32.9374
172.96	300.00	1.961	88.247	27.0925
173.96	300.00	1.960	88.209	19.5562
174.96	300.00	1.959	88.158	-1.83586
175.96	300.00	1.958	88.117	-5.97858
176.96	300.00	1.957	88.065	-29.5313
177.96	300.00	1.955	88.005	-74.2279
178.96	300.00	1.954	87.946	-98.0033
179.96	300.00	1.954	87.921	-87.3568
180.96	300.00	1.953	87.902	-90.3447
181.96	300.00	1.952	87.829	-71.0603
182.96	300.00	1.951	87.790	-66.0160
183.96	300.00	1.950	87.742	-63.5222
184.96	300.00	1.948	87.685	-67.9073
185.96	300.00	1.948	87.665	-43.7542
186.96	300.00	1.947	87.603	13.6192
187.96	300.00	1.946	87.565	30.3053
188.96	300.00	1.945	87.513	41.4511
189.96	300.00	1.944	87.469	61.6271
190.96	300.00	1.943	87.425	69.9445
191.96	300.00	1.942	87.383	75.9913
192.96	300.00	1.941	87.344	86.6103
193.96	300.00	1.940	87.303	90.9361
194.96	300.00	1.938	87.239	87.4706
195.96	300.00	1.938	87.200	98.9040
196.96	300.00	1.937	87.158	92.4819
197.96	300.00	1.936	87.119	88.9220
198.96	300.00	1.935	87.097	70.3124
199.96	300.00	1.934	87.030	58.8224
200.96	300.00	1.933	86.975	31.6530
201.96	300.00	1.932	86.956	-33.3956
202.96	300.00	1.931	86.914	-98.0673
203.96	300.00	1.930	86.840	-98.2995
204.96	300.00	1.929	86.827	-111.008
205.96	300.00	1.928	86.782	-115.253
206.96	300.00	1.927	86.733	-109.509
207.96	300.00	1.926	86.679	-81.4225
208.96	300.00	1.925	86.629	-72.9114
209.96	300.00	1.925	86.617	-71.0325
210.96	300.00	1.923	86.551	-50.2982
211.96	300.00	1.922	86.518	-48.6684
212.96	300.00	1.922	86.482	-35.1478
213.96	300.00	1.920	86.429	-39.4108
214.96	300.00	1.920	86.395	-29.1019
215.96	300.00	1.919	86.343	-33.1616
216.96	300.00	1.918	86.304	0.240413
217.96	300.00	1.917	86.264	16.0953
218.96	300.00	1.916	86.231	15.7188
219.96	300.00	1.915	86.174	-19.0272
220.96	300.00	1.914	86.151	-64.5631
221.96	300.00	1.913	86.104	-77.6702
222.96	300.00	1.912	86.052	-81.8172
223.96	300.00	1.911	86.026	-56.1407
224.96	300.00	1.911	85.995	-13.5458
225.96	300.00	1.910	85.961	7.69683
226.96	300.00	1.909	85.917	26.9520
227.96	300.00	1.908	85.848	74.7712
228.96	300.00	1.907	85.814	89.0463
229.96	300.00	1.906	85.786	101.500
230.96	300.00	1.905	85.748	101.746
231.96	300.00	1.905	85.712	105.946
232.96	300.00	1.904	85.680	105.074
233.96	300.00	1.903	85.650	110.622
234.96	300.00	1.902	85.619	94.0959
235.96	300.00	1.901	85.562	68.0838
236.96	300.00	1.900	85.527	49.6240
237.96	300.00	1.900	85.487	22.0637
238.96	300.00	1.899	85.453	2.84215
239.96	300.00	1.898	85.415	-38.8833
240.96	300.00	1.897	85.382	-65.0020
241.96	300.00	1.896	85.336	-87.0676
242.96	300.00	1.896	85.310	-103.404
243.96	300.00	1.895	85.267	-113.390
244.96	300.00	1.894	85.236	-113.095
245.96	300.00	1.893	85.191	-91.4156
246.96	300.00	1.892	85.152	-56.0104
247.96	300.00	1.891	85.121	6.05191
248.96	300.00	1.891	85.098	62.3945
249.96	300.00	1.890	85.043	89.3861
250.96	300.00	1.889	85.025	105.971
251.96	300.00	1.888	84.964	88.7315
252.96	300.00	1.888	84.971	48.4736
253.96	300.00	1.887	84.913	-1.93835
254.96	300.00	1.886	84.871	-15.2548
255.96	300.00	1.885	84.833	-33.0756
256.96	300.00	1.884	84.795	-37.8506
257.96	300.00	1.883	84.760	-47.2315
258.96	300.00	1.883	84.751	-58.6595
259.96	300.00	1.882	84.697	-61.8706
260.96	300.00	1.881	84.661	-60.3993
261.96	300.00	1.881	84.634	-61.2615
262.96	300.00	1.880	84.595	-70.1715
263.96	300.00	1.879	84.559	-57.1084
264.96	300.00	1.878	84.534	-28.5136
265.96	300.00	1.877	84.492	9.88596
266.96	300.00	1.877	84.459	43.5303
267.96	300.00	1.877	84.451	74.4405
268.96	300.00	1.875	84.392	85.0030
269.96	300.00	1.875	84.363	84.5604
270.96	300.00	1.874	84.326	83.8927
271.96	300.00	1.873	84.284	74.6694
272.96	300.00	1.873	84.272	59.4124
273.96	300.00	1.871	84.223	62.3380
274.96	300.00	1.871	84.183	59.3406
275.96	300.00	1.871	84.187	56.1057
276.96	300.00	1.870	84.147	53.6268
277.96	300.00	1.869	84.101	63.2301
278.96	300.00	1.868	84.069	43.7599
279.96	300.00	1.867	84.042	-2.66035
280.96	300.00	1.867	84.008	-22.9749
281.96	300.00	1.866	83.983	-30.9176
282.96	300.00	1.865	83.937	-48.9006
283.96	300.00	1.865	83.916	-56.1785
284.96	300.00	1.864	83.881	-62.6358
285.96	300.00	1.863	83.850	-65.9245
286.96	300.00	1.862	83.816	-64.3834
287.96	300.00	1.862	83.797	-43.2708
288.96	300.00	1.861	83.761	-36.3356
289.96	300.00	1.861	83.735	-26.2909
290.96	300.00	1.860	83.701	-8.17546
291.96	300.00	1.859	83.675	9.06496
292.96	300.00	1.859	83.646	24.1407
293.96	300.00	1.858	83.614	30.7053
294.96	300.00	1.857	83.583	31.3030
295.96	300.00	1.857	83.555	28.3664
296.96	300.00	1.855	83.492	22.8605
297.96	300.00	1.856	83.509	23.9768
298.96	300.00	1.855	83.465	18.8725
299.96	300.00	1.854	83.423	6.90096
300.96	300.00	1.853	83.414	-0.752399
301.96	300.00	1.853	83.394	-7.72077
302.96	300.00	1.852	83.341	-15.8060
303.96	300.00	1.851	83.323	-22.4758
304.96	300.00	1.851	83.289	-2.76033
305.96	300.00	1.850	83.247	6.38066
306.96	300.00	1.850	83.241	17.1508
307.96	300.00	1.849	83.209	39.7972
308.96	300.00	1.848	83.174	54.0369
309.96	300.00	1.848	83.151	65.5390
310.96	300.00	1.847	83.124	46.4898
311.96	300.00	1.846	83.096	27.2652
312.96	300.00	1.846	83.079	6.96135
313.96	300.00	1.845	83.045	-3.79011
314.96	300.00	1.845	83.016	-19.0521
315.96	300.00	1.844	82.990	-33.3997
316.96	300.00	1.844	82.970	-35.7156
317.96	300.00	1.843	82.932	-26.2067
318.96	300.00	1.842	82.898	-7.01691
319.96	300.00	1.842	82.882	-1.46108
320.96	300.00	1.841	82.839	-15.9016
321.96	300.00	1.840	82.809	-11.3491
322.96	300.00	1.839	82.782	-9.62985
323.96	300.00	1.839	82.752	-9.06399
324.96	300.00	1.838	82.700	12.1010
325.96	300.00	1.837	82.666	6.32133
326.96	300.00	1.837	82.688	-15.8430
327.96	300.00	1.837	82.665	-38.3659
328.96	300.00	1.836	82.631	-25.9653
329.96	300.00	1.836	82.615	-7.91209
330.96	300.00	1.835	82.574	5.71442e-3
331.96	300.00	1.834	82.535	-14.4772
332.96	300.00	1.834	82.529	-22.8576
333.96	300.00	1.833	82.504	-28.1883
334.96	300.00	1.833	82.474	-10.3716
335.96	300.00	1.832	82.456	21.9757
336.96	300.00	1.832	82.427	22.6821
337.96	300.00	1.831	82.400	29.4893
338.96	300.00	1.830	82.375	0.0531285
339.96	300.00	1.830	82.340	-32.2438
340.96	300.00	1.829	82.328	-34.2207
341.96	300.00	1.829	82.311	-31.0142
342.96	300.00	1.828	82.276	-46.5176
343.96	300.00	1.828	82.253	-42.2751
344.96	300.00	1.827	82.209	-15.5644
345.96	300.00	1.826	82.200	26.7180
346.96	300.00	1.826	82.158	38.5798
347.96	300.00	1.825	82.144	41.6219
348.96	300.00	1.825	82.140	40.4488
349.96	300.00	1.824	82.088	30.4334
350.96	300.00	1.824	82.068	20.4692
351.96	300.00	1.823	82.060	2.61086
352.96	300.00	1.823	82.021	-6.19379
353.96	300.00	1.822	81.997	-10.7561
354.96	300.00	1.822	81.976	-11.0200
355.96	300.00	1.821	81.974	-15.4279
356.96	300.00	1.820	81.920	-17.9021
357.96	300.00	1.820	81.902	-16.8536
358.96	300.00	1.819	81.869	-18.1684
359.96	300.00	1.819	81.854	-22.9124
360.96	300.00	1.818	81.824	-24.4780
361.96	300.00	1.818	81.804	-18.4319
362.96	300.00	1.817	81.776	-8.98148
363.96	300.00	1.816	81.741	10.5132
364.96	300.00	1.816	81.736	42.4262
365.96	300.00	1.815	81.696	51.9558
366.96	300.00	1.815	81.671	52.1133
367.96	300.00	1.814	81.655	51.4959
368.96	300.00	1.814	81.635	44.7534
369.96	300.00	1.813	81.613	22.2573
370.96	300.00	1.812	81.568	-0.611880
371.96	300.00	1.812	81.544	-16.2511
372.96	300.00	1.812	81.541	-25.7710
373.96	300.00	1.811	81.503	-30.7692
374.96	300.00	1.810	81.473	-33.3053
375.96	300.00	1.811	81.494	-30.4025
376.96	300.00	1.810	81.442	-22.8203
377.96	300.00	1.809	81.420	-14.9202
378.96	300.00	1.809	81.412	-7.30487
379.96	300.00	1.809	81.392	-9.01317
380.96	300.00	1.807	81.341	-6.95847
381.96	300.00	1.807	81.315	-4.41248
382.96	300.00	1.806	81.298	7.72179
383.96	300.00	1.806	81.277	26.8810
384.96	300.00	1.805	81.248	35.2114
385.96	300.00	1.805	81.224	37.0650
386.96	300.00	1.804	81.203	34.7646
387.96	300.00	1.804	81.180	30.3718
388.96	300.00	1.804	81.168	24.2715
389.96	300.00	1.803	81.125	22.9638
390.96	300.00	1.802	81.112	3.23991
391.96	300.00	1.802	81.086	-20.6444
392.96	300.00	1.801	81.071	-32.3504
393.96	300.00	1.801	81.037	-33.6459
394.96	300.00	1.800	81.016	-31.1375
395.96	300.00	1.800	80.987	-22.3941
396.96	300.00	1.799	80.985	-15.8427
397.96	300.00	1.798	80.923	-6.80811
398.96	300.00	1.799	80.952	-3.05069
399.96	300.00	1.798	80.925	0.969866
400.96	300.00	1.797	80.892	5.27108
401.96	300.00	1.797	80.868	1.14967
402.96	300.00	1.796	80.843	0.220756
403.96	300.00	1.795	80.793	-5.82462
404.96	300.00	1.796	80.828	-11.5718
405.96	300.00	1.795	80.776	-15.0850
406.96	300.00	1.794	80.755	-5.17645
407.96	300.00	1.794	80.736	2.20504
408.96	300.00	1.794	80.716	-0.451739
409.96	300.00	1.793	80.695	-2.08537
410.96	300.00	1.792	80.665	-5.35299
411.96	300.00	1.792	80.652	-6.00942
412.96	300.00	1.792	80.639	1.85233
413.96	300.00	1.791	80.616	12.2742
414.96	300.00	1.791	80.597	19.4028
415.96	300.00	1.790	80.561	26.3642
416.96	300.00	1.790	80.547	30.3220
417.96	300.00	1.790	80.544	35.6355
418.96	300.00	1.789	80.506	35.4247
419.96	300.00	1.788	80.457	36.0014
420.96	300.00	1.788	80.477	22.8913
421.96	300.00	1.787	80.444	6.20576
422.96	300.00	1.787	80.424	-13.2466
423.96	300.00	1.787	80.422	-16.5674
424.96	300.00	1.786	80.387	-18.2110
425.96	300.00	1.786	80.365	-23.6131
426.96	300.00	1.785	80.336	-24.8988
427.96	300.00	1.785	80.329	-7.63786
428.96	300.00	1.784	80.304	10.9463
429.96	300.00	1.784	80.278	22.3486
430.96	300.00	1.783	80.263	32.3069
431.96	300.00	1.783	80.241	28.3630
432.96	300.00	1.783	80.227	1.49372
433.96	300.00	1.782	80.199	-18.8402
434.96	300.00	1.781	80.175	-21.4834
435.96	300.00	1.781	80.162	-21.7046
436.96	300.00	1.781	80.137	-23.0859
437.96	300.00	1.781	80.132	-23.0038
438.96	300.00	1.780	80.101	-16.1677
439.96	300.00	1.779	80.081	-18.5883
440.96	300.00	1.779	80.060	-20.7213
441.96	300.00	1.778	80.034	-26.2890
442.96	300.00	1.778	80.017	-28.9530
443.96	300.00	1.778	80.010	-22.7416
444.96	300.00	1.778	80.001	-3.40306
445.96	300.00	1.777	79.972	14.2690
446.96	300.00	1.776	79.936	17.8105
447.96	300.00	1.776	79.913	36.2421
448.96	300.00	1.776	79.906	47.4771
449.96	300.00	1.775	79.891	46.5069
450.96	300.00	1.775	79.867	41.7218
451.96	300.00	1.774	79.842	44.2368
452.96	300.00	1.774	79.845	34.9941
453.96	300.00	1.774	79.840	22.7864
454.96	300.00	1.773	79.789	26.3746
455.96	300.00	1.773	79.771	36.2166
456.96	300.00	1.772	79.752	18.9589
457.96	300.00	1.772	79.737	-14.6637
458.96	300.00	1.771	79.716	-41.8806
459.96	300.00	1.771	79.682	-42.7593
460.96	300.00	1.770	79.670	-31.7626
461.96	300.00	1.770	79.663	-3.09571
462.96	300.00	1.770	79.646	10.6551
463.96	300.00	1.769	79.619	12.8687
464.96	300.00	1.769	79.594	13.1905
465.96	300.00	1.768	79.580	10.8518
466.96	300.00	1.768	79.569	19.9197
467.96	300.00	1.767	79.514	15.5519
468.96	300.00	1.767	79.510	22.9585
469.96	300.00	1.766	79.493	13.6184
470.96	300.00	1.766	79.474	9.73173
471.96	300.00	1.766	79.463	5.54620
472.96	300.00	1.765	79.443	3.98026
473.96	300.00	1.765	79.427	-6.41863
474.96	300.00	1.764	79.404	-25.9749
475.96	300.00	1.764	79.381	-43.2676
476.96	300.00	1.763	79.335	-42.3879
477.96	300.00	1.763	79.341	-45.8567
478.96	300.00	1.763	79.327	-43.6669
479.96	300.00	1.762	79.315	-29.3523
480.96	300.00	1.762	79.301	-16.2850
481.96	300.00	1.761	79.270	-3.36287
482.96	300.00	1.761	79.248	9.26944
483.96	300.00	1.760	79.227	32.3759
484.96	300.00	1.760	79.218	25.6729
485.96	300.00	1.760	79.200	28.3342
486.96	300.00	1.760	79.195	30.4573
487.96	300.00	1.759	79.155	42.2547
488.96	300.00	1.759	79.150	44.8364
489.96	300.00	1.758	79.120	47.3674
490.96	300.00	1.757	79.076	41.1569
491.96	300.00	1.758	79.113	25.8881
492.96	300.00	1.757	79.074	5.39490
493.96	300.00	1.756	79.028	-5.82171
494.96	300.00	1.756	79.035	-17.3462
495.96	300.00	1.755	78.996	-21.9139
496.96	300.00	1.755	78.992	-20.1727
497.96	300.00	1.755	78.973	-13.2710
498.96	300.00	1.754	78.948	-1.49356
499.96	300.00	1.754	78.929	9.26227
500.96	300.00	1.753	78.900	12.5502
501.96	300.00	1.752	78.857	11.1007
502.96	300.00	1.753	78.879	9.01361
503.96	300.00	1.752	78.863	7.22293
504.96	300.00	1.752	78.843	12.9771
505.96	300.00	1.752	78.826	19.2566
506.96	300.00	1.751	78.804	22.4586
507.96	300.00	1.751	78.790	16.8752
508.96	300.00	1.750	78.772	6.52483
509.96	300.00	1.750	78.751	-5.69371
510.96	300.00	1.750	78.749	-15.6053
511.96	300.00	1.749	78.708	-22.8186
512.96	300.00	1.749	78.691	-35.1069
513.96	300.00	1.748	78.675	-40.1986
514.96	300.00	1.748	78.668	-39.8823
515.96	300.00	1.747	78.604	-38.5542
516.96	300.00	1.747	78.617	-38.9612
517.96	300.00	1.747	78.611	-15.9099
518.96	300.00	1.746	78.594	5.64316
519.96	300.00	1.746	78.556	16.0810
520.96	300.00	1.745	78.535	8.68573
521.96	300.00	1.745	78.542	21.1133
522.96	300.00	1.744	78.503	31.4385
523.96	300.00	1.744	78.486	37.9997
524.96	300.00	1.744	78.473	38.7240
525.96	300.00	1.743	78.438	34.3906
526.96	300.00	1.743	78.431	15.0895
527.96	300.00	1.742	78.406	1.59493
528.96	300.00	1.742	78.385	-7.61103
529.96	300.00	1.741	78.373	-15.0589
530.96	300.00	1.741	78.345	-27.4731
531.96	300.00	1.740	78.327	-28.9510
532.96	300.00	1.740	78.308	-30.3013
533.96	300.00	1.740	78.293	-33.2766
534.96	300.00	1.739	78.256	-28.0856
535.96	300.00	1.739	78.254	-20.3818
536.96	300.00	1.739	78.247	-8.74858
537.96	300.00	1.738	78.226	-7.45990
538.96	300.00	1.738	78.211	-3.41203
539.96	300.00	1.738	78.201	5.18388
540.96	300.00	1.737	78.182	17.1273
541.96	300.00	1.737	78.157	37.5079
542.96	300.00	1.737	78.151	44.2737
543.96	300.00	1.736	78.127	34.3103
544.96	300.00	1.735	78.090	15.8243
545.96	300.00	1.735	78.070	-9.61632
546.96	300.00	1.735	78.064	-23.0703
547.96	300.00	1.734	78.047	-17.7933
548.96	300.00	1.734	78.035	-3.73650
549.96	300.00	1.734	78.033	5.89969
550.96	300.00	1.733	78.004	12.1183
551.96	300.00	1.733	77.976	14.0724
552.96	300.00	1.732	77.970	17.7300
553.96	300.00	1.732	77.952	18.0934
554.96	300.00	1.732	77.931	15.1133
555.96	300.00	1.731	77.918	17.8736
556.96	300.00	1.731	77.901	19.9454
557.96	300.00	1.731	77.886	26.8510
558.96	300.00	1.730	77.855	17.2012
559.96	300.00	1.730	77.871	6.28745
560.96	300.00	1.730	77.842	-9.15895
561.96	300.00	1.729	77.822	-24.1908
562.96	300.00	1.729	77.808	-31.7947
563.96	300.00	1.728	77.778	-32.2887
564.96	300.00	1.728	77.781	-23.3223
565.96	300.00	1.727	77.743	-4.00627
566.96	300.00	1.727	77.718	7.11851
567.96	300.00	1.727	77.740	19.1203
568.96	300.00	1.727	77.703	18.9464
569.96	300.00	1.726	77.679	6.48706
570.96	300.00	1.726	77.676	-2.80474
571.96	300.00	1.726	77.662	-12.3512
572.96	300.00	1.725	77.646	-8.58739
573.96	300.00	1.725	77.622	0.625716
574.96	300.00	1.724	77.593	8.80116
575.96	300.00	1.724	77.597	11.2141
576.96	300.00	1.724	77.576	13.5811
577.96	300.00	1.723	77.563	12.6032
578.96	300.00	1.723	77.543	7.95314
579.96	300.00	1.723	77.535	3.93231
580.96	300.00	1.722	77.514	-1.18798
581.96	300.00	1.722	77.504	-3.54780
582.96	300.00	1.722	77.478	-2.35094
583.96	300.00	1.721	77.444	-2.29062
584.96	300.00	1.721	77.455	-0.121250
585.96	300.00	1.721	77.440	0.559071
586.96	300.00	1.720	77.420	-2.86550
587.96	300.00	1.720	77.420	-12.7291
588.96	300.00	1.720	77.394	-23.3847
589.96	300.00	1.719	77.383	-23.8033
590.96	300.00	1.719	77.343	-21.5893
591.96	300.00	1.718	77.334	-15.4869
592.96	300.00	1.719	77.341	-6.81057
593.96	300.00	1.718	77.303	11.4230
594.96	300.00	1.718	77.298	32.8027
595.96	300.00	1.717	77.284	39.2313
596.96	300.00	1.717	77.267	39.4916
597.96	300.00	1.717	77.252	32.8638
598.96	300.00	1.716	77.236	27.0315
599.96	300.00	1.716	77.226	15.4038
600.96	300.00	1.716	77.207	1.14154
601.96	300.00	1.715	77.191	4.68567
602.96	300.00	1.715	77.168	20.7919
603.96	300.00	1.715	77.163	30.1573
604.96	300.00	1.714	77.141	27.2677
605.96	300.00	1.714	77.133	18.6654
606.96	300.00	1.714	77.116	23.5945
607.96	300.00	1.713	77.098	10.6598
608.96	300.00	1.713	77.088	4.45866
609.96	300.00	1.712	77.065	-1.07221
610.96	300.00	1.712	77.050	8.19513
611.96	300.00	1.712	77.035	12.4268
612.96	300.00	1.711	77.007	9.86643
613.96	300.00	1.711	77.003	19.7629
614.96	300.00	1.711	77.005	14.9227
615.96	300.00	1.710	76.974	11.6518
616.96	300.00	1.710	76.949	11.4136
617.96	300.00	1.710	76.950	7.48814
618.96	300.00	1.710	76.939	1.04793
619.96	300.00	1.709	76.912	-6.44928
620.96	300.00	1.709	76.894	1.41928
621.96	300.00	1.708	76.876	7.42852
622.96	300.00	1.708	76.880	1.64890
623.96	300.00	1.707	76.839	-10.3137
624.96	300.00	1.707	76.832	-23.8882
625.96	300.00	1.707	76.814	-30.8644
626.96	300.00	1.706	76.797	-39.7746
627.96	300.00	1.706	76.787	-43.1796
628.96	300.00	1.706	76.764	-41.1485
629.96	300.00	1.705	76.747	-47.4476
630.96	300.00	1.705	76.739	-34.6351
631.96	300.00	1.705	76.728	-28.8778
632.96	300.00	1.704	76.679	-23.8154
633.96	300.00	1.704	76.689	-12.9578
634.96	300.00	1.704	76.673	8.88354
635.96	300.00	1.703	76.657	6.76454
636.96	300.00	1.703	76.640	14.3510
637.96	300.00	1.703	76.629	18.6286
638.96	300.00	1.703	76.636	18.6049
639.96	300.00	1.702	76.605	3.63518
640.96	300.00	1.701	76.574	-4.66142
641.96	300.00	1.701	76.573	4.94711
642.96	300.00	1.701	76.533	1.30564
643.96	300.00	1.700	76.528	-21.5384
644.96	300.00	1.700	76.517	-20.8974
645.96	300.00	1.700	76.494	-24.5786
646.96	300.00	1.700	76.503	-36.9495
647.96	300.00	1.699	76.464	-13.2007
648.96	300.00	1.699	76.446	2.35771
649.96	300.00	1.698	76.430	12.3127
650.96	300.00	1.698	76.416	23.3459
651.96	300.00	1.698	76.402	31.5174
652.96	300.00	1.697	76.386	33.8975
653.96	300.00	1.697	76.370	38.7311
654.96	300.00	1.697	76.352	41.1491
655.96	300.00	1.696	76.335	40.9229
656.96	300.00	1.696	76.306	35.6353
657.96	300.00	1.696	76.310	32.8391
658.96	300.00	1.695	76.300	24.1742
659.96	300.00	1.695	76.279	17.8669
660.96	300.00	1.695	76.275	13.2341
661.96	300.00	1.694	76.240	-1.57828
662.96	300.00	1.694	76.231	-20.2259
663.96	300.00	1.693	76.206	-36.9268
664.96	300.00	1.693	76.209	-37.4177
665.96	300.00	1.693	76.176	-39.0196
666.96	300.00	1.693	76.192	-39.3471
667.96	300.00	1.692	76.133	-37.2123
668.96	300.00	1.692	76.135	-37.4492
669.96	300.00	1.691	76.120	-23.4112
670.96	300.00	1.691	76.105	-2.73877
671.96	300.00	1.691	76.111	9.66748
672.96	300.00	1.690	76.070	15.5856
673.96	300.00	1.690	76.061	18.8360
674.96	300.00	1.690	76.047	20.3674
675.96	300.00	1.689	76.025	21.3409
676.96	300.00	1.689	76.011	23.5742
677.96	300.00	1.689	76.000	24.9124
678.96	300.00	1.688	75.975	20.7803
679.96	300.00	1.688	75.960	15.3130
680.96	300.00	1.688	75.959	4.71211
681.96	300.00	1.687	75.934	-5.71471
682.96	300.00	1.687	75.914	-12.8033
683.96	300.00	1.686	75.895	-17.0975
684.96	300.00	1.686	75.879	-21.8302
685.96	300.00	1.685	75.853	-23.0843
686.96	300.00	1.686	75.858	-10.2052
687.96	300.00	1.685	75.851	7.04385
688.96	300.00	1.685	75.829	21.9197
689.96	300.00	1.685	75.819	27.4679
690.96	300.00	1.684	75.794	27.5563
691.96	300.00	1.684	75.778	26.2101
692.96	300.00	1.683	75.756	22.8440
693.96	300.00	1.683	75.746	19.5971
694.96	300.00	1.683	75.728	9.90991
695.96	300.00	1.682	75.708	-0.700099
696.96	300.00	1.683	75.745	-9.94076
697.96	300.00	1.682	75.687	-19.1775
698.96	300.00	1.681	75.669	-25.5016
699.96	300.00	1.681	75.654	-28.5118
700.96	300.00	1.681	75.633	-29.6006
701.96	300.00	1.680	75.614	-28.7359
702.96	300.00	1.680	75.596	-26.8965
703.96	300.00	1.680	75.589	-24.5170
704.96	300.00	1.679	75.577	-17.2597
705.96	300.00	1.679	75.567	-2.61042
706.96	300.00	1.679	75.542	19.0206
707.96	300.00	1.678	75.530	24.5189
708.96	300.00	1.678	75.512	30.7556
709.96	300.00	1.677	75.487	35.1411
710.96	300.00	1.677	75.473	32.7328
711.96	300.00	1.677	75.459	17.0895
712.96	300.00	1.677	75.463	4.06181
713.96	300.00	1.677	75.454	-3.17992
714.96	300.00	1.676	75.410	-10.4624
715.96	300.00	1.675	75.391	-17.3905
716.96	300.00	1.675	75.386	-17.8167
717.96	300.00	1.675	75.361	-12.2027
718.96	300.00	1.674	75.352	-7.50479
719.96	300.00	1.674	75.317	-4.58357
720.96	300.00	1.674	75.344	-0.964356
721.96	300.00	1.673	75.305	6.34343
722.96	300.00	1.673	75.289	11.9555
723.96	300.00	1.673	75.272	15.1391
724.96	300.00	1.672	75.267	14.8228
725.96	300.00	1.672	75.249	14.9805
726.96	300.00	1.672	75.232	14.9038
727.96	300.00	1.671	75.220	12.1854
728.96	300.00	1.671	75.211	6.22772
729.96	300.00	1.671	75.193	-3.00701
730.96	300.00	1.670	75.168	-13.3360
731.96	300.00	1.670	75.165	-17.6962
732.96	300.00	1.670	75.143	-21.9611
733.96	300.00	1.669	75.116	-22.9254
734.96	300.00	1.669	75.118	-22.0473
735.96	300.00	1.669	75.116	-16.8820
736.96	300.00	1.669	75.092	-14.5575
737.96	300.00	1.668	75.079	-6.18239
738.96	300.00	1.668	75.070	9.09337
739.96	300.00	1.668	75.061	11.8441
740.96	300.00	1.667	75.027	4.35803
741.96	300.00	1.667	75.024	3.06589
742.96	300.00	1.667	75.005	-2.24547
743.96	300.00	1.666	74.997	0.358565
744.96	300.00	1.666	74.971	5.87878
745.96	300.00	1.666	74.969	9.52284
746.96	300.00	1.665	74.945	21.0919
747.96	300.00	1.665	74.935	20.2174
748.96	300.00	1.665	74.920	24.9191
749.96	300.00	1.664	74.898	28.4855
750.96	300.00	1.664	74.890	32.0374
751.96	300.00	1.664	74.880	30.5050
752.96	300.00	1.663	74.860	30.1350
753.96	300.00	1.664	74.866	11.3371
754.96	300.00	1.663	74.838	5.32120
755.96	300.00	1.663	74.821	-2.96187
756.96	300.00	1.662	74.802	-3.70377
757.96	300.00	1.662	74.795	-8.50472
758.96	300.00	1.662	74.788	-17.8244
759.96	300.00	1.661	74.762	-19.6358
760.96	300.00	1.661	74.742	-13.8293
761.96	300.00	1.660	74.723	-2.56561
762.96	300.00	1.660	74.725	-1.80889
763.96	300.00	1.660	74.706	-6.87774
764.96	300.00	1.660	74.709	-8.50153
765.96	300.00	1.660	74.687	-23.1122
766.96	300.00	1.659	74.668	-23.8045
767.96	300.00	1.659	74.664	-8.94278
768.96	300.00	1.659	74.657	0.143771
769.96	300.00	1.658	74.611	0.208463
770.96	300.00	1.658	74.611	-9.35765
771.96	300.00	1.658	74.596	-16.7588
772.96	300.00	1.657	74.581	-14.6321
773.96	300.00	1.657	74.571	-13.1044
774.96	300.00	1.657	74.563	-9.40334
775.96	300.00	1.656	74.550	-9.44881
776.96	300.00	1.656	74.542	-3.67550
777.96	300.00	1.656	74.528	1.15156
778.96	300.00	1.655	74.491	13.4169
779.96	300.00	1.656	74.519	12.3428
780.96	300.00	1.655	74.482	9.37607
781.96	300.00	1.655	74.466	5.22976
782.96	300.00	1.654	74.437	-0.0368660
783.96	300.00	1.654	74.441	7.30430
784.96	300.00	1.653	74.405	29.4046
785.96	300.00	1.653	74.398	33.8782
786.96	300.00	1.653	74.405	27.4359
787.96	300.00	1.653	74.382	13.6947
788.96	300.00	1.653	74.376	3.39579
789.96	300.00	1.652	74.350	4.19936
790.96	300.00	1.652	74.345	2.12285
791.96	300.00	1.652	74.334	4.92280
792.96	300.00	1.651	74.324	13.6296
793.96	300.00	1.650	74.273	13.5009
794.96	300.00	1.651	74.287	10.6529
795.96	300.00	1.650	74.274	14.3591
796.96	300.00	1.650	74.262	16.8501
797.96	300.00	1.650	74.243	18.0360
798.96	300.00	1.649	74.233	17.5989
799.96	300.00	1.649	74.217	18.2443
800.96	300.00	1.649	74.199	23.7816
801.96	300.00	1.648	74.189	28.4238
802.96	300.00	1.648	74.165	32.0191
803.96	300.00	1.648	74.172	28.8206
804.96	300.00	1.648	74.155	21.8022
805.96	300.00	1.647	74.129	7.12431
806.96	300.00	1.647	74.132	-10.6054
807.96	300.00	1.647	74.101	-18.4293
808.96	300.00	1.646	74.089	-24.3944
809.96	300.00	1.646	74.090	-22.5118
810.96	300.00	1.645	74.055	-24.9740
811.96	300.00	1.646	74.070	-24.0424
812.96	300.00	1.645	74.025	-20.4414
813.96	300.00	1.645	74.033	-20.6044
814.96	300.00	1.644	74.009	-20.5156
815.96	300.00	1.644	73.990	-22.6316
816.96	300.00	1.644	73.994	-22.9374
817.96	300.00	1.644	73.968	-24.9740
818.96	300.00	1.643	73.930	-25.5513
819.96	300.00	1.643	73.931	-19.1857
820.96	300.00	1.642	73.906	-6.36714
821.96	300.00	1.642	73.900	-2.25866
822.96	300.00	1.642	73.878	1.98267
823.96	300.00	1.641	73.862	-1.57881
824.96	300.00	1.641	73.855	-5.52954
825.96	300.00	1.641	73.830	-12.5744
826.96	300.00	1.640	73.811	-7.94176
827.96	300.00	1.640	73.814	-0.835142
828.96	300.00	1.640	73.804	10.2163
829.96	300.00	1.639	73.767	16.1078
830.96	300.00	1.639	73.753	11.1510
831.96	300.00	1.639	73.769	6.47790
832.96	300.00	1.639	73.758	-6.15554
833.96	300.00	1.638	73.711	-5.17367
834.96	300.00	1.638	73.696	-23.3608
835.96	300.00	1.637	73.679	-37.4825
836.96	300.00	1.637	73.656	-36.0234
837.96	300.00	1.636	73.641	-27.8684
838.96	300.00	1.637	73.658	-7.83112
839.96	300.00	1.636	73.636	16.0997
840.96	300.00	1.635	73.596	28.5005
841.96	300.00	1.635	73.572	31.4682
842.96	300.00	1.635	73.566	30.9560
843.96	300.00	1.635	73.578	33.2597
844.96	300.00	1.635	73.569	33.7990
845.96	300.00	1.634	73.557	33.7742
846.96	300.00	1.634	73.536	30.5223
847.96	300.00	1.634	73.531	23.7002
848.96	300.00	1.634	73.522	10.5844
849.96	300.00	1.634	73.524	3.70957
850.96	300.00	1.632	73.446	-0.745934
851.96	300.00	1.631	73.416	-8.73787
852.96	300.00	1.632	73.460	-15.3028
853.96	300.00	1.632	73.456	-21.3669
854.96	300.00	1.632	73.438	-24.1228
855.96	300.00	1.632	73.444	-24.7107
856.96	300.00	1.630	73.354	-20.2124
857.96	300.00	1.631	73.390	-16.1111
858.96	300.00	1.630	73.350	-13.6258
859.96	300.00	1.630	73.357	-11.8072
860.96	300.00	1.631	73.385	-6.22384
861.96	300.00	1.629	73.329	1.23003
862.96	300.00	1.629	73.325	9.59945
863.96	300.00	1.629	73.314	13.4126
864.96	300.00	1.629	73.294	11.9845
865.96	300.00	1.627	73.224	2.73610
866.96	300.00	1.628	73.279	-6.58720
867.96	300.00	1.628	73.258	-6.25908
868.96	300.00	1.627	73.244	4.57265
869.96	300.00	1.627	73.235	12.4827
870.96	300.00	1.627	73.227	14.4757
871.96	300.00	1.627	73.206	13.1928
872.96	300.00	1.626	73.181	14.6801
873.96	300.00	1.626	73.180	21.0614
874.96	300.00	1.626	73.181	25.9074
875.96	300.00	1.625	73.135	20.2377
876.96	300.00	1.626	73.158	12.4997
877.96	300.00	1.625	73.130	10.2024
878.96	300.00	1.625	73.123	3.74901
879.96	300.00	1.625	73.113	-2.24282
880.96	300.00	1.624	73.105	-0.863628
881.96	300.00	1.624	73.105	-3.62955
882.96	300.00	1.624	73.078	-12.2247
883.96	300.00	1.623	73.060	-18.6861
884.96	300.00	1.623	73.037	-19.0248
885.96	300.00	1.623	73.035	-16.3637
886.96	300.00	1.623	73.021	1.02654
887.96	300.00	1.622	73.010	17.7723
888.96	300.00	1.622	72.995	22.8682
889.96	300.00	1.622	73.002	25.0513
890.96	300.00	1.621	72.959	20.9867
891.96	300.00	1.621	72.962	23.6545
892.96	300.00	1.621	72.945	23.8345
893.96	300.00	1.621	72.934	23.0645
894.96	300.00	1.620	72.922	23.4892
895.96	300.00	1.620	72.906	23.8517
896.96	300.00	1.620	72.894	24.6830
897.96	300.00	1.619	72.885	24.8569
898.96	300.00	1.619	72.869	22.8533
899.96	300.00	1.619	72.869	16.1079
900.96	300.00	1.619	72.856	10.3305
901.96	300.00	1.619	72.843	4.71022
902.96	300.00	1.618	72.825	-1.72273
903.96	300.00	1.618	72.823	-3.26571
904.96	300.00	1.617	72.793	-8.62805
905.96	300.00	1.618	72.798	-15.6300
906.96	300.00	1.617	72.765	-24.4882
907.96	300.00	1.617	72.762	-30.6823
908.96	300.00	1.617	72.764	-31.7396
909.96	300.00	1.616	72.739	-31.7467
910.96	300.00	1.616	72.717	-32.2902
911.96	300.00	1.616	72.710	-31.4704
912.96	300.00	1.615	72.697	-33.3404
913.96	300.00	1.615	72.683	-35.0912
914.96	300.00	1.615	72.669	-28.9700
915.96	300.00	1.614	72.629	-16.2386
916.96	300.00	1.614	72.630	-5.44153
917.96	300.00	1.614	72.628	7.68397
918.96	300.00	1.613	72.601	8.20672
919.96	300.00	1.613	72.594	3.06139
920.96	300.00	1.613	72.579	-4.87993
921.96	300.00	1.612	72.563	-6.25067
922.96	300.00	1.612	72.550	-4.16409
923.96	300.00	1.612	72.549	10.6408
924.96	300.00	1.611	72.519	12.8845
925.96	300.00	1.612	72.531	12.3536
926.96	300.00	1.611	72.499	13.0124
927.96	300.00	1.611	72.482	10.4216
928.96	300.00	1.610	72.458	3.65074
929.96	300.00	1.610	72.469	-12.4598
930.96	300.00	1.610	72.460	-20.8292
931.96	300.00	1.610	72.441	-23.5318
932.96	300.00	1.609	72.420	-7.52486
933.96	300.00	1.609	72.421	7.34533
934.96	300.00	1.608	72.362	11.7964
935.96	300.00	1.608	72.388	13.1636
936.96	300.00	1.608	72.373	13.0819
937.96	300.00	1.608	72.356	11.1815
938.96	300.00	1.608	72.361	7.52096
939.96	300.00	1.607	72.325	2.09393
940.96	300.00	1.607	72.316	2.22763
941.96	300.00	1.607	72.317	1.71915
942.96	300.00	1.606	72.300	-1.71853
943.96	300.00	1.606	72.290	-4.20066
944.96	300.00	1.606	72.269	-6.31747
945.96	300.00	1.606	72.265	-8.05013
946.96	300.00	1.605	72.249	-13.2709
947.96	300.00	1.605	72.252	-17.6399
948.96	300.00	1.605	72.239	-16.0413
949.96	300.00	1.604	72.178	-10.8843
950.96	300.00	1.604	72.199	-1.83660
951.96	300.00	1.604	72.174	8.66890
952.96	300.00	1.604	72.181	19.9113
953.96	300.00	1.603	72.143	27.3627
954.96	300.00	1.604	72.177	32.4192
955.96	300.00	1.603	72.156	32.4657
956.96	300.00	1.603	72.149	31.3207
957.96	300.00	1.603	72.141	28.0876
958.96	300.00	1.602	72.112	24.1257
959.96	300.00	1.602	72.103	16.8159
960.96	300.00	1.602	72.084	3.52244
961.96	300.00	1.602	72.076	-11.0858
962.96	300.00	1.602	72.079	-21.8448
963.96	300.00	1.601	72.063	-38.7413
964.96	300.00	1.601	72.057	-38.9552
965.96	300.00	1.601	72.032	-31.9178
966.96	300.00	1.600	72.020	-17.8056
967.96	300.00	1.600	72.005	0.687805
968.96	300.00	1.600	71.994	9.52670
969.96	300.00	1.599	71.982	15.5719
970.96	300.00	1.599	71.964	22.4418
971.96	300.00	1.599	71.962	21.8517
972.96	300.00	1.599	71.962	19.8971
973.96	300.00	1.598	71.930	21.8841
974.96	300.00	1.598	71.922	21.6877
975.96	300.00	1.598	71.910	16.9669
976.96	300.00	1.598	71.903	9.58189
977.96	300.00	1.598	71.900	2.81431
978.96	300.00	1.597	71.878	-8.21819
979.96	300.00	1.597	71.862	-17.3896
980.96	300.00	1.597	71.853	-24.4171
981.96	300.00	1.596	71.837	-29.9004
982.96	300.00	1.596	71.835	-30.9854
983.96	300.00	1.594	71.742	-30.0914
984.96	300.00	1.595	71.786	-30.1127
985.96	300.00	1.594	71.756	-26.7337
986.96	300.00	1.594	71.752	-17.6035
987.96	300.00	1.594	71.719	-4.20802
988.96	300.00	1.595	71.781	1.59863
989.96	300.00	1.594	71.728	8.29790
990.96	300.00	1.594	71.726	20.9272
991.96	300.00	1.593	71.706	28.5932
992.96	300.00	1.593	71.695	30.6996
993.96	300.00	1.593	71.673	30.8215
994.96	300.00	1.592	71.665	31.8409
995.96	300.00	1.592	71.664	30.3453
996.96	300.00	1.592	71.639	29.8690
997.96	300.00	1.592	71.635	30.2404
998.96	300.00	1.591	71.612	30.3498
999.96	300.00	1.591	71.598	27.8882
1000.96	300.00	1.591	71.591	21.9233
1001.96	300.00	1.591	71.586	20.6742
1002.96	300.00	1.590	71.551	19.2498
1003.96	300.00	1.589	71.528	7.73306
1004.96	300.00	1.589	71.519	-2.10458
1005.96	300.00	1.589	71.514	-5.22514
1006.96	300.00	1.589	71.496	0.177688
1007.96	300.00	1.589	71.495	-3.32252
1008.96	300.00	1.588	71.486	-13.4005
1009.96	300.00	1.588	71.472	-21.3694
1010.96	300.00	1.588	71.465	-26.2666
1011.96	300.00	1.587	71.426	-27.0676
1012.96	300.00	1.587	71.425	-27.0988
1013.96	300.00	1.587	71.414	-26.5739
1014.96	300.00	1.586	71.398	-24.5077
1015.96	300.00	1.586	71.385	-22.7630
1016.96	300.00	1.586	71.370	-20.5242
1017.96	300.00	1.586	71.357	-20.1592
1018.96	300.00	1.585	71.339	-11.4791
1019.96	300.00	1.585	71.321	-7.24305
1020.96	300.00	1.585	71.310	-11.4875
1021.96	300.00	1.584	71.286	-15.1037
1022.96	300.00	1.585	71.310	-12.5021
1023.96	300.00	1.584	71.272	-1.64305
1024.96	300.00	1.583	71.252	3.59627
1025.96	300.00	1.583	71.234	-1.15616
1026.96	300.00	1.583	71.233	-14.5371
1027.96	300.00	1.582	71.219	-15.1704
1028.96	300.00	1.582	71.181	-13.4034
1029.96	300.00	1.582	71.209	-9.46565
1030.96	300.00	1.581	71.174	-5.86104
1031.96	300.00	1.581	71.170	-7.72675
1032.96	300.00	1.581	71.144	-3.68651
1033.96	300.00	1.581	71.149	0.0286195
1034.96	300.00	1.581	71.130	5.72585
1035.96	300.00	1.581	71.132	22.3041
1036.96	300.00	1.580	71.112	27.7019
1037.96	300.00	1.580	71.109	28.5477
1038.96	300.00	1.579	71.083	26.8578
1039.96	300.00	1.579	71.070	25.2400
1040.96	300.00	1.579	71.059	26.9669
1041.96	300.00	1.579	71.049	25.8675
1042.96	300.00	1.578	71.037	22.2207
1043.96	300.00	1.578	71.028	22.2686
1044.96	300.00	1.578	71.014	27.3662
1045.96	300.00	1.578	71.003	30.3734
1046.96	300.00	1.577	70.992	32.5642
1047.96	300.00	1.577	70.974	33.2707
1048.96	300.00	1.577	70.976	33.6100
1049.96	300.00	1.576	70.949	29.7497
1050.96	300.00	1.577	70.952	27.9715
1051.96	300.00	1.576	70.940	20.7396
1052.96	300.00	1.576	70.924	12.7783
1053.96	300.00	1.576	70.929	-5.28870
1054.96	300.00	1.576	70.936	-12.0551
1055.96	300.00	1.575	70.880	-19.4264
1056.96	300.00	1.575	70.878	-23.2611
1057.96	300.00	1.575	70.870	-25.0437
1058.96	300.00	1.574	70.854	-24.5817
1059.96	300.00	1.574	70.851	-21.1488
1060.96	300.00	1.574	70.823	-16.5550
1061.96	300.00	1.574	70.832	-6.43783
1062.96	300.00	1.573	70.809	-1.97830
1063.96	300.00	1.573	70.802	2.21676
1064.96	300.00	1.573	70.786	5.35752
1065.96	300.00	1.573	70.782	7.36828
1066.96	300.00	1.572	70.768	8.88292
1067.96	300.00	1.572	70.760	11.3752
1068.96	300.00	1.572	70.741	13.4612
1069.96	300.00	1.572	70.748	11.1839
1070.96	300.00	1.571	70.714	6.57818
1071.96	300.00	1.571	70.713	3.37143
1072.96	300.00	1.571	70.700	-4.13576
1073.96	300.00	1.570	70.673	-11.9622
1074.96	300.00	1.571	70.684	-24.3905
1075.96	300.00	1.570	70.652	-30.0711
1076.96	300.00	1.570	70.653	-28.6941
1077.96	300.00	1.569	70.632	-25.6818
1078.96	300.00	1.569	70.616	-20.8835
1079.96	300.00	1.569	70.611	-16.2939
1080.96	300.00	1.568	70.578	-8.48535
1081.96	300.00	1.568	70.584	4.06318
1082.96	300.00	1.568	70.568	14.5645
1083.96	300.00	1.568	70.558	16.1994
1084.96	300.00	1.568	70.557	14.8053
1085.96	300.00	1.568	70.546	17.3456
1086.96	300.00	1.567	70.520	3.09994
1087.96	300.00	1.567	70.508	-13.0007
1088.96	300.00	1.567	70.500	-22.9085
1089.96	300.00	1.566	70.491	-10.4495
1090.96	300.00	1.566	70.473	9.29693
1091.96	300.00	1.566	70.460	13.0909
1092.96	300.00	1.565	70.451	5.50110
1093.96	300.00	1.565	70.448	-3.78894
1094.96	300.00	1.565	70.439	-10.7924
1095.96	300.00	1.565	70.420	-16.9291
1096.96	300.00	1.564	70.400	-19.9033
1097.96	300.00	1.564	70.379	-15.7488
1098.96	300.00	1.564	70.392	-6.51979
1099.96	300.00	1.564	70.378	-0.572897
1100.96	300.00	1.563	70.357	3.76664
1101.96	300.00	1.564	70.384	2.50491
1102.96	300.00	1.563	70.332	3.33165
1103.96	300.00	1.562	70.310	5.66935
1104.96	300.00	1.562	70.304	8.08487
1105.96	300.00	1.562	70.313	11.2527
1106.96	300.00	1.562	70.303	18.0696
1107.96	300.00	1.562	70.290	19.8843
1108.96	300.00	1.561	70.267	20.6962
1109.96	300.00	1.562	70.282	17.0926
1110.96	300.00	1.560	70.219	9.18948
1111.96	300.00	1.561	70.241	0.461534
1112.96	300.00	1.560	70.228	-6.72286
1113.96	300.00	1.560	70.217	-6.17050
1114.96	300.00	1.560	70.211	1.05281
1115.96	300.00	1.560	70.201	5.32563
1116.96	300.00	1.560	70.192	5.74413
1117.96	300.00	1.559	70.175	3.37267
1118.96	300.00	1.559	70.151	-1.22741
1119.96	300.00	1.559	70.165	-7.38890
1120.96	300.00	1.559	70.149	-5.60304
1121.96	300.00	1.558	70.135	-4.70346
1122.96	300.00	1.558	70.121	1.32498
1123.96	300.00	1.558	70.129	4.98366
1124.96	300.00	1.558	70.105	-1.87534
1125.96	300.00	1.557	70.080	-7.70924
1126.96	300.00	1.557	70.070	-9.11922
1127.96	300.00	1.557	70.068	-18.4795
1128.96	300.00	1.557	70.065	-17.8625
1129.96	300.00	1.556	70.047	-14.6224
1130.96	300.00	1.556	70.034	-1.41257
1131.96	300.00	1.556	70.035	16.9006
1132.96	300.00	1.556	70.012	26.0687
1133.96	300.00	1.556	70.044	27.6205
1134.96	300.00	1.555	69.979	18.3652
1135.96	300.00	1.555	69.977	4.53793
1136.96	300.00	1.555	69.973	-4.36301
1137.96	300.00	1.555	69.960	-6.68591
1138.96	300.00	1.554	69.948	-4.71265
1139.96	300.00	1.554	69.944	-5.66598
1140.96	300.00	1.554	69.930	-1.01402
1141.96	300.00	1.554	69.920	2.54601
1142.96	300.00	1.553	69.913	3.96102
1143.96	300.00	1.553	69.889	3.47329
1144.96	300.00	1.553	69.872	0.0296329
1145.96	300.00	1.553	69.878	-2.18749
1146.96	300.00	1.553	69.872	-2.64983
1147.96	300.00	1.552	69.863	-3.29938
1148.96	300.00	1.552	69.857	2.89036
1149.96	300.00	1.552	69.830	9.08990
1150.96	300.00	1.551	69.821	10.7423
1151.96	300.00	1.551	69.822	12.2270
1152.96	300.00	1.551	69.818	10.3930
1153.96	300.00	1.551	69.796	6.78485
1154.96	300.00	1.551	69.783	3.10348
1155.96	300.00	1.550	69.764	0.162798
1156.96	300.00	1.550	69.758	-3.31901
1157.96	300.00	1.550	69.769	-0.687998
1158.96	300.00	1.550	69.758	7.12153
1159.96	300.00	1.549	69.730	10.9957
1160.96	300.00	1.549	69.728	11.7632
1161.96	300.00	1.549	69.714	5.06153
1162.96	300.00	1.549	69.700	-7.99517
1163.96	300.00	1.548	69.689	-20.6727
1164.96	300.00	1.548	69.676	-30.6838
1165.96	300.00	1.548	69.680	-26.0704
1166.96	300.00	1.548	69.657	-24.7771
1167.96	300.00	1.547	69.634	-21.3195
1168.96	300.00	1.547	69.620	-18.8243
1169.96	300.00	1.547	69.617	-17.0476
1170.96	300.00	1.547	69.614	-11.7786
1171.96	300.00	1.546	69.597	-2.60206
1172.96	300.00	1.547	69.625	6.78486
1173.96	300.00	1.546	69.579	16.8525
1174.96	300.00	1.546	69.557	18.9261
1175.96	300.00	1.546	69.560	21.7802
1176.96	300.00	1.546	69.556	15.9050
1177.96	300.00	1.545	69.551	4.68354
1178.96	300.00	1.545	69.548	-0.161681
1179.96	300.00	1.544	69.507	-3.37782
1180.96	300.00	1.544	69.504	-5.61257
1181.96	300.00	1.545	69.520	-4.23916
1182.96	300.00	1.544	69.498	-4.11765
1183.96	300.00	1.544	69.485	-4.00564
1184.96	300.00	1.544	69.472	-5.28853
1185.96	300.00	1.543	69.461	-10.0559
1186.96	300.00	1.543	69.446	-13.8279
1187.96	300.00	1.543	69.434	-13.4645
1188.96	300.00	1.543	69.425	-9.96629
1189.96	300.00	1.542	69.413	-5.77755
1190.96	300.00	1.542	69.409	3.91697
1191.96	300.00	1.542	69.400	13.9039
1192.96	300.00	1.542	69.381	21.9426
1193.96	300.00	1.541	69.366	19.7321
1194.96	300.00	1.541	69.371	14.9431
1195.96	300.00	1.541	69.351	5.77127
1196.96	300.00	1.541	69.336	4.74375
1197.96	300.00	1.541	69.333	6.70321
1198.96	300.00	1.540	69.320	10.1443
1199.96	300.00	1.540	69.314	11.7077
1200.96	300.00	1.539	69.284	12.6549
1201.96	300.00	1.540	69.302	8.89187
1202.96	300.00	1.539	69.258	2.59182
1203.96	300.00	1.539	69.267	2.86321
1204.96	300.00	1.539	69.243	8.10297
1205.96	300.00	1.538	69.236	15.1915
1206.96	300.00	1.538	69.231	21.6767
1207.96	300.00	1.538	69.224	34.0440
1208.96	300.00	1.538	69.214	35.1239
1209.96	300.00	1.538	69.198	26.1124
1210.96	300.00	1.537	69.185	5.42007
1211.96	300.00	1.537	69.173	-3.87300
1212.96	300.00	1.537	69.163	-9.94523
1213.96	300.00	1.537	69.164	-16.9566
1214.96	300.00	1.536	69.145	-21.9732
1215.96	300.00	1.536	69.132	-24.7756
1216.96	300.00	1.536	69.125	-24.8324
1217.96	300.00	1.536	69.113	-25.0349
1218.96	300.00	1.535	69.093	-27.3846
1219.96	300.00	1.535	69.083	-24.8189
1220.96	300.00	1.535	69.089	-13.8339
1221.96	300.00	1.535	69.078	-8.13322
1222.96	300.00	1.534	69.027	0.357875
1223.96	300.00	1.534	69.048	7.32694
1224.96	300.00	1.534	69.042	12.0330
1225.96	300.00	1.534	69.043	21.4097
1226.96	300.00	1.533	68.990	24.0356
1227.96	300.00	1.533	68.999	23.7825
1228.96	300.00	1.533	68.986	23.9674
1229.96	300.00	1.533	68.980	17.7146
1230.96	300.00	1.533	68.980	9.62921
1231.96	300.00	1.532	68.962	3.69675
1232.96	300.00	1.532	68.939	-0.187530
1233.96	300.00	1.532	68.930	-0.651320
1234.96	300.00	1.532	68.928	-2.58387
1235.96	300.00	1.531	68.912	-8.63776
1236.96	300.00	1.531	68.896	-10.3167
1237.96	300.00	1.531	68.894	-1.03015
1238.96	300.00	1.531	68.881	-2.10028
1239.96	300.00	1.530	68.868	-2.26980
1240.96	300.00	1.530	68.843	-2.66793
1241.96	300.00	1.530	68.842	-5.75690
1242.96	300.00	1.530	68.839	-7.92521
1243.96	300.00	1.529	68.826	-3.23649
1244.96	300.00	1.529	68.810	-1.56519
1245.96	300.00	1.529	68.829	-4.21482
1246.96	300.00	1.529	68.794	-10.0066
1247.96	300.00	1.528	68.754	-5.41950
1248.96	300.00	1.528	68.785	3.30153
1249.96	300.00	1.528	68.782	8.37359
1250.96	300.00	1.528	68.748	10.3648
1251.96	300.00	1.528	68.762	12.4455
1252.96	300.00	1.527	68.739	13.2995
1253.96	300.00	1.527	68.725	16.5111
1254.96	300.00	1.527	68.727	12.1258
1255.96	300.00	1.527	68.707	5.70917
1256.96	300.00	1.526	68.692	-0.145628
1257.96	300.00	1.526	68.684	-0.0123492
1258.96	300.00	1.526	68.673	-4.68184e-3
1259.96	300.00	1.526	68.660	-3.97490e-3
1260.96	300.00	1.525	68.645	-4.18392e-3
1261.96	300.00	1.525	68.639	-5.22037e-3
1262.96	300.00	1.525	68.641	-7.05614e-3
1263.96	300.00	1.525	68.618	-0.0102348
1264.96	300.11	1.525	68.623	-0.0154334
1265.96	303.65	1.525	68.644	-0.0237047
1266.96	311.47	1.525	68.637	-0.0369879
1267.96	320.46	1.524	68.597	-0.0583624
1268.96	329.72	1.523	68.545	-0.0925403
1269.96	339.21	1.520	68.416	-0.145039
1270.96	349.01	1.516	68.217	-0.217457
1271.96	359.06	1.507	67.803	-0.301018
1272.96	369.23	1.490	67.042	-0.380470
1273.96	379.44	1.459	65.667	-0.449439
1274.96	389.63	1.404	63.164	-0.506234
1275.96	399.76	1.304	58.687	-0.547696
1276.96	409.84	1.131	50.909	-0.572861
1277.96	419.88	0.856	38.513	-0.581690
1278.96	429.91	0.499	22.467	-0.574060
1279.96	439.93	0.185	8.315	-0.549761
1280.96	449.96	0.036	1.642	-0.508897
1281.96	459.98	-0.002	-0.074	-0.452219
1282.96	470.01	-0.013	-0.592	-0.381404
1283.96	480.04	-0.018	-0.808	-0.299722
1284.96	490.08	-0.019	-0.865	-0.212733
1285.96	500.10	-0.019	-0.872	-0.129589
1286.96	510.16	-0.020	-0.893	-0.0627692
1287.96	520.18	-0.020	-0.880	-0.0223968
1288.96	530.20	-0.019	-0.876	-6.44236e-3
1289.96	540.22	-0.019	-0.875	-1.95781e-3
1290.96	550.25	-0.020	-0.888	-4.75837e-4
1291.96	560.28	-0.020	-0.882	1.20058e-4
1292.96	570.30	-0.020	-0.882	3.37934e-4
1293.96	580.32	-0.019	-0.873	4.74763e-4
1294.96	590.34	-0.020	-0.888	6.01066e-4
1295.96	600.36	-0.018	-0.831	7.50176e-4
1296.96	610.38	-0.019	-0.868	8.92477e-4
1297.96	620.41	-0.018	-0.827	1.03183e-3
1298.96	630.43	-0.018	-0.832	1.18236e-3
1299.96	640.44	-0.018	-0.808	1.32423e-3
1300.96	650.46	-0.018	-0.801	1.40878e-3
1301.96	660.47	-0.018	-0.792	1.47167e-3
1302.96	670.49	-0.017	-0.780	1.54427e-3
1303.96	680.51	-0.017	-0.752	1.58270e-3
1304.96	690.53	-0.016	-0.724	1.69600e-3
1305.96	700.54	-0.016	-0.720	1.74358e-3
1306.96	710.56	-0.016	-0.709	1.76715e-3
1307.96	720.57	-0.015	-0.660	1.77607e-3
1308.96	730.59	-0.015	-0.696	1.79577e-3
1309.96	740.60	-0.015	-0.667	1.79708e-3
1310.96	750.61	-0.014	-0.626	1.80042e-3
1311.96	760.62	-0.014	-0.616	1.79227e-3
1312.96	770.64	-0.012	-0.545	1.83528e-3
1313.96	780.65	-0.013	-0.588	1.85274e-3
1314.54	786.49	-0.012	-0.556	1.86668e-3