File: data/TGA/005d-L_M/A1000_000001 -temp_104 AMU_XIC
Time	Ion Current
min	mA
0.00	1.00000e-13
0.97	1.00000e-13
1.94	1.00000e-13
2.91	1.00000e-13
3.88	1.00000e-13
4.85	1.00000e-13
5.82	1.00000e-13
6.79	1.00000e-13
7.76	1.00000e-13
8.73	1.00000e-13
9.70	1.00000e-13
10.67	1.00000e-13
11.64	1.27439e-6
12.61	1.00000e-13
13.58	1.30914e-5
14.55	1.00000e-13
15.52	1.00000e-13
16.49	1.00000e-13
17.46	1.00000e-13
18.43	1.00000e-13
19.40	1.00000e-13
20.37	1.00000e-13
21.34	1.00000e-13
22.31	1.00000e-13
23.28	1.00000e-13
24.25	1.00000e-13
25.22	1.00000e-13
26.19	1.00000e-13
27.16	1.00000e-13
28.13	1.00000e-13
29.10	1.00000e-13
30.07	1.00000e-13
31.04	1.00000e-13
32.01	1.00000e-13
32.98	1.00000e-13
33.95	1.00000e-13
34.92	1.00000e-13
35.89	1.00000e-13
36.86	1.00000e-13
37.83	1.00000e-13
38.80	1.00000e-13
39.77	1.00000e-13
40.74	1.00000e-13
41.71	1.66829e-5
42.68	1.00000e-13
43.65	1.00000e-13
44.62	1.00000e-13
45.59	1.00000e-13
46.56	1.00000e-13
47.53	1.00000e-13
48.50	1.00000e-13
49.47	1.00000e-13
50.44	1.00000e-13
51.41	1.00000e-13
52.38	1.00000e-13
53.35	1.00000e-13
54.32	1.00000e-13
55.29	1.00000e-13
56.26	2.72256e-5
57.23	1.49451e-5
58.20	1.00000e-13
59.17	2.73414e-5
60.14	1.00000e-13
61.11	1.00000e-13
62.08	3.83475e-5
63.05	4.57621e-5
64.02	3.20914e-5
64.99	1.02994e-4
65.96	4.79633e-5
66.93	1.08207e-4
67.90	7.10182e-5
68.87	1.34622e-4
69.84	1.00793e-4
70.81	1.51884e-4
71.78	8.29511e-5
72.75	1.24658e-4
73.72	6.63840e-5
74.69	6.87011e-5
75.66	9.37255e-5
76.63	8.54999e-5
77.60	1.62890e-4
78.57	9.96340e-5
79.54	1.21762e-4
80.50	7.25243e-5
81.48	4.76158e-5
82.45	1.03341e-4
83.41	9.24511e-5
84.39	1.23152e-4
85.36	1.14232e-4
86.32	9.84755e-5
87.30	9.46523e-5
88.27	7.04389e-5
89.23	1.23152e-4
90.21	6.11706e-5
91.17	9.07133e-5
92.14	7.61157e-5
93.12	5.90853e-5
94.09	9.69694e-5
95.06	9.56950e-5
96.03	9.53474e-5
96.99	9.31462e-5
97.97	7.63474e-5
98.93	9.07133e-5
99.90	1.06469e-4
100.88	6.10548e-5
101.85	1.41573e-4
102.82	8.57316e-5
103.79	8.59633e-5
104.75	7.06706e-5
105.72	3.99694e-5
106.69	6.70792e-5
107.66	5.50304e-5
108.63	1.14927e-4
109.61	1.08671e-4
110.57	8.17925e-5
111.54	4.87743e-5
112.51	5.19024e-5
113.49	2.36341e-5
114.45	5.29450e-5
115.43	5.15548e-5
116.39	7.24084e-5
117.37	4.12438e-5
118.34	1.21067e-4
119.31	2.36341e-5
120.27	1.18866e-4
121.24	7.66950e-5
122.21	6.15182e-5
123.18	8.26035e-5
124.15	7.18292e-5
125.12	4.48353e-5
126.09	6.42987e-5
127.07	6.20975e-5
128.04	9.44206e-5
129.00	5.81584e-5
129.98	2.95426e-5
130.94	1.00000e-13
131.92	6.66158e-5
132.88	6.25609e-5
133.85	8.24877e-5
134.82	6.11706e-5
135.80	4.39085e-5
136.76	3.64938e-5
137.73	3.81158e-5
138.70	1.01835e-4
139.68	6.85853e-5
140.65	2.90792e-5
141.61	4.65731e-5
142.58	5.31767e-5
143.56	3.18597e-5
144.52	9.84755e-6
145.49	4.37926e-5
146.47	2.01585e-5
147.44	9.48840e-5
148.40	1.00000e-13
149.37	4.77316e-5
150.34	9.15242e-6
151.31	1.63353e-5
152.28	1.95792e-5
153.25	1.30914e-5
154.22	3.19756e-5
155.19	2.35183e-5
156.16	9.07133e-5
157.13	5.01646e-5
158.10	4.49512e-5
159.07	1.79573e-5
160.04	9.15242e-6
161.01	2.60670e-5
161.98	6.14023e-5
162.96	2.22439e-5
163.92	6.12865e-5
164.89	4.24024e-5
165.86	5.95487e-5
166.83	4.74999e-5
167.80	6.76584e-5
168.77	4.98170e-6
169.74	1.95792e-5
170.71	1.32073e-5
171.68	1.77256e-5
172.65	1.91158e-5
173.62	6.71950e-6
174.59	3.35975e-6
175.56	5.79267e-7
176.53	9.61584e-6
177.50	1.07744e-5
178.47	8.80486e-6
179.44	1.00000e-13
180.41	8.10974e-7
181.38	3.91585e-5
182.35	6.25609e-6
183.32	1.05427e-5
184.29	4.61097e-5
185.26	1.52927e-5
186.23	2.66463e-5
187.20	3.16280e-5
188.17	4.43719e-5
189.14	3.54512e-5
190.11	4.22865e-5
191.08	6.71950e-6
192.05	8.22560e-6
193.02	1.50610e-5
193.99	5.01646e-5
194.96	1.33232e-5
195.93	1.81890e-5
196.90	1.15853e-7
197.87	1.39024e-5
198.84	5.51463e-5
199.81	4.81951e-5
200.78	3.27865e-5
201.75	1.12378e-5
202.72	1.70305e-5
203.69	2.66463e-5
204.66	1.00000e-13
205.63	1.03110e-5
206.60	1.00000e-13
207.57	1.29756e-5
208.54	1.08902e-5
209.51	1.00000e-13
210.48	1.63353e-5
211.45	2.89634e-6
212.42	1.00000e-13
213.39	9.96340e-6
214.36	1.51768e-5
215.33	1.00000e-13
216.30	8.80486e-6
217.27	6.14023e-6
218.24	1.00000e-13
219.21	1.00000e-13
220.18	1.84207e-5
221.15	1.00000e-13
222.12	1.00000e-13
223.09	6.95121e-7
224.06	2.29390e-5
225.03	1.66829e-5
226.00	1.00000e-13
226.97	1.00000e-13
227.94	1.00000e-13
228.91	1.00000e-13
229.88	4.79633e-5
230.85	8.10974e-6
231.82	1.00000e-13
232.79	1.00000e-13
233.76	1.12378e-5
234.73	1.84207e-5
235.70	9.73169e-6
236.67	1.00000e-13
237.64	7.54206e-5
238.61	2.38658e-5
239.58	1.00000e-13
240.55	1.00000e-13
241.52	1.00000e-13
242.49	2.06219e-5
243.46	1.00000e-13
244.43	1.00000e-13
245.40	6.02438e-6
246.37	1.00000e-13
247.34	1.00000e-13
248.31	1.00000e-13
249.28	1.26280e-5
250.25	1.00000e-13
251.22	1.00000e-13
252.19	1.00000e-13
253.16	1.00000e-13
254.13	1.00000e-13
255.10	5.90853e-6
256.07	4.86585e-6
257.04	1.00000e-13
258.01	1.65670e-5
258.98	1.49451e-5
259.95	1.98109e-5
260.92	7.64633e-6
261.89	1.00793e-5
262.86	2.02744e-5
263.83	7.99389e-6
264.80	1.00000e-13
265.77	1.00000e-13
266.74	1.00000e-13
267.71	4.28658e-5
268.68	1.00000e-13
269.65	1.00000e-13
270.62	3.07012e-5
271.59	1.00000e-13
272.56	1.00000e-13
273.53	1.05427e-5
274.50	1.63353e-5
275.47	1.00000e-13
276.44	5.79267e-6
277.41	1.00000e-13
278.38	1.00000e-13
279.35	1.00000e-13
280.32	7.06706e-6
281.29	1.00000e-13
282.26	1.00000e-13
283.23	1.00000e-13
284.20	1.00000e-13
285.17	1.00000e-13
286.14	1.00000e-13
287.11	3.24390e-6
288.08	2.78048e-5
289.05	1.37866e-5
290.02	5.89694e-5
290.99	1.00000e-13
291.96	1.45975e-5
292.93	1.00000e-13
293.90	1.00000e-13
294.87	1.83048e-5
295.84	1.00000e-13
296.81	1.00000e-13
297.78	1.00000e-13
298.75	1.00000e-13
299.72	1.00000e-13
300.69	1.00000e-13
301.66	1.11219e-5
302.63	1.00000e-13
303.60	1.00000e-13
304.57	1.00000e-13
305.54	9.15242e-6
306.51	1.00000e-13
307.48	1.00000e-13
308.45	1.00000e-13
309.42	1.00000e-13
310.39	1.00000e-13
311.36	1.00000e-13
312.33	1.00000e-13
313.30	1.00000e-13
314.27	3.24390e-6
315.24	1.00000e-13
316.21	3.47560e-6
317.18	1.00000e-13
318.15	1.86524e-5
319.12	1.00000e-13
320.09	1.00000e-13
321.06	1.00000e-13
322.03	1.00000e-13
323.00	2.78048e-6
323.97	1.00000e-13
324.94	1.00000e-13
325.91	1.00000e-13
326.88	1.00000e-13
327.85	1.12378e-5
328.82	1.00000e-13
329.79	1.00000e-13
330.76	1.00000e-13
331.73	4.51829e-6
332.70	5.44511e-6
333.67	1.00000e-13
334.64	1.00000e-13
335.61	1.00000e-13
336.58	1.00000e-13
337.55	1.30914e-5
338.52	1.00000e-13
339.49	1.00000e-13
340.46	1.00000e-13
341.43	1.00000e-13
342.40	1.00000e-13
343.37	1.00000e-13
344.34	1.00000e-13
345.31	1.00000e-13
346.28	1.00000e-13
347.25	1.00000e-13
348.22	1.00000e-13
349.19	1.00000e-13
350.16	1.00000e-13
351.13	1.00000e-13
352.10	1.63353e-5
353.07	1.00000e-13
354.04	1.00000e-13
355.01	1.00000e-13
355.98	3.70731e-5
356.95	1.00000e-13
357.92	1.00000e-13
358.89	1.00000e-13
359.86	1.00000e-13
360.83	1.00000e-13
361.80	1.00000e-13
362.77	1.00000e-13
363.74	1.00000e-13
364.71	1.00000e-13
365.68	1.00000e-13
366.65	1.00000e-13
367.62	1.15853e-6
368.59	1.00000e-13
369.56	1.00000e-13
370.53	1.00000e-13
371.50	1.00000e-13
372.47	1.00000e-13
373.44	1.00000e-13
374.41	1.00000e-13
375.38	1.00000e-13
376.35	1.00000e-13
377.32	1.49451e-5
378.29	6.83536e-6
379.26	1.00000e-13
380.22	3.38292e-5
381.19	1.00000e-13
382.17	1.00000e-13
383.14	1.00000e-13
384.10	1.00000e-13
385.08	1.00000e-13
386.05	1.00000e-13
387.02	1.00000e-13
387.98	1.00000e-13
388.96	1.00000e-13
389.92	1.00000e-13
390.89	1.00000e-13
391.87	1.00000e-13
392.83	1.00000e-13
393.80	1.00000e-13
394.78	1.00000e-13
395.75	1.00000e-13
396.72	1.00000e-13
397.68	1.00000e-13
398.66	1.00000e-13
399.62	1.67988e-5
400.60	1.00000e-13
401.57	1.00000e-13
402.54	1.00000e-13
403.51	1.00000e-13
404.47	1.00000e-13
405.44	1.00000e-13
406.41	1.00000e-13
407.38	1.00000e-13
408.36	1.00000e-13
409.33	1.04268e-6
410.30	1.00000e-13
411.26	1.00000e-13
412.24	1.00000e-13
413.21	1.00000e-13
414.17	1.00000e-13
415.14	6.37194e-6
416.12	1.00000e-13
417.08	1.00000e-13
418.05	1.00000e-13
419.02	1.00000e-13
419.99	1.00000e-13
420.96	1.00000e-13
421.93	1.00000e-13
422.90	4.63414e-6
423.88	1.00000e-13
424.85	1.00000e-13
425.82	1.00000e-13
426.78	1.00000e-13
427.76	1.00000e-13
428.73	1.00000e-13
429.70	1.00000e-13
430.66	3.11646e-5
431.64	1.00000e-13
432.61	1.00000e-13
433.57	1.00000e-13
434.54	1.00000e-13
435.51	1.00000e-13
436.49	1.00000e-13
437.46	1.00000e-13
438.42	1.00000e-13
439.39	1.00000e-13
440.36	1.00000e-13
441.34	1.00000e-13
442.30	1.00000e-13
443.27	1.00000e-13
444.25	1.00000e-13
445.21	1.00000e-13
446.18	1.00000e-13
447.15	1.00000e-13
448.13	1.00000e-13
449.09	1.00000e-13
450.07	1.00000e-13
451.03	1.00000e-13
452.01	1.00000e-13
452.98	1.00000e-13
453.95	1.00000e-13
454.91	1.00000e-13
455.88	1.00000e-13
456.86	1.00000e-13
457.83	1.00000e-13
458.79	8.22560e-6
459.76	6.71950e-6
460.73	1.00000e-13
461.70	8.68901e-6
462.67	1.00000e-13
463.64	1.00000e-13
464.61	1.00000e-13
465.58	1.00000e-13
466.55	1.27439e-6
467.52	1.00000e-13
468.50	1.00000e-13
469.46	1.00000e-13
470.44	1.00000e-13
471.41	1.00000e-13
472.37	1.00000e-13
473.34	1.00000e-13
474.31	1.00000e-13
475.28	1.00000e-13
476.26	1.00000e-13
477.22	1.00000e-13
478.19	1.00000e-13
479.16	1.00000e-13
480.13	1.00000e-13
481.11	1.00000e-13
482.07	1.00000e-13
483.04	1.00000e-13
484.01	1.00000e-13
484.98	1.00000e-13
485.95	1.00000e-13
486.92	1.00000e-13
487.89	1.00000e-13
488.86	1.00000e-13
489.83	1.00000e-13
490.80	1.00000e-13
491.77	1.00000e-13
492.75	1.00000e-13
493.71	1.00000e-13
494.68	1.00000e-13
495.66	1.00000e-13
496.62	1.00000e-13
497.59	1.00000e-13
498.56	1.00000e-13
499.53	1.00000e-13
500.50	1.00000e-13
501.47	1.00000e-13
502.44	1.00000e-13
503.41	8.34145e-6
504.38	1.00000e-13
505.35	1.00000e-13
506.32	1.00000e-13
507.29	1.00000e-13
508.26	1.00000e-13
509.23	1.00000e-13
510.20	1.00000e-13
511.17	1.00000e-13
512.14	1.00000e-13
513.11	1.00000e-13
514.08	1.00000e-13
515.05	1.00000e-13
516.02	8.10974e-6
516.99	1.00000e-13
517.96	5.90853e-6
518.93	1.00000e-13
519.90	1.00000e-13
520.87	1.27439e-5
521.84	1.00000e-13
522.81	1.00000e-13
523.78	1.00000e-13
524.75	1.00000e-13
525.72	1.00000e-13
526.69	7.99389e-6
527.66	1.00000e-13
528.63	1.00000e-13
529.60	1.00000e-13
530.57	1.00000e-13
531.54	3.47560e-6
532.51	1.00000e-13
533.48	1.00000e-13
534.45	1.00000e-13
535.42	1.00000e-13
536.39	1.04268e-6
537.36	1.00000e-13
538.33	9.49998e-6
539.30	1.00000e-13
540.27	1.00000e-13
541.24	1.00000e-13
542.21	1.00000e-13
543.18	1.00000e-13
544.15	1.00000e-13
545.12	1.00000e-13
546.09	1.00000e-13
547.06	1.00000e-13
548.03	1.00000e-13
549.00	1.00000e-13
549.97	1.00000e-13
550.94	1.00000e-13
551.91	1.00000e-13
552.88	1.00000e-13
553.85	1.00000e-13
554.82	1.00000e-13
555.79	1.00000e-13
556.76	1.00000e-13
557.73	1.00000e-13
558.70	1.00000e-13
559.67	1.00000e-13
560.64	1.00000e-13
561.61	1.00000e-13
562.58	1.00000e-13
563.55	1.00000e-13
564.52	1.00000e-13
565.49	1.00000e-13
566.46	1.00000e-13
567.43	1.00000e-13
568.40	1.00000e-13
569.37	1.00000e-13
570.34	1.00000e-13
571.31	1.00000e-13
572.28	1.00000e-13
573.25	1.00000e-13
574.22	1.00000e-13
575.19	1.00000e-13
576.16	1.00000e-13
577.13	1.00000e-13
578.10	1.00000e-13
579.07	1.00000e-13
580.04	1.00000e-13
581.01	1.00000e-13
581.98	1.00000e-13
582.95	1.00000e-13
583.92	1.00000e-13
584.89	1.00000e-13
585.86	1.00000e-13
586.83	1.00000e-13
587.80	1.00000e-13
588.77	1.00000e-13
589.74	1.00000e-13
590.71	1.00000e-13
591.68	1.00000e-13
592.65	1.00000e-13
593.62	1.00000e-13
594.59	1.00000e-13
595.56	1.00000e-13
596.53	1.00000e-13
597.50	1.00000e-13
598.47	1.00000e-13
599.44	1.00000e-13
600.41	1.00000e-13
601.38	1.00000e-13
602.35	1.00000e-13
603.32	1.00000e-13
604.29	1.00000e-13
605.26	1.00000e-13
606.23	1.00000e-13
607.20	1.00000e-13
608.17	1.00000e-13
609.14	1.00000e-13
610.11	1.00000e-13
611.08	1.00000e-13
612.05	1.00000e-13
613.02	1.00000e-13
613.99	1.00000e-13
614.96	1.00000e-13
615.93	1.00000e-13
616.90	1.00000e-13
617.87	1.00000e-13
618.84	1.00000e-13
619.81	1.00000e-13
620.78	1.00000e-13
621.75	1.00000e-13
622.72	2.08536e-6
623.69	1.00000e-13
624.66	1.00000e-13
625.63	1.00000e-13
626.60	9.38413e-6
627.57	1.00000e-13
628.54	1.00000e-13
629.51	1.00000e-13
630.48	1.00000e-13
631.45	1.00000e-13
632.42	1.00000e-13
633.39	1.00000e-13
634.36	1.00000e-13
635.33	1.00000e-13
636.30	1.00000e-13
637.27	1.00000e-13
638.24	1.00000e-13
639.21	1.00000e-13
640.18	1.00000e-13
641.15	1.00000e-13
642.12	1.00000e-13
643.09	1.00000e-13
644.06	1.00000e-13
645.03	1.00000e-13
646.00	1.00000e-13
646.97	1.00000e-13
647.94	1.00000e-13
648.91	1.00000e-13
649.88	1.00000e-13
650.85	1.00000e-13
651.82	1.00000e-13
652.79	1.00000e-13
653.76	1.00000e-13
654.73	1.00000e-13
655.70	1.00000e-13
656.67	1.39024e-6
657.64	1.00000e-13
658.61	1.00000e-13
659.58	1.62195e-6
660.55	1.00000e-13
661.52	1.00000e-13
662.49	1.00000e-13
663.46	1.00000e-13
664.43	1.00000e-13
665.40	1.00000e-13
666.37	1.00000e-13
667.34	1.00000e-13
668.31	1.00000e-13
669.28	1.00000e-13
670.25	1.00000e-13
671.22	1.00000e-13
672.19	1.00000e-13
673.16	1.00000e-13
674.13	1.00000e-13
675.10	1.00000e-13
676.07	1.00000e-13
677.04	1.00000e-13
678.01	1.00000e-13
678.98	1.00000e-13
679.95	1.00000e-13
680.92	1.00000e-13
681.89	1.00000e-13
682.86	1.00000e-13
683.83	1.00000e-13
684.80	1.00000e-13
685.77	5.90853e-6
686.74	1.00000e-13
687.71	1.00000e-13
688.68	1.13536e-5
689.65	1.00000e-13
690.62	1.00000e-13
691.59	1.00000e-13
692.56	1.00000e-13
693.53	1.00000e-13
694.50	1.00000e-13
695.47	1.00000e-13
696.44	1.00000e-13
697.41	1.00000e-13
698.38	1.00000e-13
699.35	1.00000e-13
700.32	1.00000e-13
701.29	1.00000e-13
702.26	1.00000e-13
703.23	1.00000e-13
704.20	1.00000e-13
705.17	1.00000e-13
706.14	1.00000e-13
707.11	1.00000e-13
708.08	3.48719e-5
709.05	1.00000e-13
710.02	1.00000e-13
710.99	1.00000e-13
711.96	1.00000e-13
712.93	1.00000e-13
713.90	1.00000e-13
714.87	1.00000e-13
715.84	1.00000e-13
716.81	1.00000e-13
717.78	1.00000e-13
718.75	1.00000e-13
719.72	1.00000e-13
720.69	1.00000e-13
721.66	1.00000e-13
722.63	1.00000e-13
723.60	1.00000e-13
724.57	1.00000e-13
725.53	1.00000e-13
726.51	1.00000e-13
727.47	1.00000e-13
728.45	1.00000e-13
729.42	1.00000e-13
730.39	1.00000e-13
731.36	1.00000e-13
732.32	1.88841e-5
733.30	1.00000e-13
734.27	1.00000e-13
735.24	1.00000e-13
736.21	9.96340e-6
737.17	1.00000e-13
738.15	1.00000e-13
739.12	1.00000e-13
740.09	1.00000e-13
741.05	1.00000e-13
742.03	1.00000e-13
743.00	1.00000e-13
743.97	1.00000e-13
744.93	1.00000e-13
745.91	1.00000e-13
746.88	1.00000e-13
747.85	1.00000e-13
748.82	1.00000e-13
749.78	1.00000e-13
750.76	1.00000e-13
751.72	1.00000e-13
752.70	1.00000e-13
753.66	1.00000e-13
754.64	2.86158e-5
755.61	1.00000e-13
756.57	1.00000e-13
757.54	1.00000e-13
758.52	1.00000e-13
759.48	1.00000e-13
760.45	1.00000e-13
761.43	1.00000e-13
762.39	1.00000e-13
763.36	1.00000e-13
764.34	1.00000e-13
765.31	1.00000e-13
766.28	1.00000e-13
767.24	1.00000e-13
768.21	1.00000e-13
769.18	1.00000e-13
770.16	1.00000e-13
771.12	1.00000e-13
772.09	1.00000e-13
773.06	1.00000e-13
774.03	1.00000e-13
775.01	1.00000e-13
775.98	1.00000e-13
776.95	1.00000e-13
777.91	1.00000e-13
778.88	1.00000e-13
779.85	1.00000e-13
780.82	1.00000e-13
781.80	1.00000e-13
782.76	1.00000e-13
783.74	1.00000e-13
784.70	1.00000e-13
785.67	1.00000e-13
786.65	1.00000e-13
787.61	1.00000e-13
788.58	1.00000e-13
789.56	1.00000e-13
790.52	1.00000e-13
791.49	1.00000e-13
792.46	1.00000e-13
793.44	1.00000e-13
794.40	1.00000e-13
795.37	1.00000e-13
796.35	1.00000e-13
797.31	1.00000e-13
798.28	1.00000e-13
799.25	1.00000e-13
800.22	1.39024e-6
801.19	1.17012e-5
802.16	1.00000e-13
803.14	1.00000e-13
804.10	1.00000e-13
805.07	1.00000e-13
806.04	1.00000e-13
807.01	1.00000e-13
807.98	1.00000e-13
808.95	1.00000e-13
809.92	1.00000e-13
810.89	1.00000e-13
811.86	1.00000e-13
812.83	1.00000e-13
813.80	1.00000e-13
814.77	1.00000e-13
815.74	1.00000e-13
816.71	1.00000e-13
817.68	1.00000e-13
818.66	1.00000e-13
819.62	1.00000e-13
820.59	1.00000e-13
821.56	1.00000e-13
822.53	1.00000e-13
823.50	1.00000e-13
824.47	1.00000e-13
825.44	1.00000e-13
826.41	1.00000e-13
827.38	1.00000e-13
828.35	1.00000e-13
829.32	1.00000e-13
830.29	1.00000e-13
831.26	1.00000e-13
832.23	1.00000e-13
833.20	1.08902e-5
834.17	1.00000e-13
835.14	1.00000e-13
836.11	1.00000e-13
837.08	1.00000e-13
838.05	6.95121e-7
839.02	1.00000e-13
839.99	1.00000e-13
840.96	1.00000e-13
841.93	1.00000e-13
842.90	1.00000e-13
843.87	8.45730e-6
844.84	1.00000e-13
845.81	1.00000e-13
846.78	1.00000e-13
847.75	1.00000e-13
848.72	1.00000e-13
849.69	1.00000e-13
850.66	1.00000e-13
851.63	1.00000e-13
852.60	1.00000e-13
853.57	1.00000e-13
854.54	1.00000e-13
855.51	1.00000e-13
856.48	1.00000e-13
857.45	4.74999e-6
858.42	1.00000e-13
859.39	1.00000e-13
860.36	1.00000e-13
861.33	1.00000e-13
862.30	1.00000e-13
863.27	1.00000e-13
864.24	1.00000e-13
865.21	1.00000e-13
866.18	1.00000e-13
867.15	1.00000e-13
868.12	1.00000e-13
869.09	1.00000e-13
870.06	1.00000e-13
871.03	1.00000e-13
872.00	1.00000e-13
872.97	1.00000e-13
873.94	1.00000e-13
874.91	1.00000e-13
875.88	1.00000e-13
876.85	1.00000e-13
877.82	1.00000e-13
878.79	1.00000e-13
879.76	1.00000e-13
880.73	1.00000e-13
881.70	1.00000e-13
882.67	1.00000e-13
883.64	1.00000e-13
884.61	1.00000e-13
885.58	1.00000e-13
886.55	4.63414e-6
887.52	1.00000e-13
888.49	1.00000e-13
889.46	1.00000e-13
890.43	1.00000e-13
891.40	1.00000e-13
892.37	1.00000e-13
893.34	1.00000e-13
894.31	1.00000e-13
895.28	1.00000e-13
896.25	1.00000e-13
897.22	1.00000e-13
898.19	1.00000e-13
899.16	1.00000e-13
900.13	1.00000e-13
901.10	1.00000e-13
902.07	1.00000e-13
903.04	1.00000e-13
904.01	1.00000e-13
904.98	1.00000e-13
905.95	1.00000e-13
906.92	1.00000e-13
907.89	1.00000e-13
908.86	1.00000e-13
909.83	4.40243e-6
910.80	1.00000e-13
911.77	1.00000e-13
912.74	1.00000e-13
913.71	1.00000e-13
914.68	1.00000e-13
915.65	1.00000e-13
916.62	1.00000e-13
917.59	2.10853e-5
918.56	3.47560e-5
919.53	1.00000e-13
920.50	1.00000e-13
921.47	1.00000e-13
922.44	1.00000e-13
923.41	1.00000e-13
924.38	1.00000e-13
925.35	1.00000e-13
926.32	1.00000e-13
927.29	1.00000e-13
928.26	1.00000e-13
929.23	1.00000e-13
930.20	4.25182e-5
931.17	1.00000e-13
932.14	1.00000e-13
933.11	1.00000e-13
934.08	1.00000e-13
935.05	1.00000e-13
936.02	1.00000e-13
936.99	1.00000e-13
937.96	1.00000e-13
938.93	1.00000e-13
939.90	1.00000e-13
940.87	1.00000e-13
941.84	1.00000e-13
942.81	1.00000e-13
943.78	1.00000e-13
944.75	1.00000e-13
945.72	1.00000e-13
946.69	1.00000e-13
947.66	6.48779e-6
948.63	1.00000e-13
949.60	1.00000e-13
950.57	1.00000e-13
951.54	1.00000e-13
952.51	1.00000e-13
953.48	1.00000e-13
954.45	1.00000e-13
955.42	1.00000e-13
956.39	1.00000e-13
957.36	1.00000e-13
958.33	1.00000e-13
959.30	1.00000e-13
960.27	1.00000e-13
961.24	1.00000e-13
962.21	1.00000e-13
963.18	1.00000e-13
964.15	1.00000e-13
965.12	1.00000e-13
966.09	1.00000e-13
967.06	1.00000e-13
968.03	1.00000e-13
969.00	1.00000e-13
969.97	1.00000e-13
970.94	1.00000e-13
971.91	1.00000e-13
972.88	1.00000e-13
973.85	1.00000e-13
974.82	1.00000e-13
975.79	1.00000e-13
976.76	1.00000e-13
977.73	1.00000e-13
978.70	1.00000e-13
979.67	1.00000e-13
980.64	1.00000e-13
981.61	1.00000e-13
982.58	1.00000e-13
983.55	1.00000e-13
984.52	1.00000e-13
985.49	1.00000e-13
986.46	1.00000e-13
987.43	1.00000e-13
988.39	1.00000e-13
989.36	1.00000e-13
990.34	1.00000e-13
991.31	1.00000e-13
992.28	1.00000e-13
993.24	1.00000e-13
994.22	1.00000e-13
995.19	1.00000e-13
996.16	1.00000e-13
997.12	1.00000e-13
998.09	1.00000e-13
999.07	1.00000e-13
1000.04	1.00000e-13
1001.01	1.00000e-13
1001.98	1.00000e-13
1002.94	1.00000e-13
1003.91	1.00000e-13
1004.89	1.00000e-13
1005.86	1.00000e-13
1006.82	1.00000e-13
1007.80	1.00000e-13
1008.77	1.00000e-13
1009.73	1.00000e-13
1010.71	1.00000e-13
1011.68	1.00000e-13
1012.64	1.00000e-13
1013.62	1.00000e-13
1014.59	1.00000e-13
1015.56	1.00000e-13
1016.52	1.00000e-13
1017.49	1.00000e-13
1018.47	1.00000e-13
1019.43	1.00000e-13
1020.40	1.00000e-13
1021.37	1.00000e-13
1022.34	1.00000e-13
1023.31	1.00000e-13
1024.29	1.00000e-13
1025.26	1.00000e-13
1026.22	1.00000e-13
1027.19	1.00000e-13
1028.16	1.00000e-13
1029.13	4.05487e-6
1030.10	1.00000e-13
1031.08	1.00000e-13
1032.04	1.00000e-13
1033.01	1.00000e-13
1033.98	1.00000e-13
1034.95	1.00000e-13
1035.92	1.96951e-6
1036.90	1.00000e-13
1037.86	1.00000e-13
1038.83	1.00000e-13
1039.81	1.00000e-13
1040.78	1.00000e-13
1041.75	1.00000e-13
1042.72	1.00000e-13
1043.68	1.00000e-13
1044.65	1.00000e-13
1045.62	1.00000e-13
1046.59	1.00000e-13
1047.56	1.00000e-13
1048.53	1.00000e-13
1049.50	1.00000e-13
1050.47	1.00000e-13
1051.44	1.00000e-13
1052.42	1.00000e-13
1053.39	6.14023e-6
1054.35	1.00000e-13
1055.32	1.00000e-13
1056.29	1.00000e-13
1057.26	1.00000e-13
1058.23	1.00000e-13
1059.21	1.00000e-13
1060.17	1.00000e-13
1061.14	1.00000e-13
1062.12	1.00000e-13
1063.08	1.00000e-13
1064.05	1.00000e-13
1065.02	1.00000e-13
1065.99	1.00000e-13
1066.96	1.00000e-13
1067.94	1.00000e-13
1068.90	1.00000e-13
1069.87	1.00000e-13
1070.84	2.31707e-6
1071.81	1.00000e-13
1072.78	1.00000e-13
1073.75	1.00000e-13
1074.72	1.00000e-13
1075.69	1.00000e-13
1076.66	1.00000e-13
1077.63	1.00000e-13
1078.60	1.00000e-13
1079.57	1.00000e-13
1080.54	1.00000e-13
1081.51	1.00000e-13
1082.48	1.00000e-13
1083.45	1.00000e-13
1084.42	1.00000e-13
1085.39	1.00000e-13
1086.36	1.00000e-13
1087.33	1.00000e-13
1088.30	1.00000e-13
1089.27	1.00000e-13
1090.24	1.00000e-13
1091.21	1.00000e-13
1092.18	1.00000e-13
1093.15	1.00000e-13
1094.12	1.00000e-13
1095.09	1.00000e-13
1096.06	1.00000e-13
1097.03	1.00000e-13
1098.00	1.00000e-13
1098.97	1.00000e-13
1099.94	1.00000e-13
1100.91	1.00000e-13
1101.88	1.00000e-13
1102.85	1.00000e-13
1103.82	1.00000e-13
1104.79	1.00000e-13
1105.76	1.00000e-13
1106.73	1.00000e-13
1107.70	1.00000e-13
1108.67	1.00000e-13
1109.64	1.00000e-13
1110.61	1.00000e-13
1111.58	1.00000e-13
1112.55	1.00000e-13
1113.52	1.00000e-13
1114.49	1.00000e-13
1115.46	1.00000e-13
1116.43	1.00000e-13
1117.40	1.00000e-13
1118.37	1.00000e-13
1119.34	1.00000e-13
1120.31	1.00000e-13
1121.28	1.00000e-13
1122.25	1.00000e-13
1123.22	1.00000e-13
1124.19	1.00000e-13
1125.16	1.00000e-13
1126.13	1.00000e-13
1127.10	1.00000e-13
1128.07	1.00000e-13
1129.04	1.00000e-13
1130.01	1.00000e-13
1130.98	1.00000e-13
1131.95	1.00000e-13
1132.92	1.00000e-13
1133.89	1.00000e-13
1134.86	1.00000e-13
1135.83	1.00000e-13
1136.80	1.00000e-13
1137.77	1.00000e-13
1138.74	1.00000e-13
1139.71	1.00000e-13
1140.68	1.00000e-13
1141.65	1.00000e-13
1142.62	1.00000e-13
1143.59	1.00000e-13
1144.56	1.00000e-13
1145.53	1.00000e-13
1146.50	1.00000e-13
1147.47	1.00000e-13
1148.44	1.00000e-13
1149.41	1.00000e-13
1150.38	1.00000e-13
1151.35	1.00000e-13
1152.32	1.00000e-13
1153.29	1.00000e-13
1154.26	1.00000e-13
1155.23	1.00000e-13
1156.20	1.00000e-13
1157.17	1.00000e-13
1158.14	1.00000e-13
1159.11	1.00000e-13
1160.08	1.00000e-13
1161.05	1.00000e-13
1162.02	1.00000e-13
1162.99	1.00000e-13
1163.96	1.00000e-13
1164.93	1.00000e-13
1165.90	1.00000e-13
1166.87	1.00000e-13
1167.84	1.00000e-13
1168.81	1.00000e-13
1169.78	1.00000e-13
1170.75	1.00000e-13
1171.72	1.00000e-13
1172.69	1.00000e-13
1173.66	1.00000e-13
1174.63	1.00000e-13
1175.60	5.10914e-5
1176.57	1.17012e-5
1177.54	1.00000e-13
1178.51	1.00000e-13
1179.48	1.00000e-13
1180.45	1.00000e-13
1181.42	1.00000e-13
1182.39	1.00000e-13
1183.36	1.00000e-13
1184.33	1.00000e-13
1185.30	1.00000e-13
1186.27	1.00000e-13
1187.24	1.00000e-13
1188.21	1.00000e-13
1189.18	1.00000e-13
1190.15	1.00000e-13
1191.12	1.00000e-13
1192.09	1.00000e-13
1193.06	1.00000e-13
1194.03	1.00000e-13
1195.00	1.00000e-13
1195.97	1.00000e-13
1196.94	1.00000e-13
1197.91	1.00000e-13
1198.88	2.16646e-5
1199.85	1.00000e-13
1200.82	1.00000e-13
1201.79	1.00000e-13
1202.76	1.00000e-13
1203.73	1.00000e-13
1204.70	1.00000e-13
1205.67	1.00000e-13
1206.64	1.00000e-13
1207.61	1.00000e-13
1208.58	1.00000e-13
1209.55	1.00000e-13
1210.52	1.00000e-13
1211.49	1.00000e-13
1212.46	1.00000e-13
1213.43	1.00000e-13
1214.40	1.00000e-13
1215.37	1.00000e-13
1216.34	1.00000e-13
1217.31	1.00000e-13
1218.28	1.00000e-13
1219.25	1.00000e-13
1220.22	1.00000e-13
1221.19	1.00000e-13
1222.16	1.00000e-13
1223.13	1.00000e-13
1224.10	1.00000e-13
1225.07	1.00000e-13
1226.04	1.00000e-13
1227.01	1.00000e-13
1227.98	1.00000e-13
1228.95	1.00000e-13
1229.92	1.00000e-13
1230.89	1.00000e-13
1231.86	1.00000e-13
1232.83	1.00000e-13
1233.80	1.00000e-13
1234.77	1.00000e-13
1235.74	1.00000e-13
1236.71	1.00000e-13
1237.68	1.00000e-13
1238.65	1.00000e-13
1239.62	1.00000e-13
1240.59	1.00000e-13
1241.56	1.00000e-13
1242.53	1.00000e-13
1243.50	1.00000e-13
1244.47	1.00000e-13
1245.44	1.00000e-13
1246.41	1.00000e-13
1247.38	1.00000e-13
1248.35	3.82316e-6
1249.32	1.15853e-7
1250.29	1.00000e-13
1251.26	1.00000e-13
1252.23	1.00000e-13
1253.20	1.00000e-13
1254.17	1.00000e-13
1255.14	1.00000e-13
1256.11	1.00000e-13
1257.08	1.00000e-13
1258.05	1.00000e-13
1259.02	1.00000e-13
1259.99	1.00000e-13
1260.96	1.00000e-13
1261.93	1.00000e-13
1262.90	1.00000e-13
1263.87	1.00000e-13
1264.84	1.00000e-13
1265.81	1.00000e-13
1266.78	1.00000e-13
1267.75	1.00000e-13
1268.72	1.00000e-13
1269.69	1.00000e-13
1270.66	4.91219e-5
1271.63	7.26401e-5
1272.60	2.27073e-4
1273.57	6.13560e-4
1274.54	1.60202e-3
1275.51	2.76172e-3
1276.48	5.05747e-3
1277.45	8.28723e-3
1278.42	0.0130084
1279.39	0.0206775
1280.36	0.0285355
1281.33	0.0372854
1282.30	0.0395625
1283.27	0.0398645
1284.24	0.0334557
1285.21	0.0216309
1286.18	0.0125477
1287.15	7.17307e-3
1288.12	3.72249e-3
1289.09	2.16669e-3
1290.06	1.17128e-3
1291.03	9.30998e-4
1292.00	7.48182e-4
1292.97	4.59243e-4
1293.94	5.05121e-4
1294.91	5.11377e-4
1295.88	4.34914e-4
1296.85	3.82548e-4
1297.82	2.39701e-4
1298.79	1.74475e-4
1299.76	1.32421e-4
1300.73	1.01603e-4
1301.70	9.18718e-5
1302.67	4.37926e-5
1303.64	1.17939e-4
1304.61	6.30243e-5
1305.58	4.14755e-5
1306.55	5.06280e-5
1307.52	2.72256e-5
1308.49	3.01219e-5
1309.46	1.00000e-13
1310.43	3.04695e-5
1311.40	7.71584e-5
1312.37	7.87804e-6
1313.34	1.00000e-13
1314.31	3.16280e-5
1314.47	1.74939e-5