File: data/TGA/005d-L_M/ExpDat_2025_07_12_SL_PS_250704-P5EDR1-V3+4_isothermal.csv
#EXPORTTYPE:                 ,DATA ALL
#FILE:                       ,2025_07_12_SL_PS_250704-P5EDR1-V3+4_isothermal.ngb-ss5
#FORMAT:                     ,NETZSCH5
#FTYPE:                      ,ASCII
#IDENTITY:                   ,250704-P5EDR1-V3+4
#DECIMAL:                    ,POINT
#SEPARATOR:                  ,COMMA
#MTYPE:                      ,DSC
#INSTRUMENT:                 ,NETZSCH STA 449F5
#PROJECT:                    ,
#DATE/TIME:                  ,7/12/2025 6:49:41 PM (UTC-4)
#CORR. FILE:                 ,
#TEMPCAL:                    ,05-05-2025 14:38
#SENSITIVITY:                ,28-06-2023 13:53
#LABORATORY:                 ,Tran/AAG
#OPERATOR:                   ,Stanley
#REMARK:                     ,2025_03_29_SL_005d_M1_isothermal
#SAMPLE:                     ,250704-P5EDR1-V3+4
#SAMPLE MASS /mg:            ,4.65
#MATERIAL:                   ,Polystyrene
#REFERENCE:                  ,
#REFERENCE MASS /mg:         ,0
#TYPE OF CRUCIBLE:           ,Al2O3 85 ‘l, open
#SAMPLE CRUCIBLE MASS /mg:   ,0
#REFERENCE CRUCIBLE MASS /mg:,0
#DSC RANGE /‘V:              ,5000
#TG RANGE /mg:               ,35000
#TAU-R:                      ,---
#CORR. CODE:                 ,000
#EXO:                        ,-1
#RANGE:                      ,30›C....800›C/0.0....20.0K/min
#SEGMENT:                    ,S1-5/5
#SEG. 1:                     ,30›C/10.0(K/min)/100›C
#SEG. 2:                     ,100›C/00:10/100›C
#SEG. 3:                     ,100›C/5.0(K/min)/300›C
#SEG. 4:                     ,300›C/20:00/300›C
#SEG. 5:                     ,300›C/20.0(K/min)/800›C

##Temp./›C,Time/min,DSC/(mW/mg),Mass/%,Gas Flow(purge2)/(ml/min),Gas Flow(protective)/(ml/min),TIC(scan:1)/A,Sensit./(uV/mW),Segment
 39.51800,   0.00000,      1.10024,    100,50.00000,53.00000,            ,0.92502,1
 42.41000,   1.32000,      0.66686,     91.12688,50.00000,52.00000,2.554523e-09,0.92509,1
 46.65100,   2.64000,      0.93279,     92.10000,50.00000,52.00000,2.549674e-09,0.92516,1
 53.50800,   3.96000,      1.63344,     93.19011,50.00000,52.00000,2.552907e-09,0.92525,1
 64.03700,   5.28000,      2.55114,     94.44796,50.00000,52.00000,2.548170e-09,0.92534,1
 77.36200,   6.60000,      3.40390,     95.36280,50.00000,52.00000,2.548089e-09,0.92543,1
 86.74400,   7.44083,      3.76848,     95.63763,50.00000,52.00000,2.548616e-09,0.92549,2
 92.93300,   8.10083,      3.37881,     94.96129,50.00000,52.00000,2.557360e-09,0.92553,2
 97.41200,   8.76083,      2.66178,     94.06602,50.00000,52.00000,2.550188e-09,0.92558,2
100.746,   9.42083,      2.07879,     93.41140,50.00000,52.00000,2.553489e-09,0.92563,2
103.558,  10.08083,      1.72202,     92.94430,50.00000,53.00000,2.548156e-09,0.92566,2
105.828,  10.74083,      1.40966,     92.50387,50.00000,53.00000,2.550412e-09,0.92571,2
107.44,  11.40083,      1.05795,     91.95161,50.00000,53.00000,2.551848e-09,0.92576,2
108.463,  12.06083,      0.71256,     91.45290,50.00000,53.00000,2.545983e-09,0.92581,2
108.992,  12.72083,      0.42225,     90.98581,50.00000,53.00000,2.550565e-09,0.92586,2
109.149,  13.38083,      0.19024,     90.57699,50.00000,53.00000,2.545758e-09,0.92592,2
109.041,  14.04083, 8.395067e-03,     90.17806,50.00000,53.00000,2.542655e-09,0.92597,2
108.713,  14.70083,     -0.13966,     89.84215,50.00000,53.00000,2.546998e-09,0.92601,2
108.196,  15.36083,     -0.25089,     89.53570,50.00000,53.00000,2.543932e-09,0.92605,2
107.577,  16.02083,     -0.33190,     89.26086,50.00000,53.00000,2.540907e-09,0.92610,2
106.887,  16.68083,     -0.38520,     88.99806,50.00000,53.00000,2.540244e-09,0.92613,2
105.991,  17.72083,     -0.27891,     88.94452,50.00000,53.00000,2.545052e-09,0.92617,3
107.414,  19.04083,      0.53772,     89.82516,50.00000,53.00000,2.543310e-09,0.92620,3
110.79,  20.36083,      1.11093,     90.42129,50.00000,53.00000,2.542371e-09,0.92619,3
115.868,  21.68083,      1.68153,     91.11462,50.00000,53.00000,2.536155e-09,0.92613,3
122.315,  23.00083,      2.14069,     91.58430,50.00000,53.00000,2.540416e-09,0.92601,3
129.606,  24.32083,      2.45735,     91.90796,50.00000,53.00000,2.535981e-09,0.92582,3
137.307,  25.64083,      2.65794,     92.08301,50.00000,53.00000,2.535433e-09,0.92557,3
145.145,  26.96083,      2.75897,     92.14882,50.00000,53.00000,2.535344e-09,0.92523,3
152.877,  28.28083,      2.79999,     92.14882,50.00000,53.00000,2.533426e-09,0.92475,3
160.422,  29.60083,      2.79927,     92.14151,50.00000,53.00000,2.536658e-09,0.92443,3
167.683,  30.92083,      2.77693,     92.07570,50.00000,53.00000,2.531722e-09,0.92415,3
174.757,  32.24083,      2.74585,     92.01742,50.00000,53.00000,2.528363e-09,0.92387,3
181.642,  33.56083,      2.72290,     91.95892,50.00000,53.00000,2.523074e-09,0.92358,3
188.419,  34.88083,      2.70529,     91.90065,50.00000,53.00000,2.525978e-09,0.92329,3
195.109,  36.20083,      2.69742,     91.79828,50.00000,53.00000,2.530671e-09,0.92300,3
201.723,  37.52083,      2.69602,     91.66710,50.00000,53.00000,2.526089e-09,0.92273,3
208.328,  38.84083,      2.69827,     91.51849,50.00000,53.00000,2.528463e-09,0.92247,3
214.901,  40.16083,      2.69558,     91.32882,50.00000,53.00000,2.528717e-09,0.92222,3
221.458,  41.48083,      2.69880,     91.04172,50.00000,53.00000,2.533973e-09,0.92198,3
228.016,  42.80083,      2.69996,     90.79355,50.00000,53.00000,2.532558e-09,0.92175,3
234.565,  44.12083,      2.69585,     90.47247,50.00000,53.00000,2.522205e-09,0.92154,3
241.136,  45.44083,      2.69407,     90.12925,50.00000,53.00000,2.520223e-09,0.92134,3
247.699,  46.76083,      2.68767,     89.77161,50.00000,53.00000,2.522983e-09,0.92114,3
254.287,  48.08083,      2.67899,     89.33613,50.00000,53.00000,2.522462e-09,0.92093,3
260.842,  49.40083,      2.65903,     88.89333,50.00000,53.00000,2.523672e-09,0.92075,3
267.443,  50.72083,      2.63658,     88.43118,50.00000,53.00000,2.519092e-09,0.92056,3
274.006,  52.04083,      2.60990,     87.94215,50.00000,53.00000,2.520993e-09,0.92040,3
280.579,  53.36083,      2.58105,     87.42882,50.00000,53.00000,2.515369e-09,0.92022,3
287.147,  54.68083,      2.54827,     86.86925,50.00000,53.00000,2.518822e-09,0.92005,3
293.724,  56.00083,      2.50940,     86.25118,50.00000,53.00000,2.520504e-09,0.91989,3
301.682,  57.86083,      1.38629,     85.00065,50.00000,53.00000,2.525851e-09,0.91969,4
303.238,  61.16083,     -0.71075,     82.70882,50.00000,53.00000,2.524084e-09,0.91935,4
302.059,  64.46083,     -0.93477,     81.22710,50.00000,53.00000,2.512736e-09,0.91908,4
301.042,  67.76083,     -0.87187,     80.16860,50.00000,53.00000,2.523690e-09,0.91887,4
300.476,  71.06083,     -0.80581,     79.30258,50.00000,53.00000,2.515562e-09,0.91872,4
300.215,  74.36083,     -0.76720,     78.56774,50.00000,53.00000,2.512264e-09,0.91861,4
300.096,  77.66083,     -0.75229,     77.93032,50.00000,53.00000,2.510738e-09,0.91856,4
300.045,  80.96083,     -0.74912,     77.39032,50.00000,53.00000,2.512642e-09,0.91853,4
300.008,  84.26083,     -0.74950,     76.89398,50.00000,53.00000,2.507779e-09,0.91854,4
300.018,  87.56083,     -0.74722,     76.47785,50.00000,53.00000,2.511504e-09,0.91857,4
300.018,  90.86083,     -0.74847,     76.09828,50.00000,53.00000,2.508561e-09,0.91864,4
300.012,  94.16083,     -0.75117,     75.73333,50.00000,53.00000,2.509684e-09,0.91872,4
300.004,  97.46083,     -0.75179,     75.44151,50.00000,53.00000,2.509322e-09,0.91882,4
300.012, 100.761,     -0.75326,     75.14452,50.00000,53.00000,2.506558e-09,0.91892,4
300.006, 104.061,     -0.75492,     74.88172,50.00000,53.00000,2.503383e-09,0.91904,4
300.005, 107.361,     -0.75304,     74.61914,50.00000,53.00000,2.503528e-09,0.91916,4
300.009, 110.661,     -0.75117,     74.42194,50.00000,53.00000,2.506146e-09,0.91928,4
300.006, 113.961,     -0.75304,     74.20301,50.00000,53.00000,2.502233e-09,0.91945,4
300.012, 117.261,     -0.76034,     73.99140,50.00000,53.00000,2.503041e-09,0.91929,4
300.024, 120.561,     -0.75931,     73.82108,50.00000,53.00000,2.505146e-09,0.91882,4
300.028, 123.861,     -0.75807,     73.63849,50.00000,53.00000,2.498507e-09,0.91819,4
300.016, 127.161,     -0.76139,     73.47548,50.00000,53.00000,2.499667e-09,0.91734,4
300.023, 130.461,     -0.75806,     73.27118,50.00000,53.00000,2.501525e-09,0.91623,4
300.012, 133.761,     -0.76097,     73.11785,50.00000,53.00000,2.496561e-09,0.91489,4
300.021, 137.061,     -0.76119,     73.00108,50.00000,53.00000,2.496522e-09,0.91334,4
300.008, 140.361,     -0.75971,     72.82602,50.00000,53.00000,2.493500e-09,0.91160,4
300.027, 143.661,     -0.76015,     72.68731,50.00000,53.00000,2.495082e-09,0.90968,4
300.018, 146.961,     -0.76368,     72.55097,50.00000,53.00000,2.498831e-09,0.90761,4
300.024, 150.261,     -0.76202,     72.41226,50.00000,53.00000,2.491096e-09,0.90541,4
300.016, 153.561,     -0.76535,     72.29075,50.00000,53.00000,2.492572e-09,0.90301,4
300.03, 156.861,     -0.76182,     72.13011,50.00000,53.00000,2.492987e-09,0.90064,4
300.013, 160.161,     -0.76305,     72.01333,50.00000,53.00000,2.494116e-09,0.89821,4
300.013, 163.461,     -0.76451,     71.86495,50.00000,53.00000,2.487619e-09,0.89574,4
300.006, 166.761,     -0.76326,     71.75548,50.00000,53.00000,2.490315e-09,0.89323,4
300.021, 170.061,     -0.76494,     71.63871,50.00000,53.00000,2.493330e-09,0.89056,4
300.018, 173.361,     -0.76348,     71.52194,50.00000,53.00000,2.489134e-09,0.88798,4
300.021, 176.661,     -0.76452,     71.38065,50.00000,53.00000,2.489440e-09,0.88537,4
300.01, 179.961,     -0.76263,     71.30774,50.00000,53.00000,2.486566e-09,0.88272,4
300.003, 183.261,     -0.76179,     71.15441,50.00000,53.00000,2.485284e-09,0.88002,4
300.019, 186.561,     -0.76577,     71.06452,50.00000,53.00000,2.489363e-09,0.87729,4
300.006, 189.861,     -0.76346,     70.94043,50.00000,53.00000,2.482812e-09,0.87452,4
300.016, 193.161,     -0.76493,     70.82366,50.00000,53.00000,2.484587e-09,0.87170,4
300.016, 196.461,     -0.76806,     70.71419,50.00000,53.00000,2.483494e-09,0.86870,4
300.019, 199.761,     -0.76473,     70.61183,50.00000,53.00000,2.475581e-09,0.86578,4
300.017, 203.061,     -0.76743,     70.49763,50.00000,53.00000,2.482117e-09,0.86282,4
300.02, 206.361,     -0.76598,     70.39548,50.00000,53.00000,2.478788e-09,0.85982,4
300.016, 209.661,     -0.76681,     70.29312,50.00000,53.00000,2.481654e-09,0.85677,4
300.004, 212.961,     -0.76951,     70.21290,50.00000,53.00000,2.474637e-09,0.85367,4
300.024, 216.261,     -0.76640,     70.07419,50.00000,53.00000,2.483956e-09,0.85053,4
300.005, 219.561,     -0.77034,     69.97935,50.00000,53.00000,2.476145e-09,0.84718,4
300.015, 222.861,     -0.76847,     69.85527,50.00000,53.00000,2.476137e-09,0.84396,4
300.011, 226.161,     -0.76931,     69.77505,50.00000,53.00000,2.474874e-09,0.84068,4
300.021, 229.461,     -0.76952,     69.65828,50.00000,53.00000,2.468582e-09,0.83738,4
300.017, 232.761,     -0.77265,     69.54860,50.00000,53.00000,2.473927e-09,0.83402,4
300.027, 236.061,     -0.77036,     69.46366,50.00000,53.00000,2.476652e-09,0.83062,4
300.035, 239.361,     -0.77016,     69.36129,50.00000,53.00000,2.474019e-09,0.82720,4
300.022, 242.661,     -0.76932,     69.27376,50.00000,53.00000,2.471661e-09,0.82356,4
300.021, 245.961,     -0.76911,     69.12774,50.00000,53.00000,2.472559e-09,0.82008,4
300.018, 249.261,     -0.77202,     69.04022,50.00000,53.00000,2.467089e-09,0.81653,4
300.01, 252.561,     -0.77222,     68.96731,50.00000,53.00000,2.473859e-09,0.81299,4
300.016, 255.861,     -0.77077,     68.82602,50.00000,53.00000,2.471245e-09,0.80941,4
300.021, 259.161,     -0.77202,     68.71656,50.00000,53.00000,2.470381e-09,0.80582,4
300.008, 262.461,     -0.77243,     68.65570,50.00000,53.00000,2.475747e-09,0.80219,4
300.015, 265.761,     -0.77244,     68.52194,50.00000,53.00000,2.471214e-09,0.79853,4
300.01, 269.061,     -0.77076,     68.42710,50.00000,53.00000,2.471933e-09,0.79488,4
300.023, 272.361,     -0.77036,     68.33226,50.00000,53.00000,2.479517e-09,0.79100,4
300.018, 275.661,     -0.77098,     68.23742,50.00000,53.00000,2.466663e-09,0.78602,4
300.004, 278.961,     -0.77513,     68.16430,50.00000,53.00000,2.466728e-09,0.78429,4
300.01, 282.261,     -0.77201,     68.07677,50.00000,53.00000,2.468345e-09,0.78431,4
300.01, 285.561,     -0.77035,     67.97462,50.00000,53.00000,2.468139e-09,0.78500,4
300.022, 288.861,     -0.77057,     67.87978,50.00000,53.00000,2.468208e-09,0.78568,4
300.022, 292.161,     -0.77057,     67.79935,50.00000,53.00000,2.461873e-09,0.78622,4
300.018, 295.461,     -0.77285,     67.70452,50.00000,53.00000,2.470729e-09,0.78659,4
300.018, 298.761,     -0.77098,     67.62430,50.00000,53.00000,2.471759e-09,0.78684,4
300.018, 302.061,     -0.77327,     67.52194,50.00000,53.00000,2.472633e-09,0.78697,4
300.01, 305.361,     -0.77222,     67.41978,50.00000,53.00000,2.470252e-09,0.78706,4
300.01, 308.661,     -0.77201,     67.29570,50.00000,53.00000,2.467300e-09,0.78712,4
300.019, 311.961,     -0.77348,     67.19355,50.00000,53.00000,2.466328e-09,0.78715,4
300.011, 315.261,     -0.77327,     67.11333,50.00000,53.00000,2.463544e-09,0.78716,4
300.013, 318.561,     -0.77035,     67.01118,50.00000,53.00000,2.461998e-09,0.78718,4
300.024, 321.861,     -0.77244,     66.90882,50.00000,53.00000,2.466427e-09,0.78720,4
300.025, 325.161,     -0.77495,     66.82860,50.00000,53.00000,2.466192e-09,0.78719,4
300.018, 328.461,     -0.77431,     66.71914,50.00000,53.00000,2.464235e-09,0.78719,4
300.015, 331.761,     -0.77660,     66.60237,50.00000,53.00000,2.464140e-09,0.78719,4
300.012, 335.061,     -0.77264,     66.52215,50.00000,53.00000,2.463787e-09,0.78719,4
300.019, 338.361,     -0.77369,     66.41269,50.00000,53.00000,2.456480e-09,0.78720,4
300.009, 341.661,     -0.77347,     66.33957,50.00000,53.00000,2.455174e-09,0.78719,4
300.02, 344.961,     -0.77369,     66.25204,50.00000,53.00000,2.461745e-09,0.78719,4
300.015, 348.261,     -0.77098,     66.14258,50.00000,53.00000,2.458520e-09,0.78720,4
300.007, 351.561,     -0.77305,     66.05484,50.00000,53.00000,2.453889e-09,0.78720,4
300.015, 354.861,     -0.77431,     65.99892,50.00000,53.00000,2.458584e-09,0.78720,4
300.003, 358.161,     -0.77493,     65.86280,50.00000,53.00000,2.452821e-09,0.78720,4
300.007, 361.461,     -0.77430,     65.81161,50.00000,53.00000,2.455840e-09,0.78720,4
300.027, 364.761,     -0.77411,     65.66559,50.00000,53.00000,2.456986e-09,0.78719,4
300.022, 368.061,     -0.77578,     65.59269,50.00000,53.00000,2.455702e-09,0.78720,4
300.006, 371.361,     -0.77597,     65.49054,50.00000,53.00000,2.456950e-09,0.78720,4
300.007, 374.661,     -0.77451,     65.39570,50.00000,53.00000,2.453863e-09,0.78719,4
300.025, 377.961,     -0.77474,     65.32989,50.00000,53.00000,2.450227e-09,0.78719,4
300.022, 381.261,     -0.77557,     65.19118,50.00000,53.00000,2.448362e-09,0.78719,4
300.009, 384.561,     -0.77264,     65.10366,50.00000,53.00000,2.448890e-09,0.78718,4
300.022, 387.861,     -0.77661,     64.99419,50.00000,53.00000,2.453856e-09,0.78718,4
300.025, 391.161,     -0.77682,     64.89935,50.00000,53.00000,2.450244e-09,0.78719,4
300.022, 394.461,     -0.77765,     64.81161,50.00000,53.00000,2.446342e-09,0.78719,4
300.02, 397.761,     -0.77473,     64.71677,50.00000,53.00000,2.449837e-09,0.78719,4
300.022, 401.061,     -0.77557,     64.63656,50.00000,53.00000,2.451272e-09,0.78720,4
300.018, 404.361,     -0.77494,     64.53441,50.00000,53.00000,2.444035e-09,0.78719,4
300.025, 407.661,     -0.77390,     64.45892,50.00000,53.00000,2.444373e-09,0.78720,4
300.018, 410.961,     -0.77598,     64.34215,50.00000,53.00000,2.446259e-09,0.78720,4
300.017, 414.261,     -0.77661,     64.26172,50.00000,53.00000,2.444257e-09,0.78720,4
300.021, 417.561,     -0.77515,     64.17419,50.00000,53.00000,2.441947e-09,0.78719,4
300.014, 420.861,     -0.77973,     64.05505,50.00000,53.00000,2.437875e-09,0.78719,4
300.018, 424.161,     -0.77932,     64.00387,50.00000,53.00000,2.436469e-09,0.78719,4
299.997, 427.461,     -0.77784,     63.89204,50.00000,53.00000,2.444465e-09,0.78719,4
300.023, 430.761,     -0.77536,     63.76559,50.00000,53.00000,2.446945e-09,0.78718,4
300.012, 434.061,     -0.77910,     63.70710,50.00000,53.00000,2.442539e-09,0.78720,4
300.012, 437.361,     -0.77806,     63.58301,50.00000,53.00000,2.435318e-09,0.78719,4
300.021, 440.661,     -0.77828,     63.50280,50.00000,53.00000,2.435206e-09,0.78720,4
300.01, 443.961,     -0.77806,     63.39075,50.00000,53.00000,2.439966e-09,0.78719,4
300.009, 447.261,     -0.77931,     63.31785,50.00000,53.00000,2.440541e-09,0.78718,4
300.024, 450.561,     -0.77724,     63.20581,50.00000,53.00000,2.436236e-09,0.78719,4
300.014, 453.861,     -0.78202,     63.12559,50.00000,53.00000,2.438590e-09,0.78719,4
300.017, 457.161,     -0.78077,     63.02108,50.00000,53.00000,2.437540e-09,0.78719,4
300.015, 460.461,     -0.77681,     62.96258,50.00000,53.00000,2.436861e-09,0.78719,4
300.016, 463.761,     -0.78265,     62.83118,50.00000,53.00000,2.429625e-09,0.78720,4
300.023, 467.061,     -0.77828,     62.74366,50.00000,53.00000,2.429451e-09,0.78719,4
300.013, 470.361,     -0.77869,     62.66344,50.00000,53.00000,2.434328e-09,0.78718,4
300.02, 473.661,     -0.78140,     62.56108,50.00000,53.00000,2.432283e-09,0.78719,4
300.022, 476.961,     -0.77953,     62.43699,50.00000,53.00000,2.430329e-09,0.78720,4
300.013, 480.261,     -0.78035,     62.37140,50.00000,53.00000,2.428513e-09,0.78719,4
300.002, 483.561,     -0.78159,     62.28387,50.00000,53.00000,2.429738e-09,0.78719,4
300.026, 486.861,     -0.77953,     62.17441,50.00000,53.00000,2.427530e-09,0.78719,4
300.015, 490.161,     -0.78202,     62.10129,50.00000,53.00000,2.426243e-09,0.78720,4
300.009, 493.461,     -0.78202,     61.99914,50.00000,53.00000,2.425012e-09,0.78719,4
300.019, 496.761,     -0.77932,     61.89699,50.00000,53.00000,2.419969e-09,0.78719,4
300.001, 500.061,     -0.78118,     61.82387,50.00000,53.00000,2.424314e-09,0.78719,4
300.013, 503.361,     -0.78285,     61.70710,50.00000,53.00000,2.425238e-09,0.78719,4
300.025, 506.661,     -0.78224,     61.59763,50.00000,53.00000,2.422808e-09,0.78720,4
300.032, 509.961,     -0.77933,     61.54667,50.00000,53.00000,2.420466e-09,0.78720,4
300.025, 513.261,     -0.78016,     61.45183,50.00000,53.00000,2.420353e-09,0.78718,4
300.027, 516.561,     -0.78391,     61.32774,50.00000,53.00000,2.419915e-09,0.78718,4
300.021, 519.861,     -0.78536,     61.22538,50.00000,53.00000,2.419922e-09,0.78718,4
300.013, 523.161,     -0.78181,     61.14753,50.00000,53.00000,2.418269e-09,0.78719,4
300.022, 526.461,     -0.78536,     61.06731,50.00000,53.00000,2.417522e-09,0.78719,4
300.01, 529.761,     -0.78223,     60.98710,50.00000,53.00000,2.418009e-09,0.78719,4
300.007, 533.061,     -0.77639,     60.89204,50.00000,53.00000,2.415350e-09,0.78720,4
300.022, 536.361,     -0.78453,     60.83376,50.00000,53.00000,2.416187e-09,0.78719,4
300.02, 539.661,     -0.78474,     60.73161,50.00000,53.00000,2.421770e-09,0.78719,4
300.018, 542.961,     -0.78453,     60.62946,50.00000,53.00000,2.422723e-09,0.78719,4
300.016, 546.261,     -0.78369,     60.52968,50.00000,53.00000,2.421484e-09,0.78719,4
300.02, 549.561,     -0.78453,     60.46387,50.00000,53.00000,2.420204e-09,0.78719,4
300.022, 552.861,     -0.78370,     60.31075,50.00000,53.00000,2.425813e-09,0.78720,4
300.014, 556.161,     -0.78327,     60.25957,50.00000,53.00000,2.417862e-09,0.78718,4
300.011, 559.461,     -0.78556,     60.15742,50.00000,53.00000,2.420828e-09,0.78719,4
300.002, 562.761,     -0.78180,     60.07699,50.00000,53.00000,2.417380e-09,0.78718,4
300.015, 566.061,     -0.78869,     59.95290,50.00000,53.00000,2.411412e-09,0.78718,4
300.014, 569.361,     -0.78911,     59.88731,50.00000,53.00000,2.416538e-09,0.78718,4
300.03, 572.661,     -0.78662,     59.79247,50.00000,53.00000,2.417723e-09,0.78718,4
300.014, 575.961,     -0.78848,     59.71204,50.00000,53.00000,2.413655e-09,0.78720,4
300.007, 579.261,     -0.78639,     59.60258,50.00000,53.00000,2.410574e-09,0.78719,4
300.006, 582.561,     -0.78410,     59.50043,50.00000,53.00000,2.413370e-09,0.78720,4
300.023, 585.861,     -0.78787,     59.41290,50.00000,53.00000,2.413475e-09,0.78719,4
300.024, 589.161,     -0.78703,     59.34000,50.00000,53.00000,2.412473e-09,0.78719,4
300.017, 592.461,     -0.78557,     59.22301,50.00000,53.00000,2.409516e-09,0.78720,4
300.017, 595.761,     -0.78202,     59.09183,50.00000,53.00000,2.413071e-09,0.78718,4
300.013, 599.061,     -0.78890,     59.01871,50.00000,53.00000,2.405173e-09,0.78719,4
300.016, 602.361,     -0.78682,     58.95312,50.00000,53.00000,2.410628e-09,0.78719,4
300.008, 605.661,     -0.78493,     58.82903,50.00000,53.00000,2.407885e-09,0.78720,4
300.02, 608.961,     -0.78974,     58.74860,50.00000,53.00000,2.410186e-09,0.78720,4
300.007, 612.261,     -0.78785,     58.66108,50.00000,53.00000,2.411124e-09,0.78719,4
300.021, 615.561,     -0.78766,     58.54667,50.00000,53.00000,2.406297e-09,0.78719,4
300.019, 618.861,     -0.79286,     58.45183,50.00000,53.00000,2.406742e-09,0.78720,4
300.024, 622.161,     -0.79058,     58.38624,50.00000,53.00000,2.407304e-09,0.78719,4
300.011, 625.461,     -0.78723,     58.27677,50.00000,53.00000,2.405351e-09,0.78719,4
300.012, 628.761,     -0.78952,     58.20366,50.00000,53.00000,2.401408e-09,0.78718,4
300.028, 632.061,     -0.78996,     58.12581,50.00000,53.00000,2.401356e-09,0.78719,4
300.011, 635.361,     -0.79327,     58.03097,50.00000,53.00000,2.400872e-09,0.78719,4
300.016, 638.661,     -0.78911,     57.92882,50.00000,53.00000,2.397956e-09,0.78720,4
300.023, 641.961,     -0.78807,     57.82667,50.00000,53.00000,2.402299e-09,0.78719,4
300.01, 645.261,     -0.79036,     57.73892,50.00000,53.00000,2.399455e-09,0.78719,4
300.029, 648.561,     -0.79016,     57.62710,50.00000,53.00000,2.399622e-09,0.78720,4
300.013, 651.861,     -0.79203,     57.53957,50.00000,53.00000,2.395651e-09,0.78719,4
300.028, 655.161,     -0.78996,     57.42989,50.00000,53.00000,2.394815e-09,0.78718,4
300.027, 658.461,     -0.78891,     57.31312,50.00000,53.00000,2.393784e-09,0.78719,4
300.017, 661.761,     -0.78911,     57.21828,50.00000,53.00000,2.394806e-09,0.78718,4
300.018, 665.061,     -0.79015,     57.14043,50.00000,53.00000,2.393775e-09,0.78719,4
300.014, 668.361,     -0.78890,     57.06022,50.00000,53.00000,2.395273e-09,0.78718,4
300.012, 671.661,     -0.78786,     56.97269,50.00000,53.00000,2.396286e-09,0.78720,4
300.017, 674.961,     -0.78953,     56.88495,50.00000,53.00000,2.394452e-09,0.78719,4
300.009, 678.261,     -0.78994,     56.74624,50.00000,53.00000,2.397849e-09,0.78720,4
300.032, 681.561,     -0.79100,     56.66602,50.00000,53.00000,2.392947e-09,0.78719,4
300.02, 684.861,     -0.79182,     56.59312,50.00000,53.00000,2.398494e-09,0.78718,4
300.032, 688.161,     -0.79100,     56.48366,50.00000,53.00000,2.398791e-09,0.78719,4
300.014, 691.461,     -0.79265,     56.39591,50.00000,53.00000,2.392475e-09,0.78719,4
300.014, 694.761,     -0.79515,     56.32301,50.00000,53.00000,2.389142e-09,0.78719,4
300.015, 698.061,     -0.79057,     56.21355,50.00000,53.00000,2.397632e-09,0.78719,4
300.017, 701.361,     -0.79370,     56.13312,50.00000,53.00000,2.389653e-09,0.78719,4
300.012, 704.661,     -0.79036,     56.02366,50.00000,53.00000,2.387642e-09,0.78720,4
300.018, 707.961,     -0.79453,     55.95075,50.00000,53.00000,2.384866e-09,0.78720,4
300.014, 711.261,     -0.79182,     55.85591,50.00000,53.00000,2.386056e-09,0.78720,4
300.015, 714.561,     -0.78869,     55.75376,50.00000,53.00000,2.385427e-09,0.78718,4
300.011, 717.861,     -0.79411,     55.67333,50.00000,53.00000,2.383028e-09,0.78719,4
300.003, 721.161,     -0.79577,     55.60043,50.00000,53.00000,2.388878e-09,0.78718,4
300.013, 724.461,     -0.79432,     55.48366,50.00000,53.00000,2.384872e-09,0.78719,4
300.009, 727.761,     -0.79827,     55.38882,50.00000,53.00000,2.385494e-09,0.78721,4
300.011, 731.061,     -0.79473,     55.28903,50.00000,53.00000,2.383038e-09,0.78720,4
300.029, 734.361,     -0.79600,     55.20129,50.00000,53.00000,2.379203e-09,0.78720,4
300.014, 737.661,     -0.79432,     55.08452,50.00000,53.00000,2.382961e-09,0.78720,4
300.018, 740.961,     -0.79766,     55.01161,50.00000,53.00000,2.382092e-09,0.78719,4
300.023, 744.261,     -0.79370,     54.93140,50.00000,53.00000,2.381882e-09,0.78718,4
300.018, 747.561,     -0.79516,     54.84366,50.00000,53.00000,2.376867e-09,0.78719,4
300.018, 750.861,     -0.79766,     54.73419,50.00000,53.00000,2.380733e-09,0.78719,4
300.022, 754.161,     -0.79495,     54.63935,50.00000,53.00000,2.376081e-09,0.78719,4
300.01, 757.461,     -0.79744,     54.53720,50.00000,53.00000,2.376740e-09,0.78719,4
300.011, 760.761,     -0.79828,     54.45699,50.00000,53.00000,2.379053e-09,0.78718,4
300.016, 764.061,     -0.79599,     54.34000,50.00000,53.00000,2.380095e-09,0.78720,4
300.032, 767.361,     -0.79371,     54.22323,50.00000,53.00000,2.375329e-09,0.78720,4
300.012, 770.661,     -0.79786,     54.15763,50.00000,53.00000,2.378112e-09,0.78719,4
300.022, 773.961,     -0.79829,     54.07011,50.00000,53.00000,2.375416e-09,0.78720,4
300.02, 777.261,     -0.79432,     53.97505,50.00000,53.00000,2.371000e-09,0.78720,4
300.02, 780.561,     -0.79870,     53.87290,50.00000,53.00000,2.370882e-09,0.78719,4
300.016, 783.861,     -0.79682,     53.77075,50.00000,53.00000,2.375921e-09,0.78719,4
300.017, 787.161,     -0.79870,     53.69054,50.00000,53.00000,2.376365e-09,0.78719,4
300.007, 790.461,     -0.79619,     53.61011,50.00000,53.00000,2.372521e-09,0.78719,4
300.006, 793.761,     -0.79452,     53.52989,50.00000,53.00000,2.367074e-09,0.78719,4
300.018, 797.061,     -0.79474,     53.39118,50.00000,53.00000,2.372472e-09,0.78720,4
300.027, 800.361,     -0.79642,     53.33290,50.00000,53.00000,2.373002e-09,0.78719,4
300.024, 803.661,     -0.79745,     53.20882,50.00000,53.00000,2.369702e-09,0.78719,4
300.022, 806.961,     -0.79704,     53.09935,50.00000,53.00000,2.367204e-09,0.78719,4
300.019, 810.261,     -0.79599,     53.01161,50.00000,53.00000,2.366620e-09,0.78719,4
300.015, 813.561,     -0.79578,     52.94602,50.00000,53.00000,2.361737e-09,0.78720,4
300.003, 816.861,     -0.79452,     52.81226,50.00000,53.00000,2.370118e-09,0.78720,4
300.017, 820.161,     -0.79787,     52.72452,50.00000,53.00000,2.365723e-09,0.78718,4
300.02, 823.461,     -0.79703,     52.64430,50.00000,53.00000,2.368727e-09,0.78720,4
300.017, 826.761,     -0.79661,     52.52753,50.00000,53.00000,2.369549e-09,0.78720,4
300.006, 830.061,     -0.79911,     52.44000,50.00000,53.00000,2.369910e-09,0.78720,4
300.003, 833.361,     -0.79910,     52.34516,50.00000,53.00000,2.370016e-09,0.78719,4
300.016, 836.661,     -0.79703,     52.25742,50.00000,53.00000,2.366707e-09,0.78718,4
300.021, 839.961,     -0.79766,     52.17720,50.00000,53.00000,2.363687e-09,0.78719,4
300.026, 843.261,     -0.80183,     52.04581,50.00000,53.00000,2.368410e-09,0.78718,4
300.012, 846.561,     -0.79953,     51.99462,50.00000,53.00000,2.367835e-09,0.78719,4
300.019, 849.861,     -0.79808,     51.87785,50.00000,53.00000,2.358480e-09,0.78719,4
300.021, 853.161,     -0.80058,     51.75376,50.00000,53.00000,2.368298e-09,0.78719,4
300.012, 856.461,     -0.80224,     51.67355,50.00000,53.00000,2.365742e-09,0.78719,4
300.022, 859.761,     -0.80100,     51.57871,50.00000,53.00000,2.363061e-09,0.78719,4
300.014, 863.061,     -0.80266,     51.46925,50.00000,53.00000,2.363634e-09,0.78719,4
299.994, 866.361,     -0.80514,     51.39613,50.00000,53.00000,2.364195e-09,0.78719,4
300.008, 869.661,     -0.80369,     51.30860,50.00000,53.00000,2.362421e-09,0.78719,4
300.015, 872.961,     -0.80162,     51.20645,50.00000,53.00000,2.357907e-09,0.78719,4
300.025, 876.261,     -0.80204,     51.10430,50.00000,53.00000,2.362383e-09,0.78720,4
300.018, 879.561,     -0.79912,     51.00688,50.00000,53.00000,2.358229e-09,0.78720,4
300.016, 882.861,     -0.80057,     50.88280,50.00000,53.00000,2.358759e-09,0.78720,4
300.026, 886.161,     -0.80037,     50.81720,50.00000,53.00000,2.359190e-09,0.78719,4
300.017, 889.461,     -0.79974,     50.69312,50.00000,53.00000,2.358120e-09,0.78719,4
300.015, 892.761,     -0.80203,     50.62258,50.00000,53.00000,2.362691e-09,0.78720,4
300.008, 896.061,     -0.80057,     50.51548,50.00000,53.00000,2.356511e-09,0.78719,4
300.009, 899.361,     -0.80369,     50.43505,50.00000,53.00000,2.357365e-09,0.78719,4
300.006, 902.661,     -0.80223,     50.33290,50.00000,53.00000,2.360853e-09,0.78720,4
300.021, 905.961,     -0.80308,     50.23806,50.00000,53.00000,2.354398e-09,0.78719,4
300.019, 909.261,     -0.80287,     50.15054,50.00000,53.00000,2.358388e-09,0.78720,4
300.016, 912.561,     -0.80287,     50.05570,50.00000,53.00000,2.353528e-09,0.78719,4
300.029, 915.861,     -0.80163,     49.96796,50.00000,53.00000,2.347818e-09,0.78720,4
300.008, 919.161,     -0.79973,     49.88043,50.00000,53.00000,2.346389e-09,0.78719,4
300.023, 922.461,     -0.80433,     49.83656,50.00000,53.00000,2.341305e-09,0.78719,4
300.021, 925.761,     -0.80162,     49.66151,50.00000,53.00000,2.341244e-09,0.78720,4
300.009, 929.061,     -0.80474,     49.61032,50.00000,53.00000,2.340451e-09,0.78719,4
300.016, 932.361,     -0.80766,     49.53011,50.00000,53.00000,2.337502e-09,0.78719,4
300.022, 935.661,     -0.80517,     49.39871,50.00000,53.00000,2.345613e-09,0.78718,4
300.019, 938.961,     -0.80412,     49.28925,50.00000,53.00000,2.342697e-09,0.78719,4
300.02, 942.261,     -0.80412,     49.22344,50.00000,53.00000,2.344554e-09,0.78720,4
300.01, 945.561,     -0.80495,     49.13591,50.00000,53.00000,2.342358e-09,0.78719,4
300.021, 948.861,     -0.80329,     49.03613,50.00000,53.00000,2.346193e-09,0.78719,4
300.008, 952.161,     -0.80432,     48.91935,50.00000,53.00000,2.340648e-09,0.78719,4
300.013, 955.461,     -0.80807,     48.81720,50.00000,53.00000,2.341200e-09,0.78718,4
300.017, 958.761,     -0.80537,     48.75161,50.00000,53.00000,2.340992e-09,0.78719,4
300.034, 962.061,     -0.80664,     48.63484,50.00000,53.00000,2.349025e-09,0.78719,4
300.016, 965.361,     -0.81037,     48.53247,50.00000,53.00000,2.338555e-09,0.78719,4
300.022, 968.661,     -0.80475,     48.46688,50.00000,53.00000,2.345811e-09,0.78719,4
300.021, 971.961,     -0.80683,     48.35011,50.00000,53.00000,2.336669e-09,0.78721,4
300.029, 975.261,     -0.80788,     48.26258,50.00000,53.00000,2.335971e-09,0.78719,4
300.012, 978.561,     -0.81016,     48.15312,50.00000,53.00000,2.336610e-09,0.78719,4
300.031, 981.861,     -0.80642,     48.07032,50.00000,53.00000,2.334989e-09,0.78719,4
300.016, 985.161,     -0.81037,     47.98280,50.00000,53.00000,2.341594e-09,0.78719,4
300.018, 988.461,     -0.80954,     47.89505,50.00000,53.00000,2.334961e-09,0.78719,4
300.017, 991.761,     -0.81037,     47.78559,50.00000,53.00000,2.335554e-09,0.78719,4
300.02, 995.061,     -0.80933,     47.70301,50.00000,53.00000,2.333838e-09,0.78719,4
300.015, 998.361,     -0.80703,     47.61527,50.00000,53.00000,2.333720e-09,0.78719,4
300.014,1001.66,     -0.80745,     47.52043,50.00000,53.00000,2.331364e-09,0.78720,4
300.014,1004.96,     -0.81162,     47.45484,50.00000,53.00000,2.327895e-09,0.78719,4
300.023,1008.26,     -0.81079,     47.33806,50.00000,53.00000,2.332649e-09,0.78719,4
300.016,1011.56,     -0.80974,     47.22602,50.00000,53.00000,2.329484e-09,0.78720,4
300.008,1014.86,     -0.81140,     47.13118,50.00000,53.00000,2.329290e-09,0.78720,4
300.03,1018.16,     -0.80872,     47.05828,50.00000,53.00000,2.336148e-09,0.78719,4
300.02,1021.46,     -0.81079,     46.94387,50.00000,53.00000,2.330424e-09,0.78719,4
300.012,1024.76,     -0.81287,     46.87806,50.00000,53.00000,2.333378e-09,0.78718,4
300.016,1028.06,     -0.81225,     46.78323,50.00000,53.00000,2.329215e-09,0.78719,4
300.017,1031.36,     -0.80829,     46.70301,50.00000,53.00000,2.326216e-09,0.78718,4
300.014,1034.66,     -0.81037,     46.58624,50.00000,53.00000,2.323700e-09,0.78719,4
300.008,1037.96,     -0.81140,     46.52043,50.00000,53.00000,2.322768e-09,0.78720,4
300.013,1041.26,     -0.81224,     46.40624,50.00000,53.00000,2.329644e-09,0.78720,4
300.013,1044.56,     -0.81016,     46.31118,50.00000,53.00000,2.327294e-09,0.78719,4
300.001,1047.86,     -0.80973,     46.24559,50.00000,53.00000,2.326058e-09,0.78719,4
300.013,1051.16,     -0.80912,     46.12882,50.00000,53.00000,2.318898e-09,0.78719,4
300.004,1054.46,     -0.81390,     46.06796,50.00000,53.00000,2.323290e-09,0.78720,4
299.987,1057.76,     -0.81409,     45.98774,50.00000,53.00000,2.323139e-09,0.78718,4
300.007,1061.06,     -0.81120,     45.88538,50.00000,53.00000,2.320657e-09,0.78719,4
300.017,1064.36,     -0.81433,     45.79054,50.00000,53.00000,2.322815e-09,0.78719,4
300.027,1067.66,     -0.81246,     45.68839,50.00000,53.00000,2.319755e-09,0.78720,4
300.022,1070.96,     -0.81288,     45.60817,50.00000,53.00000,2.318703e-09,0.78719,4
300.007,1074.26,     -0.81536,     45.49871,50.00000,53.00000,2.319491e-09,0.78719,4
300.022,1077.56,     -0.81434,     45.40860,50.00000,53.00000,2.320484e-09,0.78719,4
300.01,1080.86,     -0.81328,     45.31376,50.00000,53.00000,2.321657e-09,0.78719,4
300.018,1084.16,     -0.81183,     45.20172,50.00000,53.00000,2.322893e-09,0.78719,4
300.02,1087.46,     -0.81517,     45.11419,50.00000,53.00000,2.321215e-09,0.78719,4
300.013,1090.76,     -0.81349,     45.04860,50.00000,53.00000,2.319407e-09,0.78719,4
300.008,1094.06,     -0.81307,     44.94624,50.00000,53.00000,2.318818e-09,0.78720,4
300.015,1097.36,     -0.81433,     44.80774,50.00000,53.00000,2.320426e-09,0.78719,4
300.021,1100.66,     -0.81079,     44.71269,50.00000,53.00000,2.322258e-09,0.78719,4
300.057,1103.96,     -0.82292,     44.65441,50.00000,53.00000,2.321744e-09,0.78719,4
300.017,1107.26,     -0.81850,     44.51570,50.00000,53.00000,2.319279e-09,0.78721,4
300.021,1110.56,     -0.81392,     44.44280,50.00000,53.00000,2.317335e-09,0.78721,4
300.004,1113.86,     -0.81286,     44.33333,50.00000,53.00000,2.320963e-09,0.78718,4
300.024,1117.16,     -0.81684,     44.26022,50.00000,53.00000,2.320413e-09,0.78719,4
300.018,1120.46,     -0.81579,     44.15570,50.00000,53.00000,2.314165e-09,0.78718,4
300.009,1123.76,     -0.81808,     44.07527,50.00000,53.00000,2.320826e-09,0.78719,4
300.015,1127.06,     -0.81600,     43.98774,50.00000,53.00000,2.321379e-09,0.78719,4
300.025,1130.36,     -0.81413,     43.88559,50.00000,53.00000,2.313520e-09,0.78720,4
300.019,1133.66,     -0.81600,     43.77118,50.00000,54.00000,2.312745e-09,0.78720,4
300.025,1136.96,     -0.81309,     43.69828,50.00000,54.00000,2.315424e-09,0.78718,4
300.023,1140.26,     -0.81392,     43.59613,50.00000,54.00000,2.313141e-09,0.78720,4
300.013,1143.56,     -0.81454,     43.50108,50.00000,54.00000,2.313128e-09,0.78719,4
300.015,1146.86,     -0.81495,     43.38430,50.00000,54.00000,2.315711e-09,0.78719,4
300.011,1150.16,     -0.81370,     43.29677,50.00000,54.00000,2.315813e-09,0.78720,4
300.014,1153.46,     -0.81558,     43.22387,50.00000,54.00000,2.314118e-09,0.78719,4
300.016,1156.76,     -0.81412,     43.15570,50.00000,54.00000,2.310679e-09,0.78720,4
300.007,1160.06,     -0.81390,     43.02430,50.00000,54.00000,2.316233e-09,0.78718,4
300.023,1163.36,     -0.81496,     42.93677,50.00000,54.00000,2.313503e-09,0.78719,4
300.011,1166.66,     -0.81370,     42.81269,50.00000,54.00000,2.317131e-09,0.78721,4
300.012,1169.96,     -0.81266,     42.73957,50.00000,54.00000,2.319127e-09,0.78720,4
300.01,1173.26,     -0.81662,     42.65204,50.00000,54.00000,2.313627e-09,0.78719,4
300.009,1176.56,     -0.81495,     42.57183,50.00000,54.00000,2.312704e-09,0.78719,4
300.007,1179.86,     -0.81641,     42.49140,50.00000,54.00000,2.312445e-09,0.78720,4
300.009,1183.16,     -0.81411,     42.34301,50.00000,54.00000,2.312796e-09,0.78719,4
300.021,1186.46,     -0.81850,     42.24086,50.00000,54.00000,2.316238e-09,0.78718,4
300.016,1189.76,     -0.81662,     42.16796,50.00000,54.00000,2.312174e-09,0.78719,4
300.019,1193.06,     -0.81371,     42.07290,50.00000,54.00000,2.316822e-09,0.78719,4
300.027,1196.36,     -0.81392,     42.00000,50.00000,54.00000,2.317000e-09,0.78719,4
300.009,1199.66,     -0.81557,     41.90516,50.00000,54.00000,2.313232e-09,0.78718,4
300.014,1202.96,     -0.81329,     41.78839,50.00000,54.00000,2.310931e-09,0.78718,4
299.995,1206.26,     -0.81660,     41.71527,50.00000,54.00000,2.312976e-09,0.78719,4
300.022,1209.56,     -0.81579,     41.62043,50.00000,54.00000,2.317326e-09,0.78719,4
300.02,1212.86,     -0.81913,     41.48172,50.00000,54.00000,2.311276e-09,0.78719,4
300.008,1216.16,     -0.81766,     41.41613,50.00000,54.00000,2.311512e-09,0.78719,4
300.03,1219.46,     -0.81810,     41.34301,50.00000,54.00000,2.315345e-09,0.78719,4
300.014,1222.76,     -0.82016,     41.27742,50.00000,54.00000,2.314055e-09,0.78719,4
300.017,1226.06,     -0.81662,     41.16065,50.00000,54.00000,2.314605e-09,0.78718,4
300.029,1229.36,     -0.81643,     41.04129,50.00000,54.00000,2.310606e-09,0.78719,4
300.019,1232.66,     -0.81975,     40.95140,50.00000,54.00000,2.311340e-09,0.78719,4
300.018,1235.96,     -0.81683,     40.89290,50.00000,54.00000,2.313101e-09,0.78719,4
300.021,1239.26,     -0.81725,     40.80538,50.00000,54.00000,2.314982e-09,0.78719,4
300.015,1242.56,     -0.81808,     40.71785,50.00000,54.00000,2.311289e-09,0.78719,4
300.008,1245.86,     -0.81932,     40.61570,50.00000,54.00000,2.307633e-09,0.78720,4
300.014,1249.16,     -0.81808,     40.53527,50.00000,54.00000,2.309205e-09,0.78718,4
300.013,1252.46,     -0.81766,     40.44538,50.00000,54.00000,2.308444e-09,0.78719,4
300.02,1255.76,     -0.82059,     40.34323,50.00000,54.00000,2.301829e-09,0.78719,4
300.034,1257.07,     -0.80372,     40.30667,50.00000,54.00000,2.304508e-09,0.78718,5
300.251,1257.23,     -0.53852,     40.36495,50.00000,54.00000,2.309512e-09,0.78718,5
300.912,1257.4,      0.15169,     40.59613,50.00000,54.00000,2.308883e-09,0.78718,5
302.11,1257.56,      1.27186,     40.91247,50.00000,54.00000,2.308024e-09,0.78719,5
303.91,1257.73,      2.70917,     41.27978,50.00000,54.00000,2.307631e-09,0.78719,5
306.22,1257.89,      4.27973,     41.63505,50.00000,54.00000,2.303899e-09,0.78719,5
308.904,1258.06,      5.79387,     41.97806,50.00000,54.00000,2.309672e-09,0.78719,5
311.831,1258.22,      7.09808,     42.22129,50.00000,54.00000,2.305322e-09,0.78719,5
314.839,1258.39,      8.09994,     42.39161,50.00000,54.00000,2.303473e-09,0.78719,5
317.851,1258.55,      8.78134,     42.48903,50.00000,54.00000,2.307859e-09,0.78719,5
320.761,1258.72,      9.16851,     42.57914,50.00000,54.00000,2.306545e-09,0.78719,5
323.612,1258.88,      9.34464,     42.57914,50.00000,54.00000,2.305794e-09,0.78719,5
326.396,1259.05,      9.39988,     42.63742,50.00000,54.00000,2.312687e-09,0.78719,5
329.134,1259.21,      9.41828,     42.63742,50.00000,54.00000,2.307340e-09,0.78719,5
331.909,1259.38,      9.47326,     42.69591,50.00000,54.00000,2.304055e-09,0.78721,5
334.751,1259.54,      9.60884,     42.73957,50.00000,54.00000,2.311336e-09,0.78720,5
337.701,1259.71,      9.84785,     42.78344,50.00000,54.00000,2.311511e-09,0.78719,5
340.787,1259.87,     10.17961,     42.87591,50.00000,54.00000,2.307190e-09,0.78719,5
343.998,1260.04,     10.57666,     42.96344,50.00000,54.00000,2.307418e-09,0.78719,5
347.338,1260.2,     11.00622,     43.02194,50.00000,54.00000,2.307489e-09,0.78718,5
350.781,1260.37,     11.43101,     43.08022,50.00000,54.00000,2.308306e-09,0.78718,5
354.289,1260.53,     11.81464,     43.13871,50.00000,54.00000,2.303571e-09,0.78719,5
357.842,1260.7,     12.13682,     43.16774,50.00000,54.00000,2.310958e-09,0.78719,5
361.412,1260.86,     12.39109,     43.13871,50.00000,54.00000,2.303604e-09,0.78718,5
364.98,1261.03,     12.57551,     43.07785,50.00000,54.00000,2.307922e-09,0.78719,5
368.563,1261.19,     12.70366,     43.04860,50.00000,54.00000,2.305038e-09,0.78718,5
372.116,1261.36,     12.79613,     42.94882,50.00000,54.00000,2.309372e-09,0.78718,5
375.676,1261.52,     12.86770,     42.81742,50.00000,54.00000,2.303403e-09,0.78720,5
379.233,1261.69,     12.93192,     42.60344,50.00000,54.00000,2.302624e-09,0.78719,5
382.798,1261.85,     13.00162,     42.40387,50.00000,54.00000,2.308324e-09,0.78719,5
386.38,1262.02,     13.08398,     42.09484,50.00000,54.00000,2.309241e-09,0.78719,5
389.966,1262.18,     13.17989,     41.69333,50.00000,54.00000,2.306406e-09,0.78719,5
393.569,1262.35,     13.28951,     41.25312,50.00000,54.00000,2.305955e-09,0.78719,5
397.181,1262.51,     13.40864,     40.65462,50.00000,54.00000,2.305750e-09,0.78719,5
400.784,1262.68,     13.53351,     39.89548,50.00000,54.00000,2.306441e-09,0.78719,5
404.402,1262.84,     13.65606,     38.98065,50.00000,54.00000,2.309780e-09,0.78719,5
408.014,1263.01,     13.79260,     37.94172,50.00000,54.00000,2.304711e-09,0.78718,5
411.611,1263.17,     13.93329,     36.58409,50.00000,54.00000,2.302675e-09,0.78718,5
415.193,1263.34,     14.09192,     34.92731,50.00000,54.00000,2.303642e-09,0.78719,5
418.77,1263.5,     14.26700,     33.02237,50.00000,54.00000,2.308304e-09,0.78719,5
422.323,1263.67,     14.44761,     30.77656,50.00000,54.00000,2.307376e-09,0.78718,5
425.885,1263.83,     14.64157,     28.09785,50.00000,54.00000,2.307224e-09,0.78718,5
429.426,1264,     14.83539,     25.17828,50.00000,54.00000,2.310236e-09,0.78718,5
432.955,1264.16,     15.00295,     22.07376,50.00000,54.00000,2.310936e-09,0.78719,5
436.477,1264.33,     15.12630,     18.71871,50.00000,54.00000,2.303879e-09,0.78719,5
440.013,1264.49,     15.20396,     15.51204,50.00000,54.00000,2.309671e-09,0.78719,5
443.518,1264.66,     15.19541,     12.31763,50.00000,54.00000,2.303700e-09,0.78719,5
447.033,1264.82,     15.07678,      9.33720,50.00000,54.00000,2.302439e-09,0.78719,5
450.54,1264.99,     14.85756,      6.74839,50.00000,54.00000,2.307657e-09,0.78720,5
454.046,1265.15,     14.53698,      4.57570,50.00000,54.00000,2.305767e-09,0.78719,5
457.519,1265.32,     14.17855,      2.80946,50.00000,54.00000,2.307676e-09,0.78719,5
461,1265.48,     13.81625,      1.42022,50.00000,54.00000,2.305835e-09,0.78719,5
464.484,1265.65,     13.46132,      0.35699,50.00000,54.00000,2.306989e-09,0.78719,5
467.953,1265.81,     13.13432,     -0.33634,50.00000,54.00000,2.305685e-09,0.78719,5
471.411,1265.98,     12.85009,     -0.85462,50.00000,54.00000,2.306934e-09,0.78719,5
474.861,1266.14,     12.60905,     -1.18301,50.00000,54.00000,2.308586e-09,0.78719,5
478.296,1266.31,     12.39856,     -1.41656,50.00000,54.00000,2.310915e-09,0.78720,5
481.743,1266.47,     12.21527,     -1.58215,50.00000,54.00000,2.312742e-09,0.78719,5
485.163,1266.64,     12.04620,     -1.64043,50.00000,54.00000,2.309185e-09,0.78718,5
488.581,1266.8,     11.88691,     -1.69892,50.00000,54.00000,2.301637e-09,0.78719,5
491.989,1266.97,     11.74008,     -1.72817,50.00000,54.00000,2.304165e-09,0.78719,5
495.383,1267.13,     11.60237,     -1.72817,50.00000,54.00000,2.307050e-09,0.78719,5
498.79,1267.3,     11.46755,     -1.73548,50.00000,54.00000,2.308551e-09,0.78719,5
502.181,1267.46,     11.34392,     -1.70624,50.00000,54.00000,2.308295e-09,0.78718,5
505.565,1267.63,     11.22470,     -1.70624,50.00000,54.00000,2.307346e-09,0.78719,5
508.944,1267.79,     11.10398,     -1.67699,50.00000,54.00000,2.309235e-09,0.78719,5
512.32,1267.96,     10.98205,     -1.67699,50.00000,54.00000,2.298943e-09,0.78719,5
515.701,1268.12,     10.85570,     -1.64774,50.00000,54.00000,2.309532e-09,0.78719,5
519.061,1268.29,     10.73285,     -1.61849,50.00000,54.00000,2.306059e-09,0.78718,5
522.412,1268.45,     10.60707,     -1.56022,50.00000,54.00000,2.306696e-09,0.78718,5
525.764,1268.62,     10.48851,     -1.56022,50.00000,54.00000,2.307194e-09,0.78718,5
529.123,1268.78,     10.36810,     -1.53097,50.00000,54.00000,2.307438e-09,0.78718,5
532.473,1268.95,     10.24646,     -1.50172,50.00000,54.00000,2.309229e-09,0.78719,5
535.83,1269.11,     10.12664,     -1.47269,50.00000,54.00000,2.306437e-09,0.78719,5
539.168,1269.28,     10.00748,     -1.45806,50.00000,54.00000,2.307284e-09,0.78719,5
542.52,1269.44,      9.89114,     -1.44344,50.00000,54.00000,2.305286e-09,0.78718,5
545.863,1269.61,      9.77567,     -1.38495,50.00000,54.00000,2.302079e-09,0.78719,5
549.2,1269.77,      9.65594,     -1.35591,50.00000,54.00000,2.308947e-09,0.78720,5
552.547,1269.94,      9.53269,     -1.29742,50.00000,54.00000,2.308981e-09,0.78718,5
555.876,1270.1,      9.40876,     -1.29742,50.00000,54.00000,2.306908e-09,0.78720,5
559.215,1270.27,      9.28622,     -1.23914,50.00000,54.00000,2.308958e-09,0.78719,5
562.556,1270.43,      9.16735,     -1.20989,50.00000,54.00000,2.307473e-09,0.78718,5
565.883,1270.6,      9.04001,     -1.20989,50.00000,54.00000,2.305394e-09,0.78719,5
569.22,1270.76,      8.91085,     -1.15140,50.00000,54.00000,2.306038e-09,0.78720,5
572.533,1270.93,      8.78720,     -1.15140,50.00000,54.00000,2.307764e-09,0.78719,5
575.871,1271.09,      8.66163,     -1.09312,50.00000,54.00000,2.306568e-09,0.78718,5
579.194,1271.26,      8.53642,     -1.06387,50.00000,54.00000,2.312458e-09,0.78719,5
582.522,1271.42,      8.41088,     -1.03462,50.00000,54.00000,2.303631e-09,0.78719,5
585.852,1271.59,      8.28650,     -1.03462,50.00000,54.00000,2.311460e-09,0.78719,5
589.177,1271.75,      8.16174,     -1.00559,50.00000,54.00000,2.306422e-09,0.78720,5
592.493,1271.92,      8.03626,     -0.94710,50.00000,54.00000,2.306853e-09,0.78719,5
595.825,1272.08,      7.90880,     -0.91785,50.00000,54.00000,2.304323e-09,0.78719,5
599.146,1272.25,      7.78305,     -0.91785,50.00000,54.00000,2.303949e-09,0.78719,5
602.464,1272.41,      7.65700,     -0.85957,50.00000,54.00000,2.308172e-09,0.78719,5
605.784,1272.58,      7.53192,     -0.83032,50.00000,54.00000,2.311126e-09,0.78719,5
609.117,1272.74,      7.40977,     -0.83032,50.00000,54.00000,2.305493e-09,0.78719,5
612.435,1272.91,      7.28729,     -0.80108,50.00000,54.00000,2.303642e-09,0.78720,5
615.764,1273.07,      7.16221,     -0.77183,50.00000,54.00000,2.302982e-09,0.78720,5
619.077,1273.24,      7.03370,     -0.74280,50.00000,54.00000,2.304036e-09,0.78719,5
622.397,1273.4,      6.90597,     -0.70624,50.00000,54.00000,2.305931e-09,0.78720,5
625.716,1273.57,      6.78180,     -0.68194,50.00000,54.00000,2.304124e-09,0.78719,5
629.022,1273.73,      6.64764,     -0.66000,50.00000,54.00000,2.306630e-09,0.78719,5
632.334,1273.9,      6.51995,     -0.59441,50.00000,54.00000,2.309944e-09,0.78720,5
635.657,1274.06,      6.39726,     -0.59441,50.00000,54.00000,2.307876e-09,0.78718,5
638.975,1274.23,      6.27889,     -0.56516,50.00000,54.00000,2.306601e-09,0.78720,5
642.287,1274.39,      6.16426,     -0.56516,50.00000,54.00000,2.311094e-09,0.78719,5
645.6,1274.56,      6.04611,     -0.53591,50.00000,54.00000,2.309068e-09,0.78720,5
648.918,1274.72,      5.93022,     -0.50667,50.00000,54.00000,2.311554e-09,0.78718,5
652.232,1274.89,      5.80852,     -0.50667,50.00000,54.00000,2.307835e-09,0.78720,5
655.545,1275.05,      5.68649,     -0.44839,50.00000,54.00000,2.309345e-09,0.78719,5
658.857,1275.22,      5.56671,     -0.41914,50.00000,54.00000,2.307698e-09,0.78719,5
662.178,1275.38,      5.44994,     -0.38989,50.00000,54.00000,2.309970e-09,0.78719,5
665.496,1275.55,      5.33322,     -0.36065,50.00000,54.00000,2.309595e-09,0.78719,5
668.795,1275.71,      5.21320,     -0.36065,50.00000,54.00000,2.305943e-09,0.78719,5
672.111,1275.88,      5.09268,     -0.33161,50.00000,54.00000,2.304902e-09,0.78719,5
675.423,1276.04,      4.97288,     -0.30237,50.00000,54.00000,2.307972e-09,0.78720,5
678.737,1276.21,      4.85979,     -0.27312,50.00000,54.00000,2.304806e-09,0.78720,5
682.048,1276.37,      4.74187,     -0.27312,50.00000,54.00000,2.305984e-09,0.78720,5
685.368,1276.54,      4.62345,     -0.22946,50.00000,54.00000,2.311457e-09,0.78719,5
688.675,1276.7,      4.50012,     -0.21484,50.00000,54.00000,2.306679e-09,0.78720,5
691.989,1276.87,      4.37595,     -0.21484,50.00000,54.00000,2.305530e-09,0.78719,5
695.321,1277.03,      4.24761,     -0.18559,50.00000,54.00000,2.309821e-09,0.78720,5
698.635,1277.2,      4.12369,     -0.15634,50.00000,54.00000,2.306554e-09,0.78720,5
701.949,1277.36,      3.98608,     -0.14903,50.00000,54.00000,2.305815e-09,0.78719,5
705.269,1277.53,      3.85501,     -0.12710,50.00000,54.00000,2.302854e-09,0.78719,5
708.585,1277.69,      3.71557,-9.806452e-02,50.00000,54.00000,2.302063e-09,0.78720,5
711.916,1277.86,      3.57628,-6.881720e-02,50.00000,54.00000,2.305949e-09,0.78719,5
715.227,1278.02,      3.43190,-6.881720e-02,50.00000,54.00000,2.309621e-09,0.78719,5
718.547,1278.19,      3.28626,-6.150538e-02,50.00000,54.00000,2.311605e-09,0.78720,5
721.861,1278.35,      3.13245,-1.032258e-02,50.00000,54.00000,2.303623e-09,0.78720,5
725.181,1278.52,      2.97939,-2.494624e-02,50.00000,54.00000,2.308123e-09,0.78719,5
728.49,1278.68,      2.82568, 4.301075e-03,50.00000,54.00000,2.310977e-09,0.78720,5
731.798,1278.85,      2.67274, 3.333333e-02,50.00000,54.00000,2.307686e-09,0.78720,5
735.119,1279.01,      2.51818, 6.258065e-02,50.00000,54.00000,2.306707e-09,0.78719,5
738.458,1279.18,      2.36618, 6.258065e-02,50.00000,54.00000,2.307039e-09,0.78719,5
741.782,1279.34,      2.21321, 9.182796e-02,50.00000,54.00000,2.305849e-09,0.78720,5
745.101,1279.51,      2.05122,      0.12108,50.00000,54.00000,2.312394e-09,0.78719,5
748.422,1279.67,      1.89563,      0.12108,50.00000,54.00000,2.302885e-09,0.78719,5
751.74,1279.84,      1.73239,      0.12108,50.00000,54.00000,2.307480e-09,0.78720,5
755.067,1280,      1.57383,      0.17935,50.00000,54.00000,2.307463e-09,0.78719,5
758.39,1280.17,      1.41538,      0.17935,50.00000,54.00000,2.310989e-09,0.78720,5
761.712,1280.33,      1.25990,      0.20129,50.00000,54.00000,2.303092e-09,0.78720,5
765.022,1280.5,      1.09739,      0.20129,50.00000,54.00000,2.304962e-09,0.78720,5
768.348,1280.66,      0.94146,      0.21591,50.00000,54.00000,2.302190e-09,0.78720,5
771.669,1280.83,      0.78855,      0.27419,50.00000,54.00000,2.302766e-09,0.78720,5
774.978,1280.99,      0.62859,      0.27419,50.00000,54.00000,2.305212e-09,0.78721,5
778.295,1281.16,      0.47636,      0.28882,50.00000,54.00000,2.306856e-09,0.78719,5
781.613,1281.32,      0.32541,      0.29613,50.00000,54.00000,2.306003e-09,0.78720,5
784.932,1281.49,      0.17719,      0.31806,50.00000,54.00000,2.303545e-09,0.78719,5
788.253,1281.65, 2.591006e-02,      0.31806,50.00000,54.00000,            ,0.44960,5
791.575,1281.82,     -0.11676,      0.34731,50.00000,54.00000,            ,0.44827,5
794.487,1281.96,     -0.24587,      0.35462,50.00000,54.00000,            ,0.44710,5