File: data/TGA/005d-L_M/ExpDat_2025_07_13_SL_PS_250704-P5EDR1-V3+4_dynamic.csv
#EXPORTTYPE:                 ,DATA ALL
#FILE:                       ,2025_07_13_SL_PS_250704-P5EDR1-V3+4_dynamic.ngb-ss5
#FORMAT:                     ,NETZSCH5
#FTYPE:                      ,ASCII
#IDENTITY:                   ,250704-P5EDR1-V3+4
#DECIMAL:                    ,POINT
#SEPARATOR:                  ,COMMA
#MTYPE:                      ,DSC
#INSTRUMENT:                 ,NETZSCH STA 449F5
#PROJECT:                    ,
#DATE/TIME:                  ,7/13/2025 4:54:32 PM (UTC-4)
#CORR. FILE:                 ,
#TEMPCAL:                    ,05-05-2025 14:38
#SENSITIVITY:                ,28-06-2023 13:53
#LABORATORY:                 ,Tran/AAG
#OPERATOR:                   ,Stanley
#REMARK:                     ,2025_03_20_Styrofoam_dynamic
#SAMPLE:                     ,250704-P5EDR1-V3+4
#SAMPLE MASS /mg:            ,5.74
#MATERIAL:                   ,Polystyrene
#REFERENCE:                  ,
#REFERENCE MASS /mg:         ,0
#TYPE OF CRUCIBLE:           ,Al2O3 85 ‘l, open
#SAMPLE CRUCIBLE MASS /mg:   ,0
#REFERENCE CRUCIBLE MASS /mg:,0
#DSC RANGE /‘V:              ,5000
#TG RANGE /mg:               ,35000
#TAU-R:                      ,---
#CORR. CODE:                 ,000
#EXO:                        ,-1
#RANGE:                      ,20›C....800›C/0.0....20.0K/min
#SEGMENT:                    ,S1-4/4
#SEG. 1:                     ,20›C/5.0(K/min)/100›C
#SEG. 2:                     ,100›C/00:05/100›C
#SEG. 3:                     ,100›C/1.0(K/min)/400›C
#SEG. 4:                     ,400›C/20.0(K/min)/800›C

##Temp./›C,Time/min,DSC/(mW/mg),Mass/%,Gas Flow(purge2)/(ml/min),Gas Flow(protective)/(ml/min),TIC(scan:1)/A,Sensit./(uV/mW),Segment
 56.95500,  0.00000,      2.93877,    100,50.00000,56.00000,            ,0.92619,1
 66.99700,  1.06667,      1.49812,     92.00784,50.00000,54.00000,2.313397e-09,0.92617,1
 72.09800,  2.13333,      0.71839,     88.91132,50.00000,54.00000,2.313772e-09,0.92606,1
 74.07300,  3.20000,      0.17866,     88.16638,50.00000,54.00000,2.318069e-09,0.92590,1
 74.24300,  4.26667,     -0.17120,     87.29721,50.00000,54.00000,2.318739e-09,0.92576,1
 73.32300,  5.33333,     -0.38875,     86.62108,50.00000,54.00000,2.316714e-09,0.92563,1
 71.78400,  6.40000,     -0.51864,     86.07718,50.00000,54.00000,2.317270e-09,0.92555,1
 69.95400,  7.46667,     -0.58949,     85.65331,50.00000,54.00000,2.319418e-09,0.92549,1
 67.97500,  8.53333,     -0.62156,     85.29077,50.00000,54.00000,2.317062e-09,0.92546,1
 65.93000,  9.60000,     -0.63183,     84.97735,50.00000,54.00000,2.317609e-09,0.92545,1
 64.24200, 10.66667,     -0.50921,     85.03258,50.00000,54.00000,2.312603e-09,0.92546,1
 64.33800, 11.73333,-6.688121e-02,     85.83275,50.00000,54.00000,2.312750e-09,0.92549,1
 66.60500, 12.80000,      0.41755,     86.83397,50.00000,54.00000,2.315313e-09,0.92553,1
 70.71800, 13.86667,      0.82843,     87.76237,50.00000,54.00000,2.317252e-09,0.92558,1
 76.38500, 14.93333,      1.18315,     88.57230,50.00000,54.00000,2.314182e-09,0.92563,1
 83.08900, 15.98333,      1.46982,     89.23258,50.00000,54.00000,2.312729e-09,0.92569,2
 88.24000, 16.78333,      1.45922,     89.25627,50.00000,54.00000,2.317767e-09,0.92574,2
 92.27300, 17.58333,      1.18604,     88.91934,50.00000,54.00000,2.311948e-09,0.92577,2
 95.62300, 18.38333,      0.99307,     88.67875,50.00000,54.00000,2.313057e-09,0.92581,2
 98.47000, 19.18333,      0.84432,     88.46394,50.00000,54.00000,2.317785e-09,0.92585,2
100.712, 19.98333,      0.65617,     88.17822,50.00000,54.00000,2.315006e-09,0.92589,2
102.304, 20.78333,      0.45906,     87.86080,50.00000,54.00000,2.318414e-09,0.92593,2
103.697, 21.80000,      0.28517,     87.59286,50.00000,54.00000,2.310338e-09,0.92597,3
104.839, 22.86667,      0.21431,     87.40941,50.00000,54.00000,2.317229e-09,0.92602,3
105.693, 23.93333,      0.14151,     87.24983,50.00000,54.00000,2.314462e-09,0.92605,3
106.346, 25.00000,      0.10135,     87.14930,50.00000,54.00000,2.315610e-09,0.92609,3
106.95, 26.06667, 9.153412e-02,     87.05470,50.00000,54.00000,2.314036e-09,0.92611,3
107.542, 27.13333, 9.429904e-02,     87.03693,50.00000,54.00000,2.317009e-09,0.92612,3
108.168, 28.20000,      0.10907,     87.01725,50.00000,54.00000,2.307855e-09,0.92611,3
108.847, 29.26667,      0.12501,     86.98171,50.00000,54.00000,2.318046e-09,0.92610,3
109.599, 30.33333,      0.14646,     86.99355,50.00000,54.00000,2.313032e-09,0.92607,3
110.425, 31.40000,      0.16851,     86.99355,50.00000,54.00000,2.310307e-09,0.92602,3
111.309, 32.46667,      0.18782,     87.00540,50.00000,54.00000,2.301182e-09,0.92594,3
112.237, 33.53333,      0.20511,     87.01725,50.00000,54.00000,2.302452e-09,0.92584,3
113.23, 34.60000,      0.22069,     87.01725,50.00000,54.00000,2.308584e-09,0.92568,3
114.237, 35.66667,      0.23541,     86.99355,50.00000,54.00000,2.306085e-09,0.92547,3
115.289, 36.73333,      0.24623,     86.99355,50.00000,54.00000,2.306855e-09,0.92524,3
116.338, 37.80000,      0.25618,     86.99948,50.00000,54.00000,2.305553e-09,0.92491,3
117.408, 38.86667,      0.26369,     86.99948,50.00000,54.00000,2.311220e-09,0.92456,3
118.486, 39.93333,      0.27105,     87.01132,50.00000,54.00000,2.305196e-09,0.92417,3
119.586, 41.00000,      0.27654,     86.98171,50.00000,55.00000,2.306255e-09,0.92385,3
120.678, 42.06667,      0.28175,     86.98763,50.00000,55.00000,2.304484e-09,0.92348,3
121.764, 43.13333,      0.28725,     86.96411,50.00000,55.00000,2.302290e-09,0.92319,3
122.847, 44.20000,      0.29101,     86.97596,50.00000,55.00000,2.305031e-09,0.92285,3
123.937, 45.26667,      0.29667,     86.95226,50.00000,55.00000,2.300296e-09,0.92258,3
125.002, 46.33333,      0.30000,     86.93449,50.00000,55.00000,2.302196e-09,0.92227,3
126.092, 47.40000,      0.30494,     86.93449,50.00000,55.00000,2.298640e-09,0.92201,3
127.159, 48.46667,      0.31077,     86.91672,50.00000,55.00000,2.301004e-09,0.92172,3
128.243, 49.53333,      0.31383,     86.89895,50.00000,55.00000,2.303833e-09,0.92147,3
129.3, 50.60000,      0.31908,     86.89895,50.00000,55.00000,2.297518e-09,0.92121,3
130.366, 51.66667,      0.32507,     86.91080,50.00000,55.00000,2.305012e-09,0.92101,3
131.433, 52.73333,      0.33019,     86.88711,50.00000,55.00000,2.300645e-09,0.92079,3
132.5, 53.80000,      0.33575,     86.88711,50.00000,55.00000,2.305008e-09,0.92063,3
133.57, 54.86667,      0.34147,     86.88711,50.00000,55.00000,2.299868e-09,0.92047,3
134.648, 55.93333,      0.34632,     86.86359,50.00000,55.00000,2.300963e-09,0.92033,3
135.712, 57.00000,      0.35264,     86.85767,50.00000,55.00000,2.301787e-09,0.92017,3
136.776, 58.06667,      0.35853,     86.86951,50.00000,55.00000,2.302092e-09,0.92004,3
137.857, 59.13333,      0.36428,     86.85174,50.00000,55.00000,2.295122e-09,0.91989,3
138.923, 60.20000,      0.37092,     86.85767,50.00000,55.00000,2.301064e-09,0.91979,3
139.977, 61.26667,      0.37566,     86.81620,50.00000,55.00000,2.296555e-09,0.91967,3
141.04, 62.33333,      0.38247,     86.82213,50.00000,55.00000,2.298030e-09,0.91958,3
142.115, 63.40000,      0.38869,     86.80436,50.00000,55.00000,2.296410e-09,0.91949,3
143.191, 64.46667,      0.39390,     86.82805,50.00000,55.00000,2.300534e-09,0.91943,3
144.262, 65.53333,      0.39956,     86.81620,50.00000,55.00000,2.298846e-09,0.91935,3
145.318, 66.60000,      0.40566,     86.79843,50.00000,55.00000,2.301659e-09,0.91928,3
146.394, 67.66667,      0.41104,     86.81028,50.00000,55.00000,2.299989e-09,0.91921,3
147.458, 68.73333,      0.41776,     86.80436,50.00000,55.00000,2.299439e-09,0.91913,3
148.526, 69.80000,      0.42507,     86.80436,50.00000,55.00000,2.298932e-09,0.91907,3
149.597, 70.86667,      0.43063,     86.79251,50.00000,55.00000,2.297556e-09,0.91901,3
150.654, 71.93333,      0.43678,     86.80436,50.00000,55.00000,2.295804e-09,0.91893,3
151.724, 73.00000,      0.44280,     86.79251,50.00000,55.00000,2.298200e-09,0.91886,3
152.788, 74.06667,      0.44794,     86.79251,50.00000,55.00000,2.298304e-09,0.91878,3
153.858, 75.13333,      0.45530,     86.80436,50.00000,55.00000,2.296290e-09,0.91869,3
154.941, 76.20000,      0.46106,     86.78659,50.00000,55.00000,2.294427e-09,0.91861,3
156.005, 77.26667,      0.46638,     86.78659,50.00000,55.00000,2.291786e-09,0.91852,3
157.085, 78.33333,      0.47319,     86.78659,50.00000,55.00000,2.298391e-09,0.91843,3
158.126, 79.40000,      0.47941,     86.78659,50.00000,55.00000,2.294929e-09,0.91833,3
159.19, 80.46667,      0.48535,     86.79843,50.00000,55.00000,2.291191e-09,0.91823,3
160.27, 81.53333,      0.48997,     86.79059,50.00000,55.00000,2.292559e-09,0.91812,3
161.347, 82.60000,      0.49652,     86.76690,50.00000,55.00000,2.295663e-09,0.91802,3
162.411, 83.66667,      0.50324,     86.76690,50.00000,55.00000,2.295740e-09,0.91790,3
163.453, 84.73333,      0.51040,     86.77282,50.00000,55.00000,2.289243e-09,0.91779,3
164.542, 85.80000,      0.51938,     86.75505,50.00000,55.00000,2.292540e-09,0.91767,3
165.598, 86.86667,      0.52449,     86.76690,50.00000,55.00000,2.292266e-09,0.91755,3
166.664, 87.93333,      0.52947,     86.75505,50.00000,55.00000,2.293887e-09,0.91741,3
167.739, 89.00000,      0.53490,     86.75505,50.00000,55.00000,2.292221e-09,0.91730,3
168.81, 90.06667,      0.54184,     86.73153,50.00000,55.00000,2.290706e-09,0.91716,3
169.863, 91.13333,      0.54848,     86.72944,50.00000,55.00000,2.293374e-09,0.91703,3
170.941, 92.20000,      0.55544,     86.72160,50.00000,55.00000,2.296487e-09,0.91688,3
171.995, 93.26667,      0.56137,     86.70383,50.00000,55.00000,2.300794e-09,0.91676,3
173.07, 94.33333,      0.56686,     86.69791,50.00000,55.00000,2.293809e-09,0.91660,3
174.138, 95.40000,      0.57311,     86.67439,50.00000,55.00000,2.292141e-09,0.91647,3
175.212, 96.46667,      0.58087,     86.65070,50.00000,55.00000,2.295688e-09,0.91632,3
176.277, 97.53333,      0.58670,     86.62700,50.00000,55.00000,2.293148e-09,0.91618,3
177.325, 98.60000,      0.59342,     86.60923,50.00000,55.00000,2.292131e-09,0.91602,3
178.399, 99.66667,      0.60153,     86.58554,50.00000,55.00000,2.294578e-09,0.91589,3
179.458,100.733,      0.60934,     86.57387,50.00000,55.00000,2.293859e-09,0.91573,3
180.546,101.8,      0.61688,     86.55017,50.00000,55.00000,2.291945e-09,0.91558,3
181.609,102.867,      0.62382,     86.52056,50.00000,55.00000,2.295724e-09,0.91542,3
182.682,103.933,      0.63003,     86.49686,50.00000,55.00000,2.291576e-09,0.91528,3
183.743,105,      0.63549,     86.46150,50.00000,55.00000,2.296580e-09,0.91511,3
184.816,106.067,      0.64263,     86.43780,50.00000,55.00000,2.293003e-09,0.91494,3
185.868,107.133,      0.65037,     86.36690,50.00000,55.00000,2.286130e-09,0.91479,3
186.928,108.2,      0.65753,     86.34129,50.00000,55.00000,2.292330e-09,0.91462,3
188.002,109.267,      0.66547,     86.29390,50.00000,55.00000,2.290008e-09,0.91447,3
189.059,110.333,      0.67462,     86.27021,50.00000,55.00000,2.288107e-09,0.91430,3
190.129,111.4,      0.67926,     86.23484,50.00000,55.00000,2.287180e-09,0.91415,3
191.205,112.467,      0.68710,     86.16376,50.00000,55.00000,2.284623e-09,0.91400,3
192.278,113.533,      0.69555,     86.14024,50.00000,55.00000,2.287639e-09,0.91382,3
193.34,114.6,      0.70007,     86.06916,50.00000,55.00000,2.289130e-09,0.91364,3
194.4,115.667,      0.71007,     86.02195,50.00000,55.00000,2.289336e-09,0.91349,3
195.468,116.733,      0.71918,     85.95105,50.00000,55.00000,2.285238e-09,0.91331,3
196.531,117.8,      0.72542,     85.90366,50.00000,55.00000,2.284923e-09,0.91316,3
197.603,118.867,      0.73274,     85.85645,50.00000,55.00000,2.286778e-09,0.91297,3
198.673,119.933,      0.74130,     85.79129,50.00000,55.00000,2.283395e-09,0.91282,3
199.735,121,      0.74742,     85.72631,50.00000,55.00000,2.283782e-09,0.91264,3
200.799,122.067,      0.75555,     85.66707,50.00000,55.00000,2.279733e-09,0.91248,3
201.877,123.133,      0.76523,     85.61986,50.00000,55.00000,2.284708e-09,0.91230,3
202.934,124.2,      0.76972,     85.55488,50.00000,55.00000,2.282265e-09,0.91214,3
204.005,125.267,      0.77959,     85.45436,50.00000,55.00000,2.284374e-09,0.91195,3
205.08,126.333,      0.78657,     85.43659,50.00000,55.00000,2.282291e-09,0.91179,3
206.138,127.4,      0.79448,     85.36551,50.00000,55.00000,2.286871e-09,0.91161,3
207.198,128.467,      0.80286,     85.29460,50.00000,55.00000,2.282433e-09,0.91144,3
208.254,129.533,      0.81096,     85.20993,50.00000,55.00000,2.283700e-09,0.91125,3
209.333,130.6,      0.81801,     85.16847,50.00000,55.00000,2.281952e-09,0.91109,3
210.408,131.667,      0.82738,     85.08171,50.00000,55.00000,2.284638e-09,0.91089,3
211.462,132.733,      0.83599,     85.00488,50.00000,55.00000,2.288890e-09,0.91073,3
212.532,133.8,      0.84355,     84.92613,50.00000,55.00000,2.281956e-09,0.91054,3
213.595,134.867,      0.85035,     84.83153,50.00000,55.00000,2.283115e-09,0.91035,3
214.664,135.933,      0.85795,     84.76045,50.00000,55.00000,2.284552e-09,0.91018,3
215.723,137,      0.86663,     84.68955,50.00000,55.00000,2.283084e-09,0.90998,3
216.801,138.067,      0.87443,     84.61864,50.00000,55.00000,2.283726e-09,0.90981,3
217.87,139.133,      0.88053,     84.52404,50.00000,55.00000,2.280731e-09,0.90961,3
218.928,140.2,      0.88725,     84.45296,50.00000,55.00000,2.280596e-09,0.90944,3
219.997,141.267,      0.89649,     84.35645,50.00000,55.00000,2.270011e-09,0.90924,3
221.066,142.333,      0.90342,     84.28554,50.00000,55.00000,2.277069e-09,0.90906,3
222.132,143.4,      0.91113,     84.21446,50.00000,55.00000,2.277282e-09,0.90886,3
223.2,144.467,      0.91856,     84.12387,50.00000,55.00000,2.280297e-09,0.90869,3
224.266,145.533,      0.92414,     84.04111,50.00000,55.00000,2.271268e-09,0.90848,3
225.334,146.6,      0.93082,     83.96429,50.00000,55.00000,2.270101e-09,0.90831,3
226.393,147.667,      0.93595,     83.85976,50.00000,55.00000,2.274738e-09,0.90810,3
227.467,148.733,      0.94376,     83.78885,50.00000,55.00000,2.276177e-09,0.90792,3
228.531,149.8,      0.95221,     83.66864,50.00000,55.00000,2.275162e-09,0.90771,3
229.606,150.867,      0.95866,     83.59564,50.00000,55.00000,2.273979e-09,0.90753,3
230.662,151.933,      0.96338,     83.52474,50.00000,55.00000,2.270266e-09,0.90732,3
231.728,153,      0.97220,     83.44791,50.00000,55.00000,2.275200e-09,0.90714,3
232.803,154.067,      0.98011,     83.35714,50.00000,55.00000,2.270883e-09,0.90692,3
233.872,155.133,      0.98426,     83.29216,50.00000,55.00000,2.269084e-09,0.90674,3
234.935,156.2,      0.99219,     83.20348,50.00000,55.00000,2.269609e-09,0.90653,3
235.993,157.267,      1.00045,     83.13833,50.00000,55.00000,2.269070e-09,0.90635,3
237.06,158.333,      1.00622,     83.04373,50.00000,55.00000,2.272053e-09,0.90613,3
238.118,159.4,      1.01389,     82.96690,50.00000,55.00000,2.273562e-09,0.90594,3
239.191,160.467,      1.02065,     82.89599,50.00000,55.00000,2.271773e-09,0.90572,3
240.256,161.533,      1.02757,     82.79547,50.00000,55.00000,2.268670e-09,0.90553,3
241.314,162.6,      1.03641,     82.74216,50.00000,55.00000,2.269382e-09,0.90531,3
242.376,163.667,      1.04289,     82.67718,50.00000,55.00000,2.271398e-09,0.90511,3
243.457,164.733,      1.04941,     82.58258,50.00000,55.00000,2.263323e-09,0.90490,3
244.522,165.8,      1.05736,     82.50575,50.00000,55.00000,2.266023e-09,0.90470,3
245.584,166.867,      1.06628,     82.41115,50.00000,55.00000,2.259302e-09,0.90447,3
246.654,167.933,      1.07157,     82.34599,50.00000,55.00000,2.265667e-09,0.90428,3
247.722,169,      1.07815,     82.27509,50.00000,55.00000,2.260508e-09,0.90405,3
248.77,170.067,      1.08744,     82.20418,50.00000,55.00000,2.265107e-09,0.90386,3
249.839,171.133,      1.09390,     82.11551,50.00000,55.00000,2.261383e-09,0.90363,3
250.9,172.2,      1.10212,     82.04443,50.00000,55.00000,2.260903e-09,0.90345,3
251.991,173.267,      1.10896,     81.94983,50.00000,55.00000,2.262478e-09,0.90321,3
253.043,174.333,      1.11898,     81.87892,50.00000,55.00000,2.264297e-09,0.90301,3
254.115,175.4,      1.12584,     81.78432,50.00000,55.00000,2.259874e-09,0.90277,3
255.173,176.467,      1.13174,     81.71934,50.00000,55.00000,2.261142e-09,0.90258,3
256.261,177.533,      1.13978,     81.64826,50.00000,55.00000,2.262447e-09,0.90235,3
257.327,178.6,      1.14798,     81.54774,50.00000,55.00000,2.261710e-09,0.90214,3
258.392,179.667,      1.15619,     81.47091,50.00000,55.00000,2.260994e-09,0.90191,3
259.468,180.733,      1.16154,     81.37631,50.00000,55.00000,2.257733e-09,0.90170,3
260.512,181.8,      1.16832,     81.30540,50.00000,55.00000,2.257583e-09,0.90147,3
261.584,182.867,      1.17806,     81.23449,50.00000,55.00000,2.255210e-09,0.90126,3
262.651,183.933,      1.18750,     81.11620,50.00000,55.00000,2.253335e-09,0.90101,3
263.727,185,      1.19178,     81.03136,50.00000,55.00000,2.257109e-09,0.90082,3
264.793,186.067,      1.20191,     80.93676,50.00000,55.00000,2.255145e-09,0.90058,3
265.848,187.133,      1.20994,     80.85401,50.00000,55.00000,2.257314e-09,0.90036,3
266.921,188.2,      1.21622,     80.75348,50.00000,55.00000,2.253975e-09,0.90012,3
267.995,189.267,      1.22464,     80.67474,50.00000,55.00000,2.256533e-09,0.89991,3
269.058,190.333,      1.23112,     80.58014,50.00000,55.00000,2.255799e-09,0.89966,3
270.116,191.4,      1.23825,     80.48554,50.00000,55.00000,2.253544e-09,0.89945,3
271.177,192.467,      1.24672,     80.39669,50.00000,56.00000,2.250781e-09,0.89921,3
272.248,193.533,      1.25588,     80.27265,50.00000,56.00000,2.252879e-09,0.89898,3
273.311,194.6,      1.26226,     80.19965,50.00000,56.00000,2.253560e-09,0.89874,3
274.383,195.667,      1.27147,     80.10505,50.00000,56.00000,2.251353e-09,0.89853,3
275.437,196.733,      1.27854,     80.01045,50.00000,56.00000,2.249414e-09,0.89828,3
276.512,197.8,      1.28631,     79.91585,50.00000,56.00000,2.253747e-09,0.89806,3
277.586,198.867,      1.29658,     79.80941,50.00000,56.00000,2.251900e-09,0.89781,3
278.642,199.933,      1.30091,     79.73258,50.00000,56.00000,2.250889e-09,0.89759,3
279.699,201,      1.31236,     79.61429,50.00000,56.00000,2.252611e-09,0.89734,3
280.78,202.067,      1.32172,     79.51969,50.00000,56.00000,2.250639e-09,0.89712,3
281.843,203.133,      1.32860,     79.40139,50.00000,56.00000,2.249975e-09,0.89685,3
282.913,204.2,      1.33484,     79.33049,50.00000,56.00000,2.249850e-09,0.89664,3
283.971,205.267,      1.34275,     79.23589,50.00000,56.00000,2.249149e-09,0.89638,3
285.035,206.333,      1.35068,     79.14129,50.00000,56.00000,2.247956e-09,0.89616,3
286.113,207.4,      1.35899,     79.03484,50.00000,56.00000,2.253278e-09,0.89590,3
287.172,208.467,      1.36663,     78.96394,50.00000,56.00000,2.250154e-09,0.89569,3
288.241,209.533,      1.37481,     78.81603,50.00000,56.00000,2.247825e-09,0.89542,3
289.309,210.6,      1.37834,     78.71551,50.00000,56.00000,2.249384e-09,0.89519,3
290.371,211.667,      1.38938,     78.64460,50.00000,56.00000,2.248127e-09,0.89493,3
291.437,212.733,      1.39946,     78.55000,50.00000,56.00000,2.246914e-09,0.89471,3
292.498,213.8,      1.40537,     78.43171,50.00000,56.00000,2.242282e-09,0.89444,3
293.572,214.867,      1.41249,     78.33711,50.00000,56.00000,2.239184e-09,0.89421,3
294.641,215.933,      1.42247,     78.24251,50.00000,56.00000,2.245287e-09,0.89394,3
295.71,217,      1.42913,     78.12422,50.00000,56.00000,2.245016e-09,0.89371,3
296.775,218.067,      1.44168,     78.01777,50.00000,56.00000,2.239139e-09,0.89344,3
297.854,219.133,      1.44553,     77.91725,50.00000,56.00000,2.242250e-09,0.89321,3
298.912,220.2,      1.45037,     77.82265,50.00000,56.00000,2.244252e-09,0.89295,3
299.965,221.267,      1.45927,     77.70244,50.00000,56.00000,2.239851e-09,0.89270,3
301.036,222.333,      1.46755,     77.60784,50.00000,56.00000,2.239931e-09,0.89244,3
302.105,223.4,      1.47822,     77.48955,50.00000,56.00000,2.241887e-09,0.89220,3
303.161,224.467,      1.48126,     77.39303,50.00000,56.00000,2.239212e-09,0.89192,3
304.223,225.533,      1.49112,     77.27474,50.00000,56.00000,2.241975e-09,0.89169,3
305.309,226.6,      1.50121,     77.19199,50.00000,56.00000,2.238729e-09,0.89142,3
306.38,227.667,      1.51046,     77.08554,50.00000,56.00000,2.243304e-09,0.89118,3
307.429,228.733,      1.51441,     76.95540,50.00000,56.00000,2.236098e-09,0.89091,3
308.498,229.8,      1.52779,     76.87265,50.00000,56.00000,2.241703e-09,0.89067,3
309.583,230.867,      1.53594,     76.75436,50.00000,56.00000,2.232830e-09,0.89038,3
310.643,231.933,      1.54475,     76.63606,50.00000,56.00000,2.236057e-09,0.89015,3
311.699,233,      1.55375,     76.54146,50.00000,56.00000,2.236436e-09,0.88987,3
312.767,234.067,      1.56177,     76.39774,50.00000,56.00000,2.232980e-09,0.88962,3
313.844,235.133,      1.56914,     76.30314,50.00000,56.00000,2.237388e-09,0.88934,3
314.907,236.2,      1.57582,     76.17892,50.00000,56.00000,2.236497e-09,0.88910,3
315.969,237.267,      1.58476,     76.07247,50.00000,56.00000,2.234509e-09,0.88881,3
317.055,238.333,      1.59204,     75.95418,50.00000,56.00000,2.238121e-09,0.88857,3
318.112,239.4,      1.59894,     75.81220,50.00000,56.00000,2.239845e-09,0.88829,3
319.176,240.467,      1.60846,     75.67038,50.00000,56.00000,2.233900e-09,0.88804,3
320.246,241.533,      1.61404,     75.55209,50.00000,56.00000,2.241171e-09,0.88775,3
321.315,242.6,      1.62224,     75.41603,50.00000,56.00000,2.240950e-09,0.88747,3
322.38,243.667,      1.62924,     75.27021,50.00000,56.00000,2.239276e-09,0.88722,3
323.454,244.733,      1.63818,     75.15192,50.00000,56.00000,2.236751e-09,0.88693,3
324.511,245.8,      1.64538,     75.01010,50.00000,56.00000,2.235476e-09,0.88668,3
325.589,246.867,      1.65490,     74.85052,50.00000,56.00000,2.238156e-09,0.88639,3
326.65,247.933,      1.66215,     74.70261,50.00000,56.00000,2.232886e-09,0.88614,3
327.709,249,      1.66959,     74.51341,50.00000,56.00000,2.237355e-09,0.88585,3
328.784,250.067,      1.67481,     74.36359,50.00000,56.00000,2.230566e-09,0.88559,3
329.846,251.133,      1.68790,     74.15662,50.00000,56.00000,2.235734e-09,0.88530,3
330.914,252.2,      1.69437,     73.99111,50.00000,56.00000,2.232231e-09,0.88505,3
331.969,253.267,      1.69960,     73.80192,50.00000,56.00000,2.238254e-09,0.88475,3
333.037,254.333,      1.70998,     73.61063,50.00000,56.00000,2.235167e-09,0.88449,3
334.09,255.4,      1.72141,     73.39582,50.00000,56.00000,2.231786e-09,0.88420,3
335.177,256.467,      1.73047,     73.18101,50.00000,56.00000,2.236633e-09,0.88394,3
336.242,257.533,      1.73828,     72.94059,50.00000,56.00000,2.232863e-09,0.88364,3
337.315,258.6,      1.74595,     72.66655,50.00000,56.00000,2.231710e-09,0.88338,3
338.381,259.667,      1.75168,     72.42805,50.00000,56.00000,2.232262e-09,0.88308,3
339.45,260.733,      1.76204,     72.14425,50.00000,56.00000,2.230897e-09,0.88282,3
340.494,261.8,      1.76882,     71.88223,50.00000,56.00000,2.227750e-09,0.88253,3
341.569,262.867,      1.78244,     71.57265,50.00000,56.00000,2.227596e-09,0.88226,3
342.649,263.933,      1.79006,     71.21202,50.00000,56.00000,2.224076e-09,0.88195,3
343.702,265,      1.79836,     70.85732,50.00000,56.00000,2.228287e-09,0.88165,3
344.762,266.067,      1.81079,     70.51829,50.00000,56.00000,2.229313e-09,0.88139,3
345.837,267.133,      1.81740,     70.10627,50.00000,56.00000,2.228040e-09,0.88109,3
346.903,268.2,      1.82902,     69.67474,50.00000,56.00000,2.229959e-09,0.88083,3
347.957,269.267,      1.83974,     69.21742,50.00000,56.00000,2.229996e-09,0.88052,3
349.029,270.333,      1.84803,     68.72666,50.00000,56.00000,2.226736e-09,0.88025,3
350.1,271.4,      1.86118,     68.18467,50.00000,56.00000,2.224746e-09,0.87994,3
351.164,272.467,      1.87220,     67.63868,50.00000,56.00000,2.231229e-09,0.87968,3
352.245,273.533,      1.88094,     67.05714,50.00000,56.00000,2.226223e-09,0.87937,3
353.304,274.6,      1.89308,     66.40087,50.00000,56.00000,2.219584e-09,0.87909,3
354.381,275.667,      1.90512,     65.72683,50.00000,56.00000,2.217891e-09,0.87878,3
355.442,276.733,      1.91553,     64.97387,50.00000,56.00000,2.223469e-09,0.87851,3
356.501,277.8,      1.92994,     64.17369,50.00000,56.00000,2.226445e-09,0.87820,3
357.568,278.867,      1.94278,     63.29861,50.00000,56.00000,2.222500e-09,0.87793,3
358.64,279.933,      1.95549,     62.38606,50.00000,56.00000,2.222670e-09,0.87767,3
359.706,281,      1.96676,     61.38868,50.00000,56.00000,2.221627e-09,0.87734,3
360.766,282.067,      1.98369,     60.30470,50.00000,56.00000,2.219795e-09,0.87707,3
361.824,283.133,      1.99884,     59.14965,50.00000,56.00000,2.221312e-09,0.87674,3
362.886,284.2,      2.01624,     57.89617,50.00000,56.00000,2.223086e-09,0.87644,3
363.948,285.267,      2.03697,     56.53624,50.00000,56.00000,2.222730e-09,0.87616,3
365.023,286.333,      2.05542,     55.08554,50.00000,56.00000,2.217220e-09,0.87584,3
366.085,287.4,      2.06801,     53.55801,50.00000,56.00000,2.223957e-09,0.87557,3
367.161,288.467,      2.08012,     51.99303,50.00000,56.00000,2.222273e-09,0.87523,3
368.227,289.533,      2.08726,     50.29808,50.00000,56.00000,2.218951e-09,0.87497,3
369.287,290.6,      2.12703,     48.58519,50.00000,56.00000,2.218154e-09,0.87464,3
370.352,291.667,      2.13813,     46.77195,50.00000,56.00000,2.216060e-09,0.87437,3
371.421,292.733,      2.14059,     44.83049,50.00000,56.00000,2.216533e-09,0.87408,3
372.499,293.8,      2.13753,     42.82613,50.00000,56.00000,2.212464e-09,0.87376,3
373.57,294.867,      2.17854,     40.76829,50.00000,56.00000,2.219088e-09,0.87349,3
374.632,295.933,      2.17863,     38.64564,50.00000,56.00000,2.210712e-09,0.87315,3
375.692,297,      2.18689,     36.36725,50.00000,56.00000,2.216878e-09,0.87287,3
376.763,298.067,      2.18720,     34.06707,50.00000,56.00000,2.215588e-09,0.87255,3
377.824,299.133,      2.19083,     31.77282,50.00000,56.00000,2.210294e-09,0.87226,3
378.899,300.2,      2.18481,     29.40174,50.00000,56.00000,2.211363e-09,0.87192,3
379.965,301.267,      2.18454,     27.04251,50.00000,56.00000,2.212327e-09,0.87164,3
381.025,302.333,      2.17265,     24.64774,50.00000,56.00000,2.212789e-09,0.87132,3
382.079,303.4,      2.15901,     22.25505,50.00000,56.00000,2.217059e-09,0.87104,3
383.157,304.467,      2.15122,     19.94495,50.00000,56.00000,2.214368e-09,0.87071,3
384.228,305.533,      2.13249,     17.65279,50.00000,56.00000,2.211389e-09,0.87042,3
385.3,306.6,      2.10957,     15.43937,50.00000,56.00000,2.214313e-09,0.87008,3
386.362,307.667,      2.09371,     13.29094,50.00000,56.00000,2.215389e-09,0.86980,3
387.437,308.733,      2.06614,     11.26481,50.00000,56.00000,2.214054e-09,0.86946,3
388.494,309.8,      2.03598,      9.41220,50.00000,56.00000,2.213213e-09,0.86913,3
389.57,310.867,      2.00673,      7.60470,50.00000,56.00000,2.210373e-09,0.86884,3
390.629,311.933,      1.97280,      5.97091,50.00000,56.00000,2.207851e-09,0.86854,3
391.697,313,      1.94240,      4.48275,50.00000,56.00000,2.210902e-09,0.86821,3
392.774,314.067,      1.91174,      3.11882,50.00000,56.00000,2.213115e-09,0.86787,3
393.836,315.133,      1.88248,      1.90662,50.00000,56.00000,2.213551e-09,0.86758,3
394.899,316.2,      1.84951,      0.80087,50.00000,56.00000,2.214863e-09,0.86723,3
395.96,317.267,      1.80881,     -0.15697,50.00000,56.00000,2.213257e-09,0.86695,3
397.023,318.333,      1.76876,     -1.03606,50.00000,56.00000,2.208984e-09,0.86661,3
398.091,319.4,      1.72267,     -1.77909,50.00000,56.00000,2.213665e-09,0.86631,3
399.158,320.467,      1.67912,     -2.41568,50.00000,56.00000,2.212401e-09,0.86598,3
399.678,320.978,      1.66015,     -2.68763,50.00000,56.00000,2.206805e-09,0.86583,4
399.786,321.058,      1.69780,     -2.71725,50.00000,56.00000,2.206805e-09,0.86583,4
399.994,321.138,      1.84548,     -2.75871,50.00000,56.00000,2.210987e-09,0.86578,4
400.33,321.218,      2.12299,     -2.75871,50.00000,56.00000,2.210987e-09,0.86578,4
400.836,321.298,      2.54078,     -2.75871,50.00000,56.00000,2.210359e-09,0.86572,4
401.506,321.378,      3.07691,     -2.70139,50.00000,56.00000,2.210359e-09,0.86572,4
402.374,321.458,      3.71873,     -2.64233,50.00000,56.00000,2.209118e-09,0.86568,4
403.394,321.538,      4.43851,     -2.57334,50.00000,56.00000,2.209118e-09,0.86568,4
404.578,321.618,      5.19943,     -2.51812,50.00000,56.00000,2.210307e-09,0.86563,4
405.896,321.698,      5.97177,     -2.46289,50.00000,56.00000,2.210307e-09,0.86563,4
407.338,321.778,      6.72159,     -2.38815,50.00000,56.00000,2.205617e-09,0.86558,4
408.861,321.858,      7.42385,     -2.36446,50.00000,56.00000,2.205617e-09,0.86558,4
410.446,321.938,      8.05723,     -2.33484,50.00000,56.00000,2.212825e-09,0.86553,4
412.055,322.018,      8.60325,     -2.31115,50.00000,56.00000,2.212825e-09,0.86553,4
413.697,322.098,      9.05329,     -2.31115,50.00000,56.00000,2.207330e-09,0.86549,4
415.324,322.178,      9.39950,     -2.31115,50.00000,56.00000,2.207330e-09,0.86549,4
416.924,322.258,      9.65474,     -2.31115,50.00000,56.00000,2.210624e-09,0.86544,4
418.473,322.338,      9.81259,     -2.36829,50.00000,56.00000,2.210624e-09,0.86544,4
420.008,322.418,      9.89181,     -2.41568,50.00000,56.00000,2.213182e-09,0.86540,4
421.486,322.498,      9.90714,     -2.45714,50.00000,56.00000,2.213182e-09,0.86540,4
422.92,322.578,      9.86946,     -2.50836,50.00000,56.00000,2.211303e-09,0.86534,4
424.318,322.658,      9.79641,     -2.57526,50.00000,56.00000,2.211303e-09,0.86534,4
425.673,322.738,      9.70343,     -2.64634,50.00000,56.00000,2.210265e-09,0.86528,4
427.007,322.818,      9.60581,     -2.70732,50.00000,56.00000,2.210265e-09,0.86528,4
428.319,322.898,      9.51312,     -2.77631,50.00000,56.00000,2.208387e-09,0.86524,4
429.642,322.978,      9.43778,     -2.82962,50.00000,56.00000,2.208387e-09,0.86524,4
430.961,323.058,      9.38509,     -2.93014,50.00000,56.00000,2.208387e-09,0.86524,4
432.287,323.138,      9.36735,     -2.97544,50.00000,56.00000,2.204576e-09,0.86518,4
433.63,323.218,      9.37302,     -3.03449,50.00000,56.00000,2.204576e-09,0.86518,4
434.999,323.298,      9.41621,     -3.10557,50.00000,56.00000,2.208772e-09,0.86514,4
436.404,323.378,      9.49001,     -3.15470,50.00000,56.00000,2.208772e-09,0.86514,4
437.824,323.458,      9.59150,     -3.20610,50.00000,56.00000,2.210546e-09,0.86509,4
439.289,323.538,      9.71739,     -3.26115,50.00000,56.00000,2.210546e-09,0.86509,4
440.773,323.618,      9.86385,     -3.31638,50.00000,56.00000,2.205503e-09,0.86505,4
442.306,323.698,     10.01922,     -3.34599,50.00000,56.00000,2.205503e-09,0.86505,4
443.856,323.778,     10.18619,     -3.40906,50.00000,56.00000,2.211728e-09,0.86499,4
445.444,323.858,     10.35311,     -3.47213,50.00000,56.00000,2.211728e-09,0.86499,4
447.029,323.938,     10.51614,     -3.56080,50.00000,56.00000,2.212310e-09,0.86494,4
448.64,324.018,     10.67177,     -3.58833,50.00000,56.00000,2.212310e-09,0.86494,4
450.278,324.098,     10.81341,     -3.62787,50.00000,56.00000,2.210950e-09,0.86489,4
451.932,324.178,     10.94390,     -3.69477,50.00000,56.00000,2.210950e-09,0.86489,4
453.588,324.258,     11.05863,     -3.74617,50.00000,56.00000,2.209692e-09,0.86484,4
455.236,324.338,     11.15549,     -3.79739,50.00000,56.00000,2.209692e-09,0.86484,4
456.89,324.418,     11.23829,     -3.84652,50.00000,56.00000,2.207671e-09,0.86480,4
458.552,324.498,     11.30386,     -3.91951,50.00000,56.00000,2.207671e-09,0.86480,4
460.202,324.578,     11.35614,     -3.95105,50.00000,56.00000,2.213877e-09,0.86475,4
461.859,324.658,     11.39804,     -4.00226,50.00000,56.00000,2.213877e-09,0.86475,4
463.503,324.738,     11.42836,     -4.02596,50.00000,56.00000,2.211632e-09,0.86470,4
465.156,324.818,     11.45300,     -4.07718,50.00000,56.00000,2.211632e-09,0.86470,4
466.797,324.898,     11.47056,     -4.13240,50.00000,56.00000,2.208214e-09,0.86465,4
468.451,324.978,     11.48684,     -4.15610,50.00000,56.00000,2.208214e-09,0.86465,4
470.091,325.058,     11.49930,     -4.17962,50.00000,56.00000,2.209913e-09,0.86460,4
471.751,325.138,     11.51500,     -4.22108,50.00000,56.00000,2.209913e-09,0.86460,4
473.397,325.218,     11.52878,     -4.22700,50.00000,56.00000,2.210100e-09,0.86454,4
475.047,325.298,     11.54514,     -4.25070,50.00000,56.00000,2.210100e-09,0.86454,4
476.706,325.378,     11.56523,     -4.27422,50.00000,56.00000,2.207319e-09,0.86449,4
478.357,325.458,     11.58562,     -4.27422,50.00000,56.00000,2.207319e-09,0.86449,4
480.021,325.538,     11.60814,     -4.27422,50.00000,56.00000,2.211777e-09,0.86445,4
481.682,325.618,     11.63339,     -4.28014,50.00000,56.00000,2.211777e-09,0.86445,4
483.347,325.698,     11.65959,     -4.28014,50.00000,56.00000,2.208225e-09,0.86440,4
485.02,325.778,     11.68872,     -4.29791,50.00000,56.00000,2.208225e-09,0.86440,4
486.691,325.858,     11.71570,     -4.29791,50.00000,56.00000,2.208225e-09,0.86440,4
488.369,325.938,     11.74410,     -4.27230,50.00000,56.00000,2.207659e-09,0.86436,4
490.047,326.018,     11.77274,     -4.27230,50.00000,56.00000,2.207659e-09,0.86436,4
491.727,326.098,     11.79906,     -4.27230,50.00000,56.00000,2.206331e-09,0.86431,4
493.414,326.178,     11.82137,     -4.24861,50.00000,56.00000,2.206331e-09,0.86431,4
495.092,326.258,     11.84528,     -4.23693,50.00000,56.00000,2.206008e-09,0.86425,4
496.766,326.338,     11.86520,     -4.22300,50.00000,56.00000,2.206008e-09,0.86425,4
498.457,326.418,     11.88209,     -4.22300,50.00000,56.00000,2.209162e-09,0.86420,4
500.15,326.498,     11.89920,     -4.19948,50.00000,56.00000,2.209162e-09,0.86420,4
501.822,326.578,     11.90892,     -4.19948,50.00000,56.00000,2.207948e-09,0.86415,4
503.509,326.658,     11.92080,     -4.19948,50.00000,56.00000,2.207948e-09,0.86415,4
505.188,326.738,     11.92941,     -4.19948,50.00000,56.00000,2.209088e-09,0.86410,4
506.869,326.818,     11.93577,     -4.17578,50.00000,56.00000,2.209088e-09,0.86410,4
508.547,326.898,     11.94289,     -4.15209,50.00000,56.00000,2.210264e-09,0.86405,4
510.216,326.978,     11.94847,     -4.15209,50.00000,56.00000,2.210264e-09,0.86405,4
511.892,327.058,     11.95296,     -4.12840,50.00000,56.00000,2.208591e-09,0.86400,4
513.562,327.138,     11.95682,     -4.15209,50.00000,56.00000,2.208591e-09,0.86400,4
515.239,327.218,     11.95981,     -4.12840,50.00000,56.00000,2.212055e-09,0.86395,4
516.922,327.298,     11.96458,     -4.10488,50.00000,56.00000,2.212055e-09,0.86395,4
518.586,327.378,     11.96696,     -4.08118,50.00000,56.00000,2.208611e-09,0.86390,4
520.256,327.458,     11.97045,     -4.05749,50.00000,56.00000,2.208611e-09,0.86390,4
521.921,327.538,     11.97491,     -4.05749,50.00000,56.00000,2.211736e-09,0.86386,4
523.591,327.618,     11.97438,     -4.05749,50.00000,56.00000,2.211736e-09,0.86386,4
525.258,327.698,     11.97980,     -4.03380,50.00000,56.00000,2.207001e-09,0.86380,4
526.924,327.778,     11.97900,     -4.03380,50.00000,56.00000,2.207001e-09,0.86380,4
528.593,327.858,     11.98199,     -4.03380,50.00000,56.00000,2.210924e-09,0.86376,4
530.251,327.938,     11.98655,     -4.02195,50.00000,56.00000,2.210924e-09,0.86376,4
531.927,328.018,     11.98763,     -4.01028,50.00000,56.00000,2.207974e-09,0.86371,4
533.599,328.098,     11.98877,     -3.98659,50.00000,56.00000,2.207974e-09,0.86371,4
535.252,328.178,     11.98998,     -3.96289,50.00000,56.00000,2.209591e-09,0.86367,4
536.91,328.258,     11.99232,     -3.93920,50.00000,56.00000,2.209591e-09,0.86367,4
538.568,328.338,     11.99041,     -3.92735,50.00000,56.00000,2.213978e-09,0.86361,4
540.231,328.418,     11.99168,     -3.91551,50.00000,56.00000,2.213978e-09,0.86361,4
541.892,328.498,     11.99212,     -3.91551,50.00000,56.00000,2.208861e-09,0.86355,4
543.562,328.578,     11.99305,     -3.91551,50.00000,56.00000,2.208861e-09,0.86355,4
545.208,328.658,     11.99422,     -3.89199,50.00000,56.00000,2.209373e-09,0.86351,4
546.869,328.738,     11.99503,     -3.89199,50.00000,56.00000,2.209373e-09,0.86351,4
548.528,328.818,     11.99362,     -3.86829,50.00000,56.00000,2.212592e-09,0.86345,4
550.189,328.898,     11.99561,     -3.85052,50.00000,56.00000,2.212592e-09,0.86345,4
551.84,328.978,     11.99338,     -3.82091,50.00000,56.00000,2.207840e-09,0.86341,4
553.499,329.058,     11.99935,     -3.82091,50.00000,56.00000,2.207840e-09,0.86341,4
555.158,329.138,     11.99912,     -3.82091,50.00000,56.00000,2.208170e-09,0.86335,4
556.807,329.218,     11.99864,     -3.79739,50.00000,56.00000,2.208170e-09,0.86335,4
558.474,329.298,     11.99689,     -3.77369,50.00000,56.00000,2.209863e-09,0.86331,4
560.121,329.378,     11.99615,     -3.77369,50.00000,56.00000,2.209863e-09,0.86331,4
561.763,329.458,     11.99263,     -3.77369,50.00000,56.00000,2.209863e-09,0.86331,4
563.421,329.538,     11.99064,     -3.77369,50.00000,56.00000,2.211482e-09,0.86326,4
565.062,329.618,     11.98614,     -3.75000,50.00000,56.00000,2.211482e-09,0.86326,4
566.719,329.698,     11.98318,     -3.75000,50.00000,56.00000,2.207596e-09,0.86321,4
568.362,329.778,     11.98132,     -3.72631,50.00000,56.00000,2.207596e-09,0.86321,4
570.003,329.858,     11.98075,     -3.72038,50.00000,56.00000,2.208449e-09,0.86316,4
571.661,329.938,     11.97648,     -3.70279,50.00000,56.00000,2.208449e-09,0.86316,4
573.304,330.018,     11.97523,     -3.67909,50.00000,56.00000,2.205065e-09,0.86310,4
574.944,330.098,     11.97263,     -3.67909,50.00000,56.00000,2.205065e-09,0.86310,4
576.582,330.178,     11.97132,     -3.67909,50.00000,56.00000,2.206337e-09,0.86306,4
578.22,330.258,     11.97134,     -3.65540,50.00000,56.00000,2.206337e-09,0.86306,4
579.874,330.338,     11.96979,     -3.63171,50.00000,56.00000,2.208655e-09,0.86301,4
581.511,330.418,     11.97128,     -3.63171,50.00000,56.00000,2.208655e-09,0.86301,4
583.157,330.498,     11.96721,     -3.63171,50.00000,56.00000,2.208796e-09,0.86296,4
584.791,330.578,     11.96698,     -3.60226,50.00000,56.00000,2.208796e-09,0.86296,4
586.426,330.658,     11.96739,     -3.58449,50.00000,56.00000,2.210228e-09,0.86292,4
588.071,330.738,     11.96807,     -3.58449,50.00000,56.00000,2.210228e-09,0.86292,4
589.709,330.818,     11.96611,     -3.58449,50.00000,56.00000,2.207539e-09,0.86286,4
591.351,330.898,     11.96605,     -3.56080,50.00000,56.00000,2.207539e-09,0.86286,4
592.99,330.978,     11.96658,     -3.53711,50.00000,56.00000,2.208837e-09,0.86281,4
594.621,331.058,     11.96690,     -3.53711,50.00000,56.00000,2.208837e-09,0.86281,4
596.263,331.138,     11.96554,     -3.51359,50.00000,56.00000,2.204701e-09,0.86276,4
597.914,331.218,     11.96615,     -3.51359,50.00000,56.00000,2.204701e-09,0.86276,4
599.535,331.298,     11.96454,     -3.48990,50.00000,56.00000,2.210181e-09,0.86271,4
601.175,331.378,     11.96604,     -3.48990,50.00000,56.00000,2.210181e-09,0.86271,4
602.806,331.458,     11.96707,     -3.46620,50.00000,56.00000,2.208869e-09,0.86266,4
604.442,331.538,     11.96559,     -3.46620,50.00000,56.00000,2.208869e-09,0.86266,4
606.079,331.618,     11.96550,     -3.44251,50.00000,56.00000,2.207419e-09,0.86261,4
607.711,331.698,     11.96674,     -3.45436,50.00000,56.00000,2.207419e-09,0.86261,4
609.343,331.778,     11.96638,     -3.43066,50.00000,56.00000,2.208991e-09,0.86256,4
610.965,331.858,     11.96605,     -3.43066,50.00000,56.00000,2.208991e-09,0.86256,4
612.599,331.938,     11.96501,     -3.40714,50.00000,56.00000,2.201622e-09,0.86251,4
614.229,332.018,     11.96457,     -3.40714,50.00000,56.00000,2.201622e-09,0.86251,4
615.871,332.098,     11.96594,     -3.37944,50.00000,56.00000,2.204024e-09,0.86245,4
617.486,332.178,     11.96889,     -3.37944,50.00000,56.00000,2.204024e-09,0.86245,4
619.12,332.258,     11.96845,     -3.37944,50.00000,56.00000,2.204749e-09,0.86241,4
620.743,332.338,     11.96955,     -3.35575,50.00000,56.00000,2.204749e-09,0.86241,4
622.371,332.418,     11.97138,     -3.33223,50.00000,56.00000,2.209684e-09,0.86236,4
624.001,332.498,     11.97389,     -3.33223,50.00000,56.00000,2.209684e-09,0.86236,4
625.628,332.578,     11.97654,     -3.30854,50.00000,56.00000,2.209684e-09,0.86236,4
627.243,332.658,     11.97717,     -3.30854,50.00000,56.00000,2.204724e-09,0.86231,4
628.874,332.738,     11.98096,     -3.30854,50.00000,56.00000,2.204724e-09,0.86231,4
630.491,332.818,     11.98398,     -3.28101,50.00000,56.00000,2.209602e-09,0.86227,4
632.117,332.898,     11.98550,     -3.25732,50.00000,56.00000,2.209602e-09,0.86227,4
633.743,332.978,     11.99000,     -3.25732,50.00000,56.00000,2.203510e-09,0.86221,4
635.363,333.058,     11.99281,     -3.25732,50.00000,56.00000,2.203510e-09,0.86221,4
636.999,333.138,     11.99830,     -3.25732,50.00000,56.00000,2.210129e-09,0.86216,4
638.611,333.218,     12.00059,     -3.23362,50.00000,56.00000,2.210129e-09,0.86216,4
640.232,333.298,     12.00523,     -3.20993,50.00000,56.00000,2.211607e-09,0.86211,4
641.862,333.378,     12.00784,     -3.20993,50.00000,56.00000,2.211607e-09,0.86211,4
643.486,333.458,     12.01313,     -3.20993,50.00000,56.00000,2.207204e-09,0.86206,4
645.1,333.538,     12.01694,     -3.18641,50.00000,56.00000,2.207204e-09,0.86206,4
646.73,333.618,     12.01827,     -3.16063,50.00000,56.00000,2.212436e-09,0.86201,4
648.35,333.698,     12.02485,     -3.16063,50.00000,56.00000,2.212436e-09,0.86201,4
649.972,333.778,     12.02826,     -3.16063,50.00000,56.00000,2.202758e-09,0.86195,4
651.58,333.858,     12.03300,     -3.16063,50.00000,56.00000,2.202758e-09,0.86195,4
653.199,333.938,     12.03675,     -3.13711,50.00000,56.00000,2.209330e-09,0.86190,4
654.824,334.018,     12.04233,     -3.13711,50.00000,56.00000,2.209330e-09,0.86190,4
656.441,334.098,     12.04696,     -3.12526,50.00000,56.00000,2.204544e-09,0.86185,4
658.061,334.178,     12.04867,     -3.11341,50.00000,56.00000,2.204544e-09,0.86185,4
659.684,334.258,     12.05375,     -3.08972,50.00000,56.00000,2.210128e-09,0.86181,4
661.294,334.338,     12.05598,     -3.08972,50.00000,56.00000,2.210128e-09,0.86181,4
662.911,334.418,     12.05743,     -3.08972,50.00000,56.00000,2.201835e-09,0.86175,4
664.537,334.498,     12.06075,     -3.08972,50.00000,56.00000,2.201835e-09,0.86175,4
666.147,334.578,     12.06196,     -3.06603,50.00000,56.00000,2.206995e-09,0.86170,4
667.766,334.658,     12.06268,     -3.06603,50.00000,56.00000,2.206995e-09,0.86170,4
669.389,334.738,     12.06256,     -3.04251,50.00000,56.00000,2.200552e-09,0.86166,4
671.007,334.818,     12.06311,     -3.04251,50.00000,56.00000,2.200552e-09,0.86166,4
672.619,334.898,     12.06458,     -3.01882,50.00000,56.00000,2.203380e-09,0.86162,4
674.234,334.978,     12.06041,     -3.01882,50.00000,56.00000,2.203380e-09,0.86162,4
675.854,335.058,     12.05620,     -2.99512,50.00000,56.00000,2.207594e-09,0.86157,4
677.469,335.138,     12.05533,     -2.99512,50.00000,56.00000,2.207594e-09,0.86157,4
679.084,335.218,     12.04983,     -2.99512,50.00000,56.00000,2.207162e-09,0.86150,4
680.704,335.298,     12.04939,     -2.97143,50.00000,56.00000,2.207162e-09,0.86150,4
682.318,335.378,     12.04424,     -2.94791,50.00000,56.00000,2.206463e-09,0.86146,4
683.94,335.458,     12.03614,     -2.94791,50.00000,56.00000,2.206463e-09,0.86146,4
685.547,335.538,     12.02911,     -2.94791,50.00000,56.00000,2.209416e-09,0.86141,4
687.171,335.618,     12.02327,     -2.94791,50.00000,56.00000,2.209416e-09,0.86141,4
688.783,335.698,     12.01342,     -2.94791,50.00000,56.00000,2.209416e-09,0.86141,4
690.404,335.778,     12.00195,     -2.92422,50.00000,56.00000,2.203851e-09,0.86136,4
692.022,335.858,     11.99305,     -2.92422,50.00000,56.00000,2.203851e-09,0.86136,4
693.635,335.938,     11.97722,     -2.92422,50.00000,56.00000,2.206201e-09,0.86131,4
695.254,336.018,     11.96405,     -2.92422,50.00000,56.00000,2.206201e-09,0.86131,4
696.868,336.098,     11.95100,     -2.90645,50.00000,56.00000,2.207634e-09,0.86126,4
698.484,336.178,     11.93487,     -2.90052,50.00000,56.00000,2.207634e-09,0.86126,4
700.097,336.258,     11.92024,     -2.90052,50.00000,56.00000,2.206110e-09,0.86120,4
701.717,336.338,     11.90256,     -2.87683,50.00000,56.00000,2.206110e-09,0.86120,4
703.327,336.418,     11.88193,     -2.86498,50.00000,56.00000,2.201407e-09,0.86116,4
704.949,336.498,     11.86294,     -2.85331,50.00000,56.00000,2.201407e-09,0.86116,4
706.564,336.578,     11.84157,     -2.85906,50.00000,56.00000,2.204790e-09,0.86110,4
708.179,336.658,     11.82283,     -2.85906,50.00000,56.00000,2.204790e-09,0.86110,4
709.791,336.738,     11.79733,     -2.83554,50.00000,56.00000,2.206948e-09,0.86105,4
711.402,336.818,     11.77665,     -2.83554,50.00000,56.00000,2.206948e-09,0.86105,4
713.018,336.898,     11.75288,     -2.83554,50.00000,56.00000,2.211663e-09,0.86100,4
714.638,336.978,     11.72791,     -2.81185,50.00000,56.00000,2.211663e-09,0.86100,4
716.255,337.058,     11.70611,     -2.81185,50.00000,56.00000,2.206939e-09,0.86095,4
717.863,337.138,     11.67966,     -2.81185,50.00000,56.00000,2.206939e-09,0.86095,4
719.488,337.218,     11.65187,     -2.81185,50.00000,56.00000,2.203645e-09,0.86091,4
721.091,337.298,     11.62482,     -2.78815,50.00000,56.00000,2.203645e-09,0.86091,4
722.713,337.378,     11.59869,     -2.78815,50.00000,56.00000,2.206803e-09,0.86085,4
724.319,337.458,     11.57227,     -2.78815,50.00000,56.00000,2.206803e-09,0.86085,4
725.941,337.538,     11.54756,     -2.76446,50.00000,56.00000,2.205423e-09,0.86080,4
727.558,337.618,     11.52493,     -2.76446,50.00000,56.00000,2.205423e-09,0.86080,4
729.172,337.698,     11.49963,     -2.77038,50.00000,56.00000,2.211626e-09,0.86075,4
730.792,337.778,     11.47483,     -2.76446,50.00000,56.00000,2.211626e-09,0.86075,4
732.403,337.858,     11.44561,     -2.76446,50.00000,56.00000,2.207476e-09,0.86070,4
734.016,337.938,     11.41910,     -2.74094,50.00000,56.00000,2.207476e-09,0.86070,4
735.622,338.018,     11.38986,     -2.74094,50.00000,56.00000,2.208748e-09,0.86065,4
737.239,338.098,     11.36287,     -2.71725,50.00000,56.00000,2.208748e-09,0.86065,4
738.858,338.178,     11.33239,     -2.71725,50.00000,56.00000,2.205923e-09,0.86060,4
740.47,338.258,     11.30285,     -2.71725,50.00000,56.00000,2.205923e-09,0.86060,4
742.083,338.338,     11.27149,     -2.71725,50.00000,56.00000,2.209323e-09,0.86055,4
743.691,338.418,     11.23768,     -2.69355,50.00000,56.00000,2.209323e-09,0.86055,4
745.313,338.498,     11.20786,     -2.69355,50.00000,56.00000,2.206967e-09,0.86050,4
746.921,338.578,     11.17266,     -2.66986,50.00000,56.00000,2.206967e-09,0.86050,4
748.534,338.658,     11.13879,     -2.66986,50.00000,56.00000,2.205391e-09,0.86044,4
750.151,338.738,     11.10855,     -2.66986,50.00000,56.00000,2.205391e-09,0.86044,4
751.772,338.818,     11.07080,     -2.66986,50.00000,56.00000,2.203525e-09,0.86039,4
753.371,338.898,     11.03555,     -2.66986,50.00000,56.00000,2.203525e-09,0.86039,4
754.983,338.978,     11.00145,     -2.65819,50.00000,56.00000,2.205235e-09,0.86035,4
756.608,339.058,     10.96304,     -2.64042,50.00000,56.00000,2.205235e-09,0.86035,4
758.219,339.138,     10.92810,     -2.62265,50.00000,56.00000,2.205235e-09,0.86035,4
759.826,339.218,     10.89068,     -2.64634,50.00000,56.00000,2.213538e-09,0.86029,4
761.441,339.298,     10.85264,     -2.59704,50.00000,56.00000,2.213538e-09,0.86029,4
763.06,339.378,     10.81421,     -2.62456,50.00000,56.00000,2.206141e-09,0.86025,4
764.673,339.458,     10.77559,     -2.62456,50.00000,56.00000,2.206141e-09,0.86025,4
766.286,339.538,     10.73626,     -2.60679,50.00000,56.00000,2.204416e-09,0.86019,4
767.898,339.618,     10.69736,     -2.59495,50.00000,56.00000,2.204416e-09,0.86019,4
769.513,339.698,     10.65720,     -2.60087,50.00000,56.00000,2.206529e-09,0.86014,4
771.114,339.778,     10.61706,     -2.57735,50.00000,56.00000,2.206529e-09,0.86014,4
772.723,339.858,     10.57774,     -2.57735,50.00000,56.00000,2.205573e-09,0.86010,4
774.338,339.938,     10.53426,     -2.57735,50.00000,56.00000,2.205573e-09,0.86010,4
775.938,340.018,     10.49401,     -2.55366,50.00000,56.00000,2.207438e-09,0.86003,4
777.548,340.098,     10.45343,     -2.55366,50.00000,56.00000,2.207438e-09,0.86003,4
779.15,340.178,     10.40941,     -2.54774,50.00000,56.00000,2.206993e-09,0.85999,4
780.762,340.258,     10.37211,     -2.52997,50.00000,56.00000,2.206993e-09,0.85999,4
782.385,340.338,     10.33272,     -2.52997,50.00000,56.00000,2.205291e-09,0.85995,4
783.997,340.418,     10.28928,     -2.51220,50.00000,56.00000,2.205291e-09,0.85995,4
785.609,340.498,     10.24925,     -2.50627,50.00000,56.00000,2.204981e-09,0.85990,4
787.212,340.578,     10.20753,     -2.50627,50.00000,56.00000,2.204981e-09,0.85990,4
788.829,340.658,     10.16462,     -2.52997,50.00000,56.00000,2.206451e-09,0.85984,4
790.446,340.738,     10.12395,     -2.50627,50.00000,56.00000,            ,0.44872,4
792.05,340.818,     10.07830,     -2.48275,50.00000,56.00000,            ,0.44807,4
793.66,340.898,     10.03671,     -2.48275,50.00000,56.00000,            ,0.44743,4
794.358,340.933,     10.01922,     -2.48275,50.00000,56.00000,            ,0.44715,4