File: data/TGA/005d-L_M/F1.txt
Filename	F1
Instrument name
Operator	Gwenael
rundate	2025-02-10
Sample name	F1
[step]
Step 1
Time	Temperature	Weight	Weight	Deriv. Weight
min	°C	mg	%	% / °C
0,02	24,96	4,512	100,034	3,45284e-3
0,96	25,53	4,519	100,189	3,00969e-3
1,96	27,43	4,520	100,226	2,65347e-3
2,96	31,03	4,521	100,251	2,37379e-3
3,96	35,75	4,523	100,278	2,15571e-3
4,96	40,89	4,522	100,274	1,97926e-3
5,96	45,98	4,522	100,277	1,80278e-3
6,96	50,86	4,523	100,283	1,63055e-3
7,96	55,58	4,522	100,276	1,43450e-3
8,96	60,24	4,523	100,288	8,60692e-4
9,96	64,94	4,523	100,293	2,49566e-4
10,96	69,76	4,524	100,300	-3,35470e-4
11,96	74,69	4,524	100,303	-9,19372e-4
12,96	79,71	4,524	100,309	-1,48325e-3
13,96	84,78	4,524	100,308	-2,08864e-3
14,96	89,86	4,524	100,305	-2,74806e-3
15,96	94,96	4,523	100,294	-3,48558e-3
16,96	99,28	4,522	100,262	-4,33053e-3
17,96	101,87	4,520	100,214	-5,25641e-3
18,96	102,92	4,518	100,174	-6,31209e-3
19,96	102,99	4,517	100,151	-7,42684e-3
20,96	102,56	4,516	100,134	-8,05241e-3
21,96	101,93	4,515	100,121	-6,98061e-3
22,96	101,27	4,515	100,113	-4,16191e-3
23,96	100,66	4,515	100,100	-1,52548e-3
24,96	100,16	4,514	100,090	-5,56482e-5
25,96	100,29	4,515	100,114	5,63399e-4
26,96	102,46	4,516	100,135	7,62980e-4
27,96	106,39	4,516	100,138	8,20557e-4
28,96	111,11	4,516	100,141	7,80972e-4
29,96	115,94	4,517	100,145	6,77812e-4
30,96	120,69	4,517	100,146	4,92315e-4
31,96	125,42	4,516	100,136	2,03052e-4
32,96	130,23	4,517	100,146	-1,39238e-4
33,96	135,13	4,517	100,158	-4,03528e-4
34,96	140,10	4,517	100,149	-3,93680e-4
35,96	145,14	4,517	100,150	-3,97095e-4
36,96	150,20	4,517	100,145	-4,32961e-4
37,96	155,27	4,516	100,138	-5,22669e-4
38,96	160,32	4,516	100,123	-6,49705e-4
39,96	165,36	4,515	100,102	-7,93670e-4
40,96	170,39	4,514	100,085	-9,62739e-4
41,96	175,39	4,514	100,097	-1,12933e-3
42,96	180,40	4,517	100,152	-1,27569e-3
43,96	185,42	4,516	100,132	-1,40936e-3
44,96	190,43	4,515	100,110	-1,52286e-3
45,96	195,43	4,515	100,101	-1,61307e-3
46,96	200,43	4,514	100,084	-1,70133e-3
47,96	205,42	4,513	100,076	-1,82895e-3
48,96	210,42	4,513	100,060	-2,02697e-3
49,96	215,42	4,512	100,046	-2,25730e-3
50,96	220,43	4,511	100,032	-2,31648e-3
51,96	225,44	4,511	100,019	-2,21252e-3
52,96	230,44	4,510	100,003	-2,11210e-3
53,96	235,45	4,510	100,006	-2,04980e-3
54,96	240,47	4,510	99,995	-1,99288e-3
55,96	245,47	4,509	99,987	-1,97890e-3
56,96	250,48	4,509	99,977	-2,00794e-3
57,96	255,49	4,509	99,975	-2,09941e-3
58,96	260,50	4,508	99,957	-2,29723e-3
59,96	265,51	4,508	99,947	-2,58617e-3
60,96	270,52	4,507	99,938	-2,97302e-3
61,96	275,53	4,507	99,927	-3,46597e-3
62,96	280,54	4,506	99,919	-4,04409e-3
63,96	285,54	4,505	99,900	-4,72513e-3
64,96	290,55	4,505	99,881	-5,53535e-3
65,96	295,53	4,504	99,856	-6,50814e-3
66,96	299,05	4,502	99,823	-7,66866e-3
67,96	300,80	4,500	99,789	-9,13772e-3
68,96	301,67	4,499	99,751	-0,0110043
69,96	301,92	4,497	99,716	-0,0133935
70,96	301,69	4,496	99,684	-0,0165173
71,96	301,20	4,494	99,652	-0,0203300
72,96	300,66	4,493	99,625	-0,0233602
73,96	300,19	4,492	99,591	-7,44229e-3
74,96	299,86	4,490	99,556	0,0905763
75,96	299,69	4,489	99,534	0,147866
76,96	299,66	4,487	99,499	0,146762
77,96	299,71	4,486	99,470	0,144405
78,96	299,81	4,485	99,435	0,148450
79,96	299,92	4,483	99,405	0,138346
80,96	300,00	4,482	99,375	-1,78947e-3
81,96	300,05	4,481	99,350	-0,494727
82,96	300,07	4,479	99,308	-0,809299
83,96	300,07	4,477	99,277	-0,800705
84,96	300,05	4,476	99,238	-0,782890
85,96	300,03	4,474	99,209	-0,758752
86,96	300,01	4,473	99,174	-0,447626
87,96	300,00	4,471	99,139	1,14971
88,96	299,99	4,470	99,104	3,63587
89,96	299,99	4,468	99,067	4,13324
90,96	299,99	4,466	99,028	3,97699
91,96	299,99	4,465	98,999	3,98307
92,96	300,00	4,464	98,970	3,81860
93,96	300,00	4,462	98,930	1,68909
94,96	300,00	4,460	98,901	-7,67791
95,96	300,01	4,458	98,854	-16,6769
96,96	300,01	4,457	98,824	-17,0677
97,96	300,00	4,455	98,789	-14,8437
98,96	300,00	4,454	98,747	-11,2398
99,96	300,00	4,450	98,672	0,530757
100,96	300,00	4,450	98,668	24,0896
101,96	300,00	4,448	98,631	42,2720
102,96	300,00	4,446	98,588	45,3947
103,96	300,00	4,445	98,553	41,5390
104,96	300,00	4,443	98,510	27,3825
105,96	300,00	4,441	98,479	2,65369
106,96	300,00	4,440	98,440	-31,0210
107,96	300,00	4,438	98,399	-89,4509
108,96	300,00	4,436	98,360	-92,0230
109,96	300,00	4,434	98,318	-84,8017
110,96	300,00	4,432	98,278	-73,7196
111,96	300,00	4,430	98,234	-65,7863
112,96	300,00	4,429	98,195	-45,6583
113,96	300,00	4,427	98,159	-15,2565
114,96	300,00	4,425	98,116	26,0069
115,96	300,00	4,423	98,080	70,2820
116,96	300,00	4,422	98,039	103,068
117,96	300,00	4,420	97,993	98,8819
118,96	300,00	4,418	97,956	100,307
119,96	300,00	4,416	97,910	92,6744
120,96	300,00	4,415	97,887	98,4500
121,96	300,00	4,412	97,835	74,2161
122,96	300,00	4,411	97,796	29,4518
123,96	300,00	4,409	97,752	49,2957
124,96	300,00	4,407	97,714	81,8722
125,96	300,00	4,405	97,675	62,1186
126,96	300,00	4,403	97,635	80,4744
127,96	300,00	4,401	97,591	67,3960
128,96	300,00	4,400	97,554	-1,63359
129,96	300,00	4,398	97,517	-31,8538
130,96	300,00	4,396	97,474	-63,1459
131,96	300,00	4,394	97,428	-59,2048
132,96	300,00	4,392	97,385	5,25140
133,96	300,00	4,390	97,345	14,8652
134,96	300,00	4,389	97,308	-2,60112
135,96	300,00	4,387	97,264	4,61425
136,96	300,00	4,385	97,226	13,5176
137,96	300,00	4,383	97,183	22,5765
138,96	300,00	4,381	97,136	3,40617
139,96	300,00	4,379	97,106	-19,1978
140,96	300,00	4,378	97,065	-25,1003
141,96	300,00	4,375	97,017	-18,5010
142,96	300,00	4,374	96,979	-45,6738
143,96	300,00	4,372	96,940	-37,3022
144,96	300,00	4,370	96,896	-12,4916
145,96	300,00	4,369	96,870	-27,4813
146,96	300,00	4,367	96,822	-32,7115
147,96	300,00	4,365	96,782	-43,9018
148,96	300,00	4,364	96,755	-31,0145
149,96	300,00	4,361	96,700	23,6045
150,96	300,00	4,359	96,656	49,8877
151,96	300,00	4,358	96,625	57,0969
152,96	300,00	4,356	96,584	77,0161
153,96	300,00	4,354	96,537	92,1477
154,96	300,00	4,352	96,499	87,5603
155,96	300,00	4,350	96,463	64,4908
156,96	300,00	4,349	96,422	26,1177
157,96	300,00	4,347	96,380	-6,16278
158,96	300,00	4,345	96,346	-21,3908
159,96	300,00	4,343	96,301	-53,4180
160,96	300,00	4,342	96,269	-61,1730
161,96	300,00	4,339	96,217	-63,3795
162,96	300,00	4,339	96,198	-80,0681
163,96	300,00	4,336	96,151	-58,1815
164,96	300,00	4,334	96,102	-10,3846
165,96	300,00	4,333	96,071	9,00719
166,96	300,00	4,331	96,037	19,7393
167,96	300,00	4,329	95,982	12,6022
168,96	300,00	4,327	95,951	9,83270
169,96	300,00	4,325	95,905	6,63826
170,96	300,00	4,324	95,880	11,9224
171,96	300,00	4,322	95,831	17,9860
172,96	300,00	4,321	95,804	11,9238
173,96	300,00	4,319	95,771	2,00383
174,96	300,00	4,317	95,722	-0,925172
175,96	300,00	4,316	95,688	-7,12096
176,96	300,00	4,314	95,646	-15,5171
177,96	300,00	4,312	95,605	-21,0184
178,96	300,00	4,310	95,574	-32,9939
179,96	300,00	4,309	95,547	-36,8383
180,96	300,00	4,307	95,499	-27,3056
181,96	300,00	4,305	95,465	-12,1431
182,96	300,00	4,304	95,427	26,9680
183,96	300,00	4,302	95,388	6,21357
184,96	300,00	4,300	95,351	-15,9262
185,96	300,00	4,299	95,317	-34,9753
186,96	300,00	4,297	95,281	-46,7115
187,96	300,00	4,296	95,252	-37,6754
188,96	300,00	4,294	95,207	12,6807
189,96	300,00	4,292	95,175	35,1939
190,96	300,00	4,291	95,136	53,1441
191,96	300,00	4,289	95,102	65,6953
192,96	300,00	4,288	95,072	62,5230
193,96	300,00	4,285	95,014	52,1845
194,96	300,00	4,284	94,996	43,2906
195,96	300,00	4,282	94,949	33,0938
196,96	300,00	4,281	94,924	31,9089
197,96	300,00	4,280	94,890	17,4505
198,96	300,00	4,278	94,854	3,10928
199,96	300,00	4,276	94,817	-12,8354
200,96	300,00	4,274	94,777	-46,7164
201,96	300,00	4,273	94,753	-54,4289
202,96	300,00	4,271	94,708	-67,9702
203,96	300,00	4,270	94,668	-68,6706
204,96	300,00	4,268	94,643	-66,8064
205,96	300,00	4,267	94,609	-62,9520
206,96	300,00	4,265	94,570	-57,8036
207,96	300,00	4,264	94,538	-54,7093
208,96	300,00	4,262	94,501	-48,3743
209,96	300,00	4,261	94,469	-26,0544
210,96	300,00	4,259	94,431	-9,76091
211,96	300,00	4,258	94,403	7,24258
212,96	300,00	4,256	94,368	25,8617
213,96	300,00	4,254	94,331	54,7696
214,96	300,00	4,253	94,297	51,8058
215,96	300,00	4,251	94,261	44,0187
216,96	300,00	4,250	94,228	27,0508
217,96	300,00	4,248	94,201	26,9701
218,96	300,00	4,247	94,167	39,8819
219,96	300,00	4,245	94,133	42,5938
220,96	300,00	4,244	94,103	62,1679
221,96	300,00	4,243	94,074	74,4805
222,96	300,00	4,241	94,036	70,5638
223,96	300,00	4,240	94,007	52,1556
224,96	300,00	4,238	93,974	27,8189
225,96	300,00	4,237	93,938	-9,07738
226,96	300,00	4,235	93,911	-21,6261
227,96	300,00	4,234	93,876	-30,5283
228,96	300,00	4,233	93,847	-20,7096
229,96	300,00	4,231	93,816	-21,0469
230,96	300,00	4,230	93,786	-3,61406
231,96	300,00	4,228	93,752	-4,81098
232,96	300,00	4,227	93,720	-8,97091
233,96	300,00	4,225	93,684	-22,3579
234,96	300,00	4,224	93,660	-21,5011
235,96	300,00	4,223	93,628	-15,2612
236,96	300,00	4,221	93,594	-4,91011
237,96	300,00	4,220	93,561	26,0545
238,96	300,00	4,218	93,532	59,3836
239,96	300,00	4,217	93,501	72,9289
240,96	300,00	4,215	93,468	63,7890
241,96	300,00	4,214	93,441	63,0015
242,96	300,00	4,213	93,411	26,8034
243,96	300,00	4,211	93,372	-40,1050
244,96	300,00	4,210	93,348	-58,6527
245,96	300,00	4,208	93,313	-56,1880
246,96	300,00	4,207	93,290	-61,8389
247,96	300,00	4,206	93,263	-59,5376
248,96	300,00	4,205	93,231	-56,2141
249,96	300,00	4,203	93,195	-54,1385
250,96	300,00	4,202	93,162	-47,4230
251,96	300,00	4,200	93,135	-52,1990
252,96	300,00	4,199	93,106	-57,7955
253,96	300,00	4,198	93,077	-68,6271
254,96	300,00	4,197	93,055	-73,6788
255,96	300,00	4,195	93,021	-75,1067
256,96	300,00	4,194	92,994	-40,3957
257,96	300,00	4,193	92,963	-5,91375
258,96	300,00	4,191	92,934	32,6087
259,96	300,00	4,190	92,906	40,6290
260,96	300,00	4,189	92,881	37,2627
261,96	300,00	4,187	92,844	20,9408
262,96	300,00	4,186	92,817	21,0441
263,96	300,00	4,185	92,790	20,2019
264,96	300,00	4,183	92,756	15,5002
265,96	300,00	4,182	92,736	14,0232
266,96	300,00	4,181	92,702	14,9534
267,96	300,00	4,179	92,665	12,0311
268,96	300,00	4,178	92,646	18,3142
269,96	300,00	4,177	92,618	31,3391
270,96	300,00	4,176	92,584	26,0569
271,96	300,00	4,175	92,567	9,60359
272,96	300,00	4,173	92,533	-14,8793
273,96	300,00	4,172	92,501	-15,6810
274,96	300,00	4,170	92,465	-0,840834
275,96	300,00	4,169	92,445	35,2814
276,96	300,00	4,168	92,408	55,2955
277,96	300,00	4,167	92,390	64,2342
278,96	300,00	4,166	92,367	64,5134
279,96	300,00	4,164	92,338	47,3493
280,96	300,00	4,163	92,310	28,7475
281,96	300,00	4,162	92,282	0,642728
282,96	300,00	4,161	92,251	-17,1903
283,96	300,00	4,159	92,225	-36,2702
284,96	300,00	4,158	92,198	-49,6604
285,96	300,00	4,157	92,177	-51,0359
286,96	300,00	4,155	92,139	-49,1025
287,96	300,00	4,154	92,117	-43,9063
288,96	300,00	4,153	92,089	-33,1310
289,96	300,00	4,153	92,074	-26,9973
290,96	300,00	4,151	92,042	-30,0446
291,96	300,00	4,150	92,026	-16,7686
292,96	300,00	4,148	91,982	0,573141
293,96	300,00	4,147	91,942	16,1086
294,96	300,00	4,146	91,935	15,0003
295,96	300,00	4,145	91,904	16,8745
296,96	300,00	4,144	91,885	10,2736
297,96	300,00	4,143	91,857	5,00226
298,96	300,00	4,142	91,832	1,44379
299,96	300,00	4,140	91,803	-3,17359
300,96	300,00	4,139	91,782	-7,57208
301,96	300,00	4,138	91,754	-2,43714
302,96	300,00	4,137	91,732	0,856489
303,96	300,00	4,136	91,708	6,42034
304,96	300,00	4,135	91,680	13,1242
305,96	300,00	4,134	91,655	17,6170
306,96	300,00	4,132	91,627	19,9563
307,96	300,00	4,131	91,598	16,3898
308,96	300,00	4,130	91,577	17,6862
309,96	300,00	4,129	91,553	24,6427
310,96	300,00	4,128	91,524	29,8655
311,96	300,00	4,127	91,505	25,1450
312,96	300,00	4,126	91,481	20,6645
313,96	300,00	4,124	91,444	20,0562
314,96	300,00	4,124	91,432	8,92123
315,96	300,00	4,122	91,403	-8,68632
316,96	300,00	4,121	91,384	-24,8261
317,96	300,00	4,120	91,361	-16,6152
318,96	300,00	4,119	91,337	-5,81273
319,96	300,00	4,118	91,309	-0,798539
320,96	300,00	4,117	91,286	7,73301
321,96	300,00	4,116	91,259	18,1306
322,96	300,00	4,115	91,237	14,4887
323,96	300,00	4,113	91,207	9,66321
324,96	300,00	4,113	91,197	-5,17031
325,96	300,00	4,112	91,166	-30,7502
326,96	300,00	4,110	91,141	-32,8633
327,96	300,00	4,109	91,116	-20,0325
328,96	300,00	4,108	91,095	-12,8258
329,96	300,00	4,107	91,067	4,55736
330,96	300,00	4,106	91,044	42,3369
331,96	300,00	4,105	91,020	45,7225
332,96	300,00	4,104	90,999	37,5798
333,96	300,00	4,103	90,971	20,9936
334,96	300,00	4,102	90,948	21,0861
335,96	300,00	4,101	90,923	20,5365
336,96	300,00	4,100	90,903	13,6921
337,96	300,00	4,099	90,878	-3,03451
338,96	300,00	4,098	90,854	-18,6179
339,96	300,00	4,096	90,827	-30,3841
340,96	300,00	4,096	90,814	-28,5404
341,96	300,00	4,094	90,771	-41,6977
342,96	300,00	4,094	90,770	-47,8704
343,96	300,00	4,092	90,738	-52,7705
344,96	300,00	4,091	90,717	-19,7890
345,96	300,00	4,090	90,690	-6,84632
346,96	300,00	4,089	90,668	1,66613
347,96	300,00	4,088	90,642	17,7887
348,96	300,00	4,087	90,621	1,34351
349,96	300,00	4,086	90,598	3,63211
350,96	300,00	4,085	90,577	4,35021
351,96	300,00	4,084	90,555	-3,22454
352,96	300,00	4,083	90,528	8,00195
353,96	300,00	4,082	90,509	13,3483
354,96	300,00	4,081	90,487	11,0714
355,96	300,00	4,080	90,461	-1,84169
356,96	300,00	4,079	90,439	-21,6361
357,96	300,00	4,078	90,424	-21,2174
358,96	300,00	4,077	90,393	-35,8765
359,96	300,00	4,076	90,367	-43,0602
360,96	300,00	4,075	90,356	-35,1834
361,96	300,00	4,074	90,327	-19,9516
362,96	300,00	4,072	90,299	-9,32868
363,96	300,00	4,072	90,283	4,84214
364,96	300,00	4,071	90,263	-0,570478
365,96	300,00	4,070	90,234	-20,0007
366,96	300,00	4,069	90,219	-21,0859
367,96	300,00	4,068	90,209	-10,6903
368,96	300,00	4,067	90,183	9,56434
369,96	300,00	4,066	90,160	31,2104
370,96	300,00	4,065	90,131	17,9818
371,96	300,00	4,064	90,109	32,1369
372,96	300,00	4,063	90,092	30,2332
373,96	300,00	4,062	90,059	30,0200
374,96	300,00	4,061	90,049	28,5602
375,96	300,00	4,060	90,028	9,44692
376,96	300,00	4,059	90,005	-7,60406
377,96	300,00	4,058	89,983	-4,13836
378,96	300,00	4,057	89,963	-15,0927
379,96	300,00	4,056	89,937	-22,8471
380,96	300,00	4,055	89,920	-16,8164
381,96	300,00	4,054	89,893	-16,8012
382,96	300,00	4,054	89,883	-20,6574
383,96	300,00	4,053	89,867	-25,2776
384,96	300,00	4,052	89,836	-17,3203
385,96	300,00	4,050	89,810	-16,4685
386,96	300,00	4,050	89,793	-15,5963
387,96	300,00	4,049	89,772	-14,1460
388,96	300,00	4,047	89,739	-13,7685
389,96	300,00	4,046	89,716	-12,2342
390,96	300,00	4,046	89,704	-11,1748
391,96	300,00	4,045	89,690	-8,92866
392,96	300,00	4,044	89,659	-6,12238
393,96	300,00	4,043	89,645	5,01783
394,96	300,00	4,042	89,632	16,6142
395,96	300,00	4,041	89,609	11,5012
396,96	300,00	4,041	89,592	14,2538
397,96	300,00	4,039	89,566	16,6734
398,96	300,00	4,038	89,544	20,0099
399,96	300,00	4,038	89,525	13,9479
400,96	300,00	4,037	89,506	16,8791
401,96	300,00	4,036	89,485	21,9007
402,96	300,00	4,035	89,463	15,2015
403,96	300,00	4,034	89,442	23,3228
404,96	300,00	4,033	89,422	31,1629
405,96	300,00	4,032	89,397	29,9253
406,96	300,00	4,031	89,375	26,3342
407,96	300,00	4,031	89,368	10,5877
408,96	300,00	4,029	89,344	-19,6729
409,96	300,00	4,028	89,322	-29,1051
410,96	300,00	4,027	89,299	-30,9015
411,96	300,00	4,027	89,287	-32,0777
412,96	300,00	4,026	89,260	-26,0979
413,96	300,00	4,025	89,236	-19,9828
414,96	300,00	4,024	89,219	-14,9919
415,96	300,00	4,023	89,208	-10,1394
416,96	300,00	4,022	89,190	-5,99889
417,96	300,00	4,021	89,167	1,52329
418,96	300,00	4,020	89,139	3,32174
419,96	300,00	4,019	89,123	5,83963
420,96	300,00	4,019	89,108	12,9904
421,96	300,00	4,018	89,084	19,0212
422,96	300,00	4,017	89,061	27,3564
423,96	300,00	4,016	89,046	37,3058
424,96	300,00	4,015	89,027	41,7447
425,96	300,00	4,014	89,008	40,1557
426,96	300,00	4,013	88,988	39,9447
427,96	300,00	4,012	88,968	33,7360
428,96	300,00	4,012	88,948	-7,32955
429,96	300,00	4,011	88,925	-15,0057
430,96	300,00	4,010	88,907	-31,4489
431,96	300,00	4,009	88,889	-38,2289
432,96	300,00	4,008	88,871	-44,8842
433,96	300,00	4,007	88,847	-44,6586
434,96	300,00	4,006	88,835	-44,6762
435,96	300,00	4,005	88,811	-32,9528
436,96	300,00	4,005	88,796	-15,3531
437,96	300,00	4,004	88,775	-7,31073
438,96	300,00	4,003	88,750	-4,42805
439,96	300,00	4,002	88,732	-9,10902
440,96	300,00	4,001	88,711	-6,30042
441,96	300,00	4,001	88,710	-1,26659
442,96	300,00	4,000	88,682	-3,44402
443,96	300,00	3,999	88,662	12,9622
444,96	300,00	3,998	88,648	19,2312
445,96	300,00	3,997	88,631	1,71733
446,96	300,00	3,996	88,596	4,96323
447,96	300,00	3,995	88,585	11,7503
448,96	300,00	3,994	88,567	2,95363
449,96	300,00	3,993	88,547	-5,84165
450,96	300,00	3,993	88,526	-0,224786
451,96	300,00	3,992	88,509	7,46166e-3
452,96	300,00	3,991	88,490	4,92054
453,96	300,00	3,990	88,468	15,5154
454,96	300,00	3,989	88,447	22,8531
455,96	300,00	3,988	88,432	30,3203
456,96	300,00	3,988	88,425	39,0455
457,96	300,00	3,987	88,396	44,3509
458,96	300,00	3,986	88,375	37,3068
459,96	300,00	3,985	88,364	30,6059
460,96	300,00	3,984	88,336	24,4006
461,96	300,00	3,983	88,315	-1,36121
462,96	300,00	3,982	88,294	-20,6142
463,96	300,00	3,981	88,272	-30,7301
464,96	300,00	3,981	88,267	-30,5742
465,96	300,00	3,980	88,248	-43,5535
466,96	300,00	3,979	88,220	-38,3097
467,96	300,00	3,978	88,206	-36,7550
468,96	300,00	3,977	88,186	-39,0947
469,96	300,00	3,976	88,166	-39,1788
470,96	300,00	3,976	88,153	-25,6717
471,96	300,00	3,974	88,123	-14,0525
472,96	300,00	3,974	88,110	-9,71457
473,96	300,00	3,973	88,092	3,10966
474,96	300,00	3,972	88,075	17,1212
475,96	300,00	3,971	88,054	25,6793
476,96	300,00	3,970	88,033	37,4816
477,96	300,00	3,970	88,020	41,0363
478,96	300,00	3,969	88,004	35,6791
479,96	300,00	3,968	87,987	37,1717
480,96	300,00	3,967	87,968	34,8330
481,96	300,00	3,966	87,945	28,6856
482,96	300,00	3,965	87,924	17,8959
483,96	300,00	3,965	87,909	3,74388
484,96	300,00	3,964	87,893	-11,1064
485,96	300,00	3,963	87,864	-23,2653
486,96	300,00	3,962	87,854	-28,4460
487,96	300,00	3,961	87,837	-28,6883
488,96	300,00	3,960	87,811	-31,0048
489,96	300,00	3,959	87,789	-30,7574
490,96	300,00	3,959	87,777	-36,9230
491,96	300,00	3,958	87,758	-15,4729
492,96	300,00	3,957	87,740	-7,37326
493,96	300,00	3,956	87,725	2,27765
494,96	300,00	3,956	87,715	17,4686
495,96	300,00	3,955	87,691	29,1271
496,96	300,00	3,954	87,672	42,2533
497,96	300,00	3,953	87,651	48,7937
498,96	300,00	3,952	87,633	50,2978
499,96	300,00	3,952	87,617	46,9217
500,96	300,00	3,950	87,589	44,8102
501,96	300,00	3,950	87,578	35,2847
502,96	300,00	3,949	87,556	25,3988
503,96	300,00	3,949	87,555	1,85532
504,96	300,00	3,948	87,532	-18,5713
505,96	300,00	3,946	87,501	-36,7749
506,96	300,00	3,946	87,488	-41,2813
507,96	300,00	3,945	87,468	-45,5063
508,96	300,00	3,944	87,447	-43,9187
509,96	300,00	3,943	87,435	-48,6880
510,96	300,00	3,942	87,407	-50,3947
511,96	300,00	3,941	87,392	-47,6441
512,96	300,00	3,941	87,382	-33,0275
513,96	300,00	3,940	87,365	-26,7350
514,96	300,00	3,939	87,341	-15,6700
515,96	300,00	3,939	87,331	0,994118
516,96	300,00	3,937	87,306	16,4294
517,96	300,00	3,937	87,292	35,4522
518,96	300,00	3,936	87,274	36,1198
519,96	300,00	3,935	87,257	19,0516
520,96	300,00	3,934	87,239	-11,4702
521,96	300,00	3,934	87,220	-21,1325
522,96	300,00	3,933	87,202	-25,8533
523,96	300,00	3,932	87,185	-18,0155
524,96	300,00	3,931	87,169	-12,8038
525,96	300,00	3,931	87,151	-7,11989
526,96	300,00	3,930	87,136	-4,48480
527,96	300,00	3,929	87,117	2,86326
528,96	300,00	3,929	87,108	11,1075
529,96	300,00	3,927	87,083	20,2861
530,96	300,00	3,927	87,065	17,5159
531,96	300,00	3,926	87,049	16,0334
532,96	300,00	3,925	87,027	17,5255
533,96	300,00	3,924	87,016	18,2660
534,96	300,00	3,924	86,999	19,5292
535,96	300,00	3,923	86,977	17,8812
536,96	300,00	3,922	86,961	9,92476
537,96	300,00	3,921	86,947	1,44097
538,96	300,00	3,921	86,937	-5,32421
539,96	300,00	3,920	86,911	-1,42355
540,96	300,00	3,919	86,901	2,59541
541,96	300,00	3,918	86,881	1,57732
542,96	300,00	3,918	86,868	-5,63827
543,96	300,00	3,917	86,845	-4,07701
544,96	300,00	3,916	86,835	2,00788
545,96	300,00	3,916	86,819	5,88399
546,96	300,00	3,915	86,803	4,87161
547,96	300,00	3,914	86,784	-5,57515
548,96	300,00	3,913	86,767	-22,3458
549,96	300,00	3,912	86,750	-27,9668
550,96	300,00	3,912	86,730	-28,3546
551,96	300,00	3,911	86,723	-26,2617
552,96	300,00	3,910	86,695	-27,9116
553,96	300,00	3,910	86,687	-33,0123
554,96	300,00	3,909	86,665	-20,0553
555,96	300,00	3,908	86,658	4,49977
556,96	300,00	3,907	86,638	26,3220
557,96	300,00	3,907	86,622	41,3574
558,96	300,00	3,906	86,603	51,8999
559,96	300,00	3,905	86,587	53,7220
560,96	300,00	3,904	86,564	51,4707
561,96	300,00	3,904	86,555	47,9658
562,96	300,00	3,903	86,543	41,7984
563,96	300,00	3,902	86,524	36,2007
564,96	300,00	3,902	86,508	11,0707
565,96	300,00	3,901	86,498	-10,9558
566,96	300,00	3,900	86,478	-38,2068
567,96	300,00	3,899	86,462	-38,8009
568,96	300,00	3,899	86,454	-31,6100
569,96	300,00	3,898	86,428	-28,6316
570,96	300,00	3,897	86,416	-29,8220
571,96	300,00	3,897	86,401	-33,5313
572,96	300,00	3,896	86,379	-29,0275
573,96	300,00	3,895	86,368	-18,7258
574,96	300,00	3,894	86,349	-24,4978
575,96	300,00	3,894	86,341	-25,3949
576,96	300,00	3,893	86,315	-20,8456
577,96	300,00	3,892	86,288	-16,4692
578,96	300,00	3,892	86,292	-9,49131
579,96	300,00	3,891	86,278	5,74772
580,96	300,00	3,891	86,265	19,2427
581,96	300,00	3,890	86,254	22,1113
582,96	300,00	3,889	86,228	22,8121
583,96	300,00	3,888	86,208	24,2586
584,96	300,00	3,888	86,198	27,2857
585,96	300,00	3,887	86,195	30,6635
586,96	300,00	3,886	86,169	27,8818
587,96	300,00	3,886	86,160	25,3479
588,96	300,00	3,885	86,143	24,4027
589,96	300,00	3,884	86,128	26,5548
590,96	300,00	3,883	86,109	18,6681
591,96	300,00	3,883	86,100	-1,89162
592,96	300,00	3,882	86,080	-14,8310
593,96	300,00	3,881	86,064	-20,9233
594,96	300,00	3,881	86,044	-24,9142
595,96	300,00	3,880	86,031	-28,7962
596,96	300,00	3,880	86,024	-27,9713
597,96	300,00	3,879	86,006	-25,5869
598,96	300,00	3,878	85,990	-25,6620
599,96	300,00	3,878	85,976	-26,6729
600,96	300,00	3,877	85,959	-26,2797
601,96	300,00	3,876	85,933	-22,6746
602,96	300,00	3,875	85,913	-14,8412
603,96	300,00	3,875	85,913	-11,7311
604,96	300,00	3,874	85,898	-9,85478
605,96	300,00	3,873	85,882	-2,93414
606,96	300,00	3,872	85,860	8,14567
607,96	300,00	3,872	85,855	5,37279
608,96	300,00	3,872	85,843	-5,33195
609,96	300,00	3,870	85,819	-6,48834
610,96	300,00	3,870	85,815	-5,87233
611,96	300,00	3,869	85,793	10,5760
612,96	300,00	3,868	85,771	17,6975
613,96	300,00	3,868	85,760	25,4174
614,96	300,00	3,867	85,743	31,7538
615,96	300,00	3,867	85,739	31,9252
616,96	300,00	3,866	85,713	27,8424
617,96	300,00	3,865	85,699	25,1527
618,96	300,00	3,865	85,691	31,7388
619,96	300,00	3,864	85,674	43,7415
620,96	300,00	3,863	85,658	47,8232
621,96	300,00	3,862	85,640	49,4913
622,96	300,00	3,862	85,630	45,0758
623,96	300,00	3,861	85,614	18,2327
624,96	300,00	3,860	85,598	0,961174
625,96	300,00	3,859	85,575	-12,0784
626,96	300,00	3,859	85,558	-20,4016
627,96	300,00	3,858	85,554	-23,1132
628,96	300,00	3,858	85,537	-11,5687
629,96	300,00	3,857	85,526	-6,64058
630,96	300,00	3,857	85,515	-0,542361
631,96	300,00	3,856	85,495	9,28488
632,96	300,00	3,855	85,476	16,2346
633,96	300,00	3,855	85,469	13,5689
634,96	300,00	3,854	85,450	15,0692
635,96	300,00	3,853	85,427	5,36478
636,96	300,00	3,852	85,421	-1,94433
637,96	300,00	3,852	85,404	-6,83733
638,96	300,00	3,851	85,391	-5,15461
639,96	300,00	3,851	85,389	-2,32092
640,96	300,00	3,850	85,359	-3,00974
641,96	300,00	3,849	85,341	-0,958340
642,96	300,00	3,849	85,334	-6,50285
643,96	300,00	3,848	85,322	-8,03072
644,96	300,00	3,847	85,303	-3,07176
645,96	300,00	3,847	85,288	1,17880
646,96	300,00	3,846	85,274	7,37740
647,96	300,00	3,845	85,258	13,3246
648,96	300,00	3,844	85,241	20,0940
649,96	300,00	3,844	85,229	23,1787
650,96	300,00	3,843	85,214	14,1059
651,96	300,00	3,843	85,203	4,84283
652,96	300,00	3,842	85,187	-7,23816
653,96	300,00	3,841	85,169	-18,5540
654,96	300,00	3,841	85,158	-22,5290
655,96	300,00	3,840	85,137	-13,6937
656,96	300,00	3,839	85,118	-7,56271
657,96	300,00	3,839	85,113	-2,70711
658,96	300,00	3,838	85,108	1,62648
659,96	300,00	3,837	85,080	4,09450
660,96	300,00	3,837	85,069	2,02797
661,96	300,00	3,836	85,050	5,63772
662,96	300,00	3,835	85,034	-0,351003
663,96	300,00	3,835	85,025	0,480191
664,96	300,00	3,834	85,014	3,24339
665,96	300,00	3,833	84,995	2,27208
666,96	300,00	3,832	84,978	1,15067
667,96	300,00	3,832	84,958	-2,28897
668,96	300,00	3,831	84,948	-12,3928
669,96	300,00	3,830	84,928	-29,3158
670,96	300,00	3,830	84,917	-33,5592
671,96	300,00	3,829	84,900	-32,5971
672,96	300,00	3,828	84,888	-30,1109
673,96	300,00	3,828	84,871	-17,2986
674,96	300,00	3,827	84,859	0,233384
675,96	300,00	3,827	84,852	12,7364
676,96	300,00	3,826	84,830	18,4731
677,96	300,00	3,825	84,815	18,5334
678,96	300,00	3,825	84,805	16,2949
679,96	300,00	3,824	84,792	8,16028
680,96	300,00	3,823	84,767	6,69778
681,96	300,00	3,823	84,760	5,73462
682,96	300,00	3,822	84,745	3,35420
683,96	300,00	3,821	84,727	2,90081
684,96	300,00	3,820	84,707	6,75619
685,96	300,00	3,820	84,697	5,35659
686,96	300,00	3,819	84,683	-2,10945
687,96	300,00	3,819	84,668	-12,8350
688,96	300,00	3,818	84,662	-27,2475
689,96	300,00	3,817	84,636	-30,9721
690,96	300,00	3,817	84,632	-31,0114
691,96	300,00	3,816	84,609	-24,1225
692,96	300,00	3,815	84,597	-12,8605
693,96	300,00	3,815	84,582	31,4422
694,96	300,00	3,814	84,566	42,2479
695,96	300,00	3,814	84,558	45,4350
696,96	300,00	3,813	84,542	42,5937
697,96	300,00	3,812	84,524	40,3243
698,96	300,00	3,812	84,516	38,3091
699,96	300,00	3,811	84,497	25,8636
700,96	300,00	3,810	84,478	14,0532
701,96	300,00	3,809	84,468	7,95112
702,96	300,00	3,809	84,452	-6,73114
703,96	300,00	3,808	84,436	-15,9652
704,96	300,00	3,808	84,429	-21,0958
705,96	300,00	3,807	84,405	-15,5188
706,96	300,00	3,806	84,380	-21,5347
707,96	300,00	3,805	84,376	-30,3707
708,96	300,00	3,805	84,367	-37,6318
709,96	300,00	3,804	84,351	-45,3565
710,96	300,00	3,804	84,337	-45,2399
711,96	300,00	3,803	84,325	-44,4892
712,96	300,00	3,802	84,306	-43,6935
713,96	300,00	3,802	84,291	-43,3702
714,96	300,00	3,801	84,278	-47,6902
715,96	300,00	3,800	84,259	-8,65265
716,96	300,00	3,800	84,249	5,98271
717,96	300,00	3,799	84,234	17,4712
718,96	300,00	3,798	84,219	21,3656
719,96	300,00	3,798	84,204	15,2486
720,96	300,00	3,797	84,187	20,4339
721,96	300,00	3,796	84,175	25,4751
722,96	300,00	3,796	84,161	28,6108
723,96	300,00	3,795	84,138	27,9946
724,96	300,00	3,795	84,137	32,4126
725,96	300,00	3,794	84,119	28,9930
726,96	300,00	3,793	84,107	24,1144
727,96	300,00	3,792	84,084	8,29000
728,96	300,00	3,793	84,092	-7,07625
729,96	300,00	3,792	84,073	-18,1813
730,96	300,00	3,791	84,048	-21,0728
731,96	300,00	3,790	84,041	-25,2188
732,96	300,00	3,790	84,028	-20,7428
733,96	300,00	3,790	84,028	-17,0320
734,96	300,00	3,789	84,007	-2,23803
735,96	300,00	3,788	83,983	1,35319
736,96	300,00	3,787	83,971	-4,19959
737,96	300,00	3,787	83,963	-4,65988
738,96	300,00	3,786	83,946	-3,99602
739,96	300,00	3,785	83,929	1,64221
740,96	300,00	3,785	83,915	10,8611
741,96	300,00	3,784	83,905	23,4775
742,96	300,00	3,783	83,887	28,7956
743,96	300,00	3,783	83,877	30,4944
744,96	300,00	3,782	83,860	18,0324
745,96	300,00	3,781	83,846	-5,53429
746,96	300,00	3,781	83,840	-15,3496
747,96	300,00	3,780	83,815	-12,9171
748,96	300,00	3,780	83,804	-9,36360
749,96	300,00	3,779	83,789	-7,41709
750,96	300,00	3,778	83,780	-0,993580
751,96	300,00	3,778	83,761	2,51235
752,96	300,00	3,777	83,743	0,286364
753,96	300,00	3,777	83,739	-2,99268
754,96	300,00	3,776	83,717	-10,1875
755,96	300,00	3,775	83,702	-13,8317
756,96	300,00	3,774	83,679	-13,3975
757,96	300,00	3,774	83,676	-8,86228
758,96	300,00	3,773	83,655	1,23187
759,96	300,00	3,773	83,651	12,4873
760,96	300,00	3,772	83,636	20,4271
761,96	300,00	3,771	83,613	20,1012
762,96	300,00	3,771	83,612	12,8971
763,96	300,00	3,770	83,597	3,03152
764,96	300,00	3,770	83,582	-3,17416
765,96	300,00	3,769	83,569	2,33846
766,96	300,00	3,768	83,556	10,2743
767,96	300,00	3,768	83,541	21,0227
768,96	300,00	3,767	83,530	23,3835
769,96	300,00	3,767	83,521	25,5272
770,96	300,00	3,766	83,502	25,9584
771,96	300,00	3,766	83,493	13,9753
772,96	300,00	3,765	83,476	10,8770
773,96	300,00	3,764	83,459	6,30997
774,96	300,00	3,764	83,450	-2,89217
775,96	300,00	3,763	83,432	-3,98096
776,96	300,00	3,762	83,414	-11,8455
777,96	300,00	3,761	83,394	-18,3621
778,96	300,00	3,761	83,387	-18,9497
779,96	300,00	3,761	83,382	-21,5614
780,96	300,00	3,760	83,371	-28,4498
781,96	300,00	3,759	83,358	-31,6899
782,96	300,00	3,759	83,344	-35,1617
783,96	300,00	3,758	83,327	-34,7565
784,96	300,00	3,758	83,315	-34,0314
785,96	300,00	3,757	83,305	-24,6997
786,96	300,00	3,756	83,279	-13,4257
787,96	300,00	3,756	83,276	-2,20261
788,96	300,00	3,755	83,260	1,59903
789,96	300,00	3,754	83,248	13,5921
790,96	300,00	3,754	83,234	26,0237
791,96	300,00	3,753	83,222	30,5639
792,96	300,00	3,753	83,209	33,3661
793,96	300,00	3,752	83,193	34,6420
794,96	300,00	3,751	83,181	33,9358
795,96	300,00	3,751	83,181	32,1410
796,96	300,00	3,750	83,151	24,7012
797,96	300,00	3,749	83,131	15,4447
798,96	300,00	3,749	83,125	2,20498
799,96	300,00	3,748	83,112	-5,69384
800,96	300,00	3,748	83,103	-12,6482
801,96	300,00	3,747	83,084	-15,5416
802,96	300,00	3,746	83,068	-3,08810
803,96	300,00	3,746	83,062	4,78219
804,96	300,00	3,745	83,039	5,58612
805,96	300,00	3,745	83,037	-0,0499787
806,96	300,00	3,744	83,015	-1,62979
807,96	300,00	3,743	83,004	-6,23586
808,96	300,00	3,743	82,993	-6,16616
809,96	300,00	3,742	82,979	-3,53191
810,96	300,00	3,742	82,966	-3,67864
811,96	300,00	3,741	82,948	-7,30339
812,96	300,00	3,741	82,938	-12,2637
813,96	300,00	3,740	82,925	-16,1585
814,96	300,00	3,739	82,912	-18,8224
815,96	300,00	3,739	82,902	-22,5293
816,96	300,00	3,738	82,887	-21,7866
817,96	300,00	3,737	82,870	-22,7534
818,96	300,00	3,737	82,853	-21,2546
819,96	300,00	3,736	82,838	-16,7841
820,96	300,00	3,736	82,835	0,143821
821,96	300,00	3,736	82,827	23,6900
822,96	300,00	3,734	82,801	29,3521
823,96	300,00	3,734	82,793	31,4147
824,96	300,00	3,733	82,781	32,8545
825,96	300,00	3,732	82,756	33,9702
826,96	300,00	3,732	82,755	33,0489
827,96	300,00	3,731	82,738	26,4180
828,96	300,00	3,731	82,729	15,5520
829,96	300,00	3,730	82,704	3,59072
830,96	300,00	3,730	82,698	4,58863
831,96	300,00	3,729	82,680	8,73333
832,96	300,00	3,728	82,669	6,59581
833,96	300,00	3,728	82,655	3,24482
834,96	300,00	3,727	82,639	-4,33261
835,96	300,00	3,726	82,627	-16,9060
836,96	300,00	3,726	82,626	-20,1910
837,96	300,00	3,725	82,605	-21,8055
838,96	300,00	3,725	82,591	-23,5017
839,96	300,00	3,724	82,582	-14,5562
840,96	300,00	3,724	82,563	-2,08290
841,96	300,00	3,723	82,553	17,4215
842,96	300,00	3,722	82,538	30,2883
843,96	300,00	3,722	82,526	20,9630
844,96	300,00	3,721	82,513	21,0472
845,96	300,00	3,721	82,495	4,94914
846,96	300,00	3,720	82,485	-10,1648
847,96	300,00	3,720	82,474	-14,4700
848,96	300,00	3,719	82,461	-13,7642
849,96	300,00	3,719	82,460	-9,31156
850,96	300,00	3,718	82,439	-7,08569
851,96	300,00	3,717	82,423	-3,03532
852,96	300,00	3,716	82,399	-8,89681
853,96	300,00	3,716	82,394	-5,04145
854,96	300,00	3,716	82,398	-5,43077
855,96	300,00	3,715	82,369	-5,92287
856,96	300,00	3,714	82,356	-3,25583
857,96	300,00	3,714	82,344	2,37019
858,96	300,00	3,713	82,338	18,4983
859,96	300,00	3,712	82,317	22,8367
860,96	300,00	3,712	82,310	17,1520
861,96	300,00	3,711	82,289	26,1528
862,96	300,00	3,711	82,274	16,9568
863,96	300,00	3,710	82,263	-12,6459
864,96	300,00	3,709	82,248	-37,9304
865,96	300,00	3,709	82,235	-45,9449
866,96	300,00	3,708	82,224	-34,6393
867,96	300,00	3,707	82,205	-22,3188
868,96	300,00	3,707	82,203	-19,0886
869,96	300,00	3,707	82,186	-18,3898
870,96	300,00	3,706	82,182	-21,0761
871,96	300,00	3,705	82,162	-19,9023
872,96	300,00	3,705	82,146	-28,8849
873,96	300,00	3,704	82,133	-31,3557
874,96	300,00	3,704	82,120	-20,3060
875,96	300,00	3,703	82,111	-12,3850
876,96	300,00	3,702	82,086	-13,5228
877,96	300,00	3,702	82,077	4,71525
878,96	300,00	3,702	82,075	17,1346
879,96	300,00	3,701	82,057	23,1542
880,96	300,00	3,700	82,043	23,3541
881,96	300,00	3,699	82,026	22,9355
882,96	300,00	3,699	82,014	24,0238
883,96	300,00	3,698	82,004	29,1822
884,96	300,00	3,697	81,980	26,3080
885,96	300,00	3,697	81,977	23,3796
886,96	300,00	3,697	81,965	19,2520
887,96	300,00	3,696	81,950	7,54108
888,96	300,00	3,695	81,936	-0,220093
889,96	300,00	3,695	81,928	-12,5820
890,96	300,00	3,694	81,915	-12,8619
891,96	300,00	3,694	81,899	-11,6831
892,96	300,00	3,693	81,881	-12,0255
893,96	300,00	3,692	81,871	-11,3685
894,96	300,00	3,692	81,863	-3,95984
895,96	300,00	3,692	81,854	5,49976
896,96	300,00	3,691	81,833	10,0029
897,96	300,00	3,690	81,825	16,9659
898,96	300,00	3,690	81,809	26,5178
899,96	300,00	3,689	81,804	36,2136
900,96	300,00	3,689	81,799	36,8220
901,96	300,00	3,688	81,770	27,3059
902,96	300,00	3,687	81,758	11,5089
903,96	300,00	3,687	81,747	2,94702
904,96	300,00	3,686	81,732	-10,7509
905,96	300,00	3,686	81,731	-23,6075
906,96	300,00	3,685	81,714	-24,3413
907,96	300,00	3,685	81,704	-11,1929
908,96	300,00	3,684	81,687	-18,3273
909,96	300,00	3,684	81,677	-22,3747
910,96	300,00	3,683	81,664	-25,2931
911,96	300,00	3,682	81,651	-29,8773
912,96	300,00	3,682	81,638	-30,1147
913,96	300,00	3,681	81,624	-28,9567
914,96	300,00	3,681	81,615	-13,8423
915,96	300,00	3,680	81,599	-5,73798
916,96	300,00	3,680	81,589	-4,66145
917,96	300,00	3,679	81,581	-10,5873
918,96	300,00	3,679	81,566	-13,5043
919,96	300,00	3,678	81,542	-15,9747
920,96	300,00	3,677	81,533	-10,6671
921,96	300,00	3,677	81,522	-7,33602
922,96	300,00	3,676	81,509	-6,63920
923,96	300,00	3,676	81,500	-5,45497
924,96	300,00	3,675	81,476	2,26466
925,96	300,00	3,675	81,475	7,13855
926,96	300,00	3,673	81,449	7,14534
927,96	300,00	3,673	81,451	8,06996
928,96	300,00	3,673	81,432	9,73917
929,96	300,00	3,672	81,422	12,0407
930,96	300,00	3,672	81,409	14,8020
931,96	300,00	3,671	81,393	17,6368
932,96	300,00	3,670	81,379	17,6621
933,96	300,00	3,670	81,373	10,4370
934,96	300,00	3,669	81,362	-5,95485
935,96	300,00	3,669	81,349	-8,70539
936,96	300,00	3,668	81,336	-4,37663
937,96	300,00	3,668	81,324	3,49965
938,96	300,00	3,667	81,310	9,35371
939,96	300,00	3,667	81,298	5,91210
940,96	300,00	3,666	81,284	1,42503
941,96	300,00	3,666	81,281	-6,52610
942,96	300,00	3,665	81,272	-4,72926
943,96	300,00	3,664	81,248	-3,27761
944,96	300,00	3,664	81,241	-3,28711
945,96	300,00	3,663	81,225	3,55932
946,96	300,00	3,662	81,208	15,7250
947,96	300,00	3,663	81,212	20,1658
948,96	300,00	3,662	81,187	17,2996
949,96	300,00	3,661	81,170	19,6383
950,96	300,00	3,660	81,163	9,85545
951,96	300,00	3,660	81,153	-14,5092
952,96	300,00	3,659	81,134	-22,7684
953,96	300,00	3,659	81,130	-23,3359
954,96	300,00	3,659	81,122	-17,7552
955,96	300,00	3,658	81,104	-13,1344
956,96	300,00	3,657	81,095	-2,81251
957,96	300,00	3,656	81,072	2,71510
958,96	300,00	3,656	81,069	4,12615
959,96	300,00	3,656	81,055	10,7815
960,96	300,00	3,655	81,043	12,6166
961,96	300,00	3,655	81,033	11,0478
962,96	300,00	3,654	81,020	12,1225
963,96	300,00	3,653	81,009	11,8030
964,96	300,00	3,653	80,994	15,4426
965,96	300,00	3,653	80,989	17,2850
966,96	300,00	3,652	80,967	18,7368
967,96	300,00	3,651	80,963	17,4001
968,96	300,00	3,651	80,948	15,4987
969,96	300,00	3,650	80,937	6,81939
970,96	300,00	3,650	80,933	0,694689
971,96	300,00	3,649	80,914	-6,23556
972,96	300,00	3,649	80,910	-18,1764
973,96	300,00	3,648	80,897	-19,2484
974,96	300,00	3,648	80,885	-22,4196
975,96	300,00	3,647	80,871	-23,9086
976,96	300,00	3,646	80,851	-19,2752
977,96	300,00	3,647	80,857	-13,1985
978,96	300,00	3,645	80,824	-6,10931
979,96	300,00	3,645	80,823	-7,33843
980,96	300,00	3,644	80,806	-20,9948
981,96	300,00	3,644	80,790	-22,5870
982,96	300,00	3,643	80,774	-34,1418
983,96	300,00	3,643	80,768	-30,8348
984,96	300,00	3,642	80,755	-25,4007
985,96	300,00	3,641	80,742	-6,62429
986,96	300,00	3,641	80,730	12,7735
987,96	300,00	3,640	80,719	26,6642
988,96	300,00	3,640	80,701	28,0010
989,96	300,00	3,639	80,690	19,7779
990,96	300,00	3,639	80,685	7,63809
991,96	300,00	3,638	80,670	-5,54574
992,96	300,00	3,638	80,659	-11,6063
993,96	300,00	3,637	80,638	-14,0620
994,96	300,00	3,636	80,630	-12,1661
995,96	300,00	3,636	80,617	-6,49962
996,96	300,00	3,636	80,612	1,22898
997,96	300,00	3,635	80,593	3,65017
998,96	300,00	3,634	80,583	5,44306
999,96	300,00	3,634	80,568	4,59433
1000,96	300,00	3,633	80,554	1,98586
1001,96	300,00	3,632	80,540	-0,778478
1002,96	300,00	3,632	80,534	-3,01747
1003,96	300,00	3,631	80,520	-0,924741
1004,96	300,00	3,631	80,508	2,31711
1005,96	300,00	3,631	80,500	1,23900
1006,96	300,00	3,630	80,486	-0,522087
1007,96	300,00	3,629	80,471	-3,60789
1008,96	300,00	3,629	80,457	-7,89289
1009,96	300,00	3,628	80,448	-15,3418
1010,96	300,00	3,628	80,434	-20,2516
1011,96	300,00	3,627	80,424	-20,0824
1012,96	300,00	3,626	80,409	-17,2821
1013,96	300,00	3,626	80,398	-14,3709
1014,96	300,00	3,625	80,386	-5,42957
1015,96	300,00	3,625	80,377	14,9475
1016,96	300,00	3,625	80,367	30,5456
1017,96	300,00	3,624	80,352	31,5240
1018,96	300,00	3,623	80,343	30,8100
1019,96	300,00	3,623	80,335	30,1148
1020,96	300,00	3,622	80,315	32,7940
1021,96	300,00	3,622	80,306	30,4362
1022,96	300,00	3,621	80,297	23,1685
1023,96	300,00	3,621	80,292	15,1749
1024,96	300,00	3,620	80,272	17,8695
1025,96	300,00	3,619	80,243	20,5049
1026,96	300,00	3,619	80,251	7,34526
1027,96	300,00	3,618	80,230	-1,21531
1028,96	300,00	3,618	80,221	-3,96618
1029,96	300,00	3,616	80,174	-7,19158
1030,96	300,00	3,617	80,200	-21,7602
1031,96	300,00	3,616	80,186	-22,5435
1032,96	300,00	3,616	80,176	-5,53501
1033,96	300,00	3,615	80,166	11,4870
1034,96	300,00	3,615	80,152	20,3643
1035,96	300,00	3,614	80,138	20,5872
1036,96	300,00	3,614	80,129	22,5827
1037,96	300,00	3,613	80,121	23,7465
1038,96	300,00	3,612	80,099	19,0058
1039,96	300,00	3,612	80,094	14,7139
1040,96	300,00	3,612	80,088	12,5304
1041,96	300,00	3,611	80,070	11,9343
1042,96	300,00	3,611	80,063	12,9638
1043,96	300,00	3,610	80,049	12,8977
1044,96	300,00	3,609	80,031	11,1609
1045,96	300,00	3,609	80,027	8,76084
1046,96	300,00	3,609	80,019	3,00665
1047,96	300,00	3,608	80,000	-3,85236
1048,96	300,00	3,608	79,996	-14,1039
1049,96	300,00	3,607	79,979	-19,1476
1050,96	300,00	3,606	79,965	-20,7312
1051,96	300,00	3,605	79,940	-20,9279
1052,96	300,00	3,605	79,941	-21,8867
1053,96	300,00	3,605	79,933	-21,1676
1054,96	300,00	3,604	79,916	-20,4652
1055,96	300,00	3,604	79,902	-21,3070
1056,96	300,00	3,603	79,887	-21,4677
1057,96	300,00	3,602	79,876	-19,3651
1058,96	300,00	3,602	79,862	-11,3685
1059,96	300,00	3,601	79,850	-1,77357
1060,96	300,00	3,601	79,841	8,64811
1061,96	300,00	3,600	79,828	10,1767
1062,96	300,00	3,600	79,813	14,2026
1063,96	300,00	3,599	79,801	16,9633
1064,96	300,00	3,599	79,793	17,7290
1065,96	300,00	3,598	79,776	16,1940
1066,96	300,00	3,597	79,763	7,67628
1067,96	300,00	3,597	79,751	1,68578
1068,96	300,00	3,596	79,727	-10,0797
1069,96	300,00	3,596	79,732	-22,1335
1070,96	300,00	3,595	79,723	-26,4059
1071,96	300,00	3,595	79,709	-23,4018
1072,96	300,00	3,594	79,697	-10,6363
1073,96	300,00	3,593	79,666	1,52570
1074,96	300,00	3,593	79,676	6,44834
1075,96	300,00	3,592	79,652	14,6550
1076,96	300,00	3,592	79,644	22,3684
1077,96	300,00	3,592	79,634	25,9911
1078,96	300,00	3,591	79,616	21,9401
1079,96	300,00	3,590	79,594	15,3823
1080,96	300,00	3,590	79,595	11,2858
1081,96	300,00	3,589	79,584	4,45079
1082,96	300,00	3,589	79,575	3,10423
1083,96	300,00	3,588	79,560	0,269480
1084,96	300,00	3,588	79,549	-2,29491
1085,96	300,00	3,587	79,538	-9,11936
1086,96	300,00	3,587	79,528	-17,0662
1087,96	300,00	3,586	79,506	-24,6022
1088,96	300,00	3,586	79,507	-25,7618
1089,96	300,00	3,585	79,482	-25,0545
1090,96	300,00	3,584	79,476	-25,5179
1091,96	300,00	3,584	79,468	-21,7636
1092,96	300,00	3,584	79,467	-12,6608
1093,96	300,00	3,583	79,448	0,0503519
1094,96	300,00	3,583	79,436	9,71010
1095,96	300,00	3,582	79,418	12,3008
1096,96	300,00	3,581	79,412	12,2966
1097,96	300,00	3,580	79,385	13,4189
1098,96	300,00	3,580	79,386	15,1692
1099,96	300,00	3,580	79,379	18,6901
1100,96	300,00	3,579	79,363	22,3383
1101,96	300,00	3,579	79,351	24,5549
1102,96	300,00	3,578	79,345	24,8288
1103,96	300,00	3,577	79,321	25,0270
1104,96	300,00	3,577	79,311	17,9090
1105,96	300,00	3,576	79,299	11,0131
1106,96	300,00	3,576	79,291	-2,43498
1107,96	300,00	3,575	79,279	-17,8924
1108,96	300,00	3,575	79,262	-23,6561
1109,96	300,00	3,574	79,250	-26,8616
1110,96	300,00	3,574	79,243	-27,6408
1111,96	300,00	3,573	79,227	-27,2379
1112,96	300,00	3,572	79,211	-27,4762
1113,96	300,00	3,572	79,209	-27,6430
1114,96	300,00	3,572	79,191	-27,9213
1115,96	300,00	3,571	79,179	-27,6145
1116,96	300,00	3,570	79,166	-21,9418
1117,96	300,00	3,570	79,160	-11,3528
1118,96	300,00	3,570	79,147	-4,06393
1119,96	300,00	3,569	79,143	1,79117
1120,96	300,00	3,568	79,116	12,9058
1121,96	300,00	3,567	79,089	11,3706
1122,96	300,00	3,567	79,095	12,4310
1123,96	300,00	3,567	79,099	12,8104
1124,96	300,00	3,566	79,071	13,8565
1125,96	300,00	3,566	79,062	18,6174
1126,96	300,00	3,565	79,048	18,4544
1127,96	300,00	3,565	79,043	19,4887
1128,96	300,00	3,564	79,025	15,3645
1129,96	300,00	3,564	79,014	9,24324
1130,96	300,00	3,563	78,998	0,569775
1131,96	300,00	3,562	78,990	-8,60440
1132,96	300,00	3,562	78,979	-9,94784
1133,96	300,00	3,562	78,970	5,85187
1134,96	300,00	3,561	78,953	27,4367
1135,96	300,00	3,560	78,943	28,1515
1136,96	300,00	3,560	78,934	26,7872
1137,96	300,00	3,560	78,938	26,7380
1138,96	300,00	3,559	78,918	26,6411
1139,96	300,00	3,559	78,904	25,0635
1140,96	300,00	3,558	78,891	20,2030
1141,96	300,00	3,557	78,880	12,3532
1142,96	300,00	3,557	78,879	6,27071
1143,96	300,00	3,557	78,861	1,63751
1144,96	300,00	3,555	78,832	0,0787135
1145,96	300,00	3,555	78,825	-1,63819
1146,96	300,00	3,555	78,824	-2,19694
1147,96	300,00	3,555	78,817	-3,98086
1148,96	300,00	3,554	78,807	-8,34172
1149,96	300,00	3,554	78,798	-12,6029
1150,96	300,00	3,553	78,787	-15,5531
1151,96	300,00	3,553	78,776	-14,8480
1152,96	300,00	3,552	78,765	-14,9212
1153,96	300,00	3,552	78,751	-14,0766
1154,96	300,00	3,551	78,737	-11,6167
1155,96	300,00	3,551	78,727	-8,39078
1156,96	300,00	3,550	78,717	-12,5036
1157,96	300,00	3,549	78,703	-16,7345
1158,96	300,00	3,549	78,693	-17,9517
1159,96	300,00	3,549	78,683	-21,4972
1160,96	300,00	3,548	78,663	-16,1736
1161,96	300,00	3,548	78,661	-9,48992
1162,96	300,00	3,547	78,651	-5,16984
1163,96	300,00	3,547	78,637	-0,0744477
1164,96	300,00	3,546	78,622	4,45070
1165,96	300,00	3,545	78,602	4,87254
1166,96	300,00	3,545	78,607	2,57298
1167,96	300,00	3,544	78,587	1,36338
1168,96	300,00	3,544	78,572	2,27646
1169,96	300,00	3,543	78,566	0,910763
1170,96	300,00	3,543	78,553	-4,13064
1171,96	300,00	3,542	78,535	-6,12436
1172,96	300,00	3,542	78,536	-6,60713
1173,96	300,00	3,541	78,518	-12,8192
1174,96	300,00	3,541	78,509	-15,7916
1175,96	300,00	3,540	78,491	-14,8929
1176,96	300,00	3,539	78,481	-10,0138
1177,96	300,00	3,539	78,474	6,93404
1178,96	300,00	3,539	78,463	19,9223
1179,96	300,00	3,538	78,451	24,5597
1180,96	300,00	3,538	78,442	27,3698
1181,96	300,00	3,537	78,431	28,2187
1182,96	300,00	3,537	78,418	23,6877
1183,96	300,00	3,536	78,408	18,6831
1184,96	300,00	3,535	78,390	17,3172
1185,96	300,00	3,535	78,379	18,1210
1186,96	300,00	3,535	78,374	19,1362
1187,96	300,00	3,534	78,362	14,5815
1188,96	300,00	3,534	78,357	6,15575
1189,96	300,00	3,533	78,347	-2,83791
1190,96	300,00	3,533	78,335	-6,17703
1191,96	300,00	3,532	78,324	-8,36270
1192,96	300,00	3,531	78,301	-10,1838
1193,96	300,00	3,530	78,278	-5,10733
1194,96	300,00	3,531	78,287	4,15601
1195,96	300,00	3,530	78,264	7,50217
1196,96	300,00	3,530	78,264	0,396988
1197,96	300,00	3,529	78,255	-2,10320
1198,96	300,00	3,529	78,241	-2,14588
1199,96	300,00	3,528	78,229	-8,76121
1200,96	300,00	3,528	78,222	-14,3549
1201,96	300,00	3,527	78,209	-15,7076
1202,96	300,00	3,527	78,197	-11,5177
1203,96	300,00	3,526	78,184	-4,17062
1204,96	300,00	3,526	78,176	-3,26800
1205,96	300,00	3,525	78,163	-6,73998
1206,96	300,00	3,525	78,149	-13,4371
1207,96	300,00	3,524	78,137	-16,0785
1208,96	300,00	3,523	78,124	-17,5924
1209,96	300,00	3,523	78,113	-18,2333
1210,96	300,00	3,523	78,106	-17,3130
1211,96	300,00	3,522	78,095	-15,0195
1212,96	300,00	3,522	78,082	-7,49945
1213,96	300,00	3,521	78,070	-8,23244
1214,96	300,00	3,521	78,065	-11,9388
1215,96	300,00	3,520	78,051	-6,89330
1216,96	300,00	3,519	78,028	1,20643
1217,96	300,00	3,519	78,020	3,89410
1218,96	300,00	3,518	78,009	8,81588
1219,96	300,00	3,518	78,004	14,3206
1220,96	300,00	3,517	77,991	23,3317
1221,96	300,00	3,517	77,978	26,1038
1222,96	300,00	3,516	77,969	26,7236
1223,96	300,00	3,516	77,952	26,9260
1224,96	300,00	3,516	77,950	27,2618
1225,96	300,00	3,516	77,953	27,8490
1226,96	300,00	3,514	77,924	30,3982
1227,96	300,00	3,514	77,912	31,2698
1228,96	300,00	3,513	77,902	29,4399
1229,96	300,00	3,513	77,893	20,9035
1230,96	300,00	3,513	77,883	9,32368
1231,96	300,00	3,512	77,872	-6,15133
1232,96	300,00	3,512	77,861	-8,30516
1233,96	300,00	3,511	77,849	-9,06947
1234,96	300,00	3,510	77,837	-3,01478
1235,96	300,00	3,510	77,828	2,32590
1236,96	300,00	3,509	77,812	-6,47703
1237,96	300,00	3,509	77,808	-16,1314
1238,96	300,00	3,508	77,790	-20,3077
1239,96	300,00	3,508	77,781	-24,8878
1240,96	300,00	3,507	77,764	-27,0217
1241,96	300,00	3,507	77,767	-25,5570
1242,96	300,00	3,507	77,752	-24,7289
1243,96	300,00	3,506	77,737	-22,7878
1244,96	300,00	3,505	77,722	-15,6749
1245,96	300,00	3,505	77,710	-6,55757
1246,96	300,00	3,504	77,704	-9,28323
1247,96	300,00	3,504	77,690	-14,7161
1248,96	300,00	3,503	77,680	-20,7280
1249,96	300,00	3,503	77,674	-20,8171
1250,96	300,00	3,502	77,654	-20,0054
1251,96	300,00	3,502	77,643	-13,8612
1252,96	300,00	3,501	77,634	-5,41048
1253,96	300,00	3,501	77,622	0,633107
1254,96	300,00	3,500	77,613	-0,832593
1255,96	300,00	3,500	77,597	-2,76871
1256,96	300,00	3,499	77,584	-0,820083
1257,96	300,00	3,499	77,583	-0,0285327
1258,96	300,00	3,498	77,562	-9,14037e-3
1259,96	300,00	3,497	77,549	-5,99799e-3
1260,96	300,00	3,497	77,542	-5,39253e-3
1261,96	300,00	3,497	77,534	-5,74111e-3
1262,96	300,00	3,497	77,529	-7,01094e-3
1263,96	300,00	3,495	77,502	-9,43436e-3
1264,96	300,00	3,495	77,499	-0,0135918
1265,96	302,05	3,496	77,511	-0,0204022
1266,96	308,98	3,495	77,503	-0,0314541
1267,96	317,83	3,494	77,475	-0,0495628
1268,96	327,02	3,492	77,428	-0,0792644
1269,96	336,43	3,488	77,330	-0,126775
1270,96	346,14	3,480	77,153	-0,196835
1271,96	356,13	3,465	76,834	-0,285166
1272,96	366,27	3,438	76,220	-0,375899
1273,96	376,48	3,387	75,107	-0,457469
1274,96	386,68	3,296	73,081	-0,527369
1275,96	396,83	3,128	69,360	-0,581757
1276,96	406,92	2,826	62,661	-0,618577
1277,96	416,97	2,314	51,307	-0,637476
1278,96	426,98	1,572	34,845	-0,638288
1279,96	437,03	0,785	17,396	-0,620744
1280,96	447,07	0,299	6,638	-0,584715
1281,96	457,08	0,134	2,979	-0,530671
1282,96	467,10	0,080	1,776	-0,459933
1283,96	477,13	0,053	1,173	-0,375107
1284,96	487,17	0,042	0,922	-0,281050
1285,96	497,21	0,038	0,849	-0,186030
1286,96	507,24	0,038	0,836	-0,102704
1287,96	517,27	0,037	0,827	-0,0447704
1288,96	527,30	0,037	0,817	-0,0164571
1289,96	537,32	0,037	0,811	-6,45364e-3
1290,96	547,35	0,036	0,800	-2,72971e-3
1291,96	557,37	0,036	0,803	-1,08716e-3
1292,96	567,40	0,036	0,795	-4,55274e-4
1293,96	577,42	0,036	0,796	-2,29992e-4
1294,96	587,44	0,036	0,795	-1,03555e-4
1295,96	597,46	0,036	0,795	3,14753e-6
1296,96	607,48	0,035	0,781	1,13798e-4
1297,96	617,50	0,036	0,794	2,09371e-4
1298,96	627,52	0,036	0,800	2,85367e-4
1299,96	637,54	0,036	0,799	3,54347e-4
1300,96	647,56	0,036	0,804	4,40926e-4
1301,96	657,58	0,037	0,810	5,09496e-4
1302,96	667,60	0,037	0,819	5,76362e-4
1303,96	677,61	0,037	0,826	6,31277e-4
1304,96	687,63	0,038	0,836	6,86942e-4
1305,96	697,64	0,038	0,841	7,36007e-4
1306,96	707,66	0,038	0,837	7,56497e-4
1307,96	717,67	0,039	0,854	7,74333e-4
1308,96	727,69	0,039	0,864	7,81472e-4
1309,96	737,70	0,039	0,865	7,92346e-4
1310,96	747,72	0,039	0,875	8,01336e-4
1311,96	757,73	0,040	0,880	8,14628e-4
1312,96	767,74	0,040	0,897	8,31915e-4
1313,96	777,75	0,041	0,908	8,68193e-4
1314,88	786,93	0,041	0,916	8,99888e-4