File: data/TGA/005d-L_M/F10.txt
Filename	F10
Instrument name
Operator	Gwenael
rundate	2025-02-10
Sample name	F10
[step]
Step 1
Time	Temperature	Weight	Weight	Deriv. Weight
min	°C	mg	%	% / °C
0.02	32.03	4.703	100.028	-4.29647e-4
0.96	34.68	4.707	100.108	-8.71696e-4
1.96	35.90	4.707	100.097	-1.08628e-3
2.96	38.31	4.707	100.117	-1.23936e-3
3.96	42.31	4.708	100.128	-1.31580e-3
4.96	47.24	4.708	100.118	-1.39993e-3
5.96	52.41	4.707	100.113	-1.46857e-3
6.96	57.45	4.707	100.100	-1.55886e-3
7.96	62.25	4.706	100.086	-1.75668e-3
8.96	66.94	4.705	100.070	-2.11790e-3
9.96	71.60	4.705	100.066	-2.53674e-3
10.96	76.35	4.705	100.059	-3.03006e-3
11.96	81.21	4.704	100.049	-3.52333e-3
12.96	86.18	4.704	100.040	-4.01384e-3
13.96	91.22	4.703	100.026	-4.59776e-3
14.96	96.24	4.702	100.004	-5.21876e-3
15.96	100.04	4.702	99.992	-5.95079e-3
16.96	102.08	4.699	99.940	-6.82297e-3
17.96	102.78	4.698	99.909	-7.84244e-3
18.96	102.70	4.696	99.882	-8.83828e-3
19.96	102.23	4.696	99.868	-9.25946e-3
20.96	101.62	4.694	99.840	-8.01943e-3
21.96	100.99	4.694	99.821	-5.64118e-3
22.96	100.44	4.693	99.815	-3.55978e-3
23.96	100.04	4.693	99.805	-2.46374e-3
24.96	100.87	4.694	99.821	-2.02605e-3
25.96	103.83	4.694	99.834	-1.84318e-3
26.96	108.19	4.694	99.837	-1.77899e-3
27.96	112.99	4.694	99.829	-1.78993e-3
28.96	117.78	4.694	99.820	-1.85248e-3
29.96	122.51	4.693	99.809	-1.94956e-3
30.96	127.27	4.693	99.803	-2.07796e-3
31.96	132.12	4.692	99.793	-2.24167e-3
32.96	137.06	4.691	99.776	-2.40863e-3
33.96	142.07	4.691	99.760	-2.51797e-3
34.96	147.12	4.690	99.744	-2.50676e-3
35.96	152.18	4.689	99.722	-2.43292e-3
36.96	157.24	4.688	99.711	-2.31926e-3
37.96	162.29	4.688	99.698	-2.17895e-3
38.96	167.33	4.687	99.689	-2.03270e-3
39.96	172.35	4.686	99.667	-1.85320e-3
40.96	177.35	4.687	99.674	-1.67056e-3
41.96	182.36	4.686	99.659	-1.48099e-3
42.96	187.37	4.686	99.665	-1.31105e-3
43.96	192.38	4.686	99.660	-1.17576e-3
44.96	197.38	4.686	99.649	-1.06479e-3
45.96	202.37	4.685	99.642	-9.98128e-4
46.96	207.37	4.685	99.639	-9.34935e-4
47.96	212.37	4.685	99.639	-9.08866e-4
48.96	217.37	4.685	99.631	-8.57760e-4
49.96	222.38	4.684	99.626	-8.32938e-4
50.96	227.39	4.684	99.622	-8.21460e-4
51.96	232.40	4.684	99.616	-7.91402e-4
52.96	237.41	4.684	99.615	-7.84366e-4
53.96	242.42	4.684	99.608	-7.66709e-4
54.96	247.43	4.684	99.615	-7.69999e-4
55.96	252.44	4.683	99.604	-8.05610e-4
56.96	257.45	4.683	99.601	-8.95165e-4
57.96	262.45	4.683	99.603	-1.00904e-3
58.96	267.46	4.683	99.594	-1.18839e-3
59.96	272.47	4.683	99.592	-1.38796e-3
60.96	277.48	4.682	99.578	-1.63446e-3
61.96	282.49	4.682	99.580	-1.90891e-3
62.96	287.49	4.682	99.576	-2.25157e-3
63.96	292.52	4.681	99.563	-2.62222e-3
64.96	297.16	4.680	99.542	-3.07856e-3
65.96	299.89	4.680	99.528	-3.57138e-3
66.96	301.23	4.679	99.505	-4.16493e-3
67.96	301.84	4.679	99.503	-4.95078e-3
68.96	301.89	4.678	99.486	-5.90111e-3
69.96	301.53	4.677	99.477	-7.24833e-3
70.96	301.00	4.677	99.463	-8.83370e-3
71.96	300.47	4.677	99.460	-9.36191e-3
72.96	300.05	4.676	99.450	4.75162e-3
73.96	299.78	4.676	99.438	0.0381156
74.96	299.66	4.675	99.432	0.0458403
75.96	299.67	4.675	99.425	0.0441158
76.96	299.74	4.675	99.416	0.0437603
77.96	299.85	4.674	99.405	0.0439424
78.96	299.95	4.674	99.398	0.0309063
79.96	300.02	4.673	99.386	-0.0475979
80.96	300.07	4.672	99.372	-0.206411
81.96	300.08	4.672	99.361	-0.247142
82.96	300.07	4.671	99.349	-0.239561
83.96	300.05	4.671	99.342	-0.236855
84.96	300.02	4.671	99.331	-0.219345
85.96	300.01	4.670	99.322	-0.0237741
86.96	299.99	4.670	99.319	0.678553
87.96	299.99	4.669	99.292	1.22043
88.96	299.99	4.669	99.297	1.23342
89.96	299.99	4.668	99.287	1.20842
90.96	299.99	4.667	99.257	1.21720
91.96	300.00	4.667	99.257	1.01106
92.96	300.00	4.666	99.242	-0.602951
93.96	300.00	4.666	99.240	-4.91759
94.96	300.00	4.665	99.215	-6.69927
95.96	300.00	4.665	99.210	-6.51015
96.96	300.00	4.664	99.196	-6.52196
97.96	300.00	4.664	99.184	-6.14395
98.96	300.00	4.663	99.169	-3.34692
99.96	300.00	4.662	99.153	10.3522
100.96	300.00	4.662	99.142	18.3216
101.96	300.00	4.661	99.133	12.0557
102.96	300.00	4.660	99.117	9.55081
103.96	300.00	4.660	99.097	7.38137
104.96	300.00	4.660	99.098	6.75831
105.96	300.00	4.658	99.072	7.09134
106.96	300.00	4.658	99.058	11.9417
107.96	300.00	4.657	99.046	17.8573
108.96	300.00	4.656	99.027	21.3142
109.96	300.00	4.656	99.017	24.3719
110.96	300.00	4.655	99.003	23.0067
111.96	300.00	4.655	98.990	24.4148
112.96	300.00	4.653	98.968	11.0104
113.96	300.00	4.652	98.939	3.57032
114.96	300.00	4.652	98.939	1.30317
115.96	300.00	4.651	98.924	1.01487
116.96	300.00	4.650	98.901	-1.90294
117.96	300.00	4.650	98.888	-6.78600
118.96	300.00	4.649	98.881	-14.5944
119.96	300.00	4.648	98.859	-18.9571
120.96	300.00	4.647	98.840	-22.9721
121.96	300.00	4.647	98.825	-22.7295
122.96	300.00	4.646	98.812	-15.6433
123.96	300.00	4.646	98.801	-4.37521
124.96	300.00	4.644	98.774	8.62964
125.96	300.00	4.643	98.753	18.4081
126.96	300.00	4.643	98.750	22.9163
127.96	300.00	4.642	98.719	26.9134
128.96	300.00	4.642	98.714	25.2746
129.96	300.00	4.640	98.690	23.6163
130.96	300.00	4.640	98.686	20.4126
131.96	300.00	4.639	98.669	19.4243
132.96	300.00	4.639	98.656	20.2004
133.96	300.00	4.638	98.636	19.6188
134.96	300.00	4.637	98.609	21.3291
135.96	300.00	4.636	98.603	20.8893
136.96	300.00	4.636	98.587	16.8796
137.96	300.00	4.634	98.563	-4.30884
138.96	300.00	4.634	98.548	-32.8564
139.96	300.00	4.633	98.543	-34.2505
140.96	300.00	4.632	98.518	-34.1865
141.96	300.00	4.632	98.506	-34.7630
142.96	300.00	4.630	98.474	-35.2105
143.96	300.00	4.630	98.467	-28.2336
144.96	300.00	4.629	98.452	-15.3335
145.96	300.00	4.629	98.439	-11.9159
146.96	300.00	4.628	98.420	-7.91146
147.96	300.00	4.627	98.406	-9.99773
148.96	300.00	4.626	98.386	-11.1703
149.96	300.00	4.625	98.368	-12.8521
150.96	300.00	4.625	98.355	-12.4625
151.96	300.00	4.624	98.338	-8.89675
152.96	300.00	4.623	98.321	-3.67854
153.96	300.00	4.622	98.299	3.98133
154.96	300.00	4.622	98.292	9.46999
155.96	300.00	4.621	98.272	7.28819
156.96	300.00	4.620	98.254	14.6101
157.96	300.00	4.619	98.233	13.5679
158.96	300.00	4.619	98.225	8.74374
159.96	300.00	4.617	98.202	2.40557
160.96	300.00	4.617	98.201	4.01056
161.96	300.00	4.617	98.182	10.3916
162.96	300.00	4.616	98.165	4.05038
163.96	300.00	4.615	98.143	-0.137461
164.96	300.00	4.614	98.123	-2.03093
165.96	300.00	4.613	98.107	-3.90549
166.96	300.00	4.612	98.093	-4.49115
167.96	300.00	4.611	98.074	-4.67337
168.96	300.00	4.610	98.053	-7.87032
169.96	300.00	4.610	98.046	-2.22312
170.96	300.00	4.609	98.031	0.0374159
171.96	300.00	4.608	98.011	6.29177
172.96	300.00	4.608	97.997	6.10194
173.96	300.00	4.607	97.981	11.7441
174.96	300.00	4.606	97.966	15.8934
175.96	300.00	4.605	97.948	17.9536
176.96	300.00	4.605	97.927	13.3375
177.96	300.00	4.604	97.914	13.7173
178.96	300.00	4.604	97.906	15.4722
179.96	300.00	4.603	97.893	5.65240
180.96	300.00	4.602	97.870	-3.53183
181.96	300.00	4.601	97.863	-16.0619
182.96	300.00	4.600	97.833	-22.5855
183.96	300.00	4.600	97.828	-26.1351
184.96	300.00	4.600	97.825	-25.5653
185.96	300.00	4.598	97.789	-26.1240
186.96	300.00	4.598	97.783	-22.9843
187.96	300.00	4.596	97.755	-17.5631
188.96	300.00	4.596	97.752	-9.62281
189.96	300.00	4.595	97.732	-3.90567
190.96	300.00	4.595	97.714	-3.68338
191.96	300.00	4.594	97.701	4.83456
192.96	300.00	4.593	97.686	7.61437
193.96	300.00	4.592	97.669	4.52200
194.96	300.00	4.592	97.660	6.42205
195.96	300.00	4.591	97.639	8.59760
196.96	300.00	4.590	97.626	5.36290
197.96	300.00	4.590	97.611	8.06714
198.96	300.00	4.589	97.601	3.69395
199.96	300.00	4.588	97.582	-2.30952
200.96	300.00	4.588	97.576	-7.03360
201.96	300.00	4.587	97.561	-2.96429
202.96	300.00	4.587	97.545	0.975127
203.96	300.00	4.586	97.527	3.65660
204.96	300.00	4.585	97.509	5.75173
205.96	300.00	4.585	97.501	4.14371
206.96	300.00	4.584	97.489	-2.46458
207.96	300.00	4.583	97.476	-7.43056
208.96	300.00	4.582	97.455	-5.61719
209.96	300.00	4.581	97.428	-4.21759
210.96	300.00	4.581	97.420	-4.60331
211.96	300.00	4.581	97.420	-0.485268
212.96	300.00	4.580	97.396	4.08716
213.96	300.00	4.579	97.382	1.86704
214.96	300.00	4.578	97.368	-3.25408
215.96	300.00	4.578	97.367	-6.66773
216.96	300.00	4.577	97.341	-7.41366
217.96	300.00	4.577	97.332	-5.64762
218.96	300.00	4.576	97.310	-4.42236
219.96	300.00	4.575	97.303	-0.0174688
220.96	300.00	4.574	97.285	9.37380
221.96	300.00	4.574	97.274	13.7345
222.96	300.00	4.573	97.262	7.58240
223.96	300.00	4.573	97.250	-5.26002
224.96	300.00	4.572	97.230	-11.6973
225.96	300.00	4.572	97.226	-17.0863
226.96	300.00	4.570	97.194	-22.5014
227.96	300.00	4.570	97.196	-22.0141
228.96	300.00	4.569	97.171	-15.3933
229.96	300.00	4.568	97.158	-5.51505
230.96	300.00	4.568	97.151	7.22431
231.96	300.00	4.567	97.134	13.6043
232.96	300.00	4.567	97.119	18.4118
233.96	300.00	4.566	97.112	21.5537
234.96	300.00	4.565	97.090	21.1318
235.96	300.00	4.565	97.086	21.7971
236.96	300.00	4.564	97.067	24.5804
237.96	300.00	4.564	97.060	24.5719
238.96	300.00	4.563	97.049	17.5092
239.96	300.00	4.563	97.035	14.1532
240.96	300.00	4.562	97.017	4.22570
241.96	300.00	4.562	97.019	4.98498
242.96	300.00	4.561	96.991	11.7902
243.96	300.00	4.560	96.979	-5.65006
244.96	300.00	4.560	96.970	-13.5546
245.96	300.00	4.559	96.954	-20.3953
246.96	300.00	4.558	96.942	-23.6882
247.96	300.00	4.558	96.928	-11.4102
248.96	300.00	4.557	96.914	-8.97295
249.96	300.00	4.557	96.909	-4.36315
250.96	300.00	4.556	96.884	1.24953
251.96	300.00	4.555	96.877	5.04321
252.96	300.00	4.555	96.869	12.4227
253.96	300.00	4.554	96.853	21.9824
254.96	300.00	4.553	96.833	19.2444
255.96	300.00	4.553	96.823	17.4365
256.96	300.00	4.552	96.811	23.3544
257.96	300.00	4.551	96.796	24.8855
258.96	300.00	4.551	96.797	32.0615
259.96	300.00	4.550	96.772	32.5021
260.96	300.00	4.550	96.765	25.3018
261.96	300.00	4.549	96.751	9.83559
262.96	300.00	4.549	96.740	-14.0947
263.96	300.00	4.548	96.724	-30.0456
264.96	300.00	4.548	96.715	-22.6720
265.96	300.00	4.547	96.703	-23.1864
266.96	300.00	4.546	96.684	-27.0708
267.96	300.00	4.546	96.680	-31.7935
268.96	300.00	4.545	96.667	-34.9863
269.96	300.00	4.545	96.657	-32.6450
270.96	300.00	4.544	96.646	-28.0178
271.96	300.00	4.543	96.624	-32.2197
272.96	300.00	4.543	96.620	-30.6571
273.96	300.00	4.542	96.602	-24.4859
274.96	300.00	4.542	96.596	-21.5626
275.96	300.00	4.542	96.587	-4.34160
276.96	300.00	4.541	96.570	8.93244
277.96	300.00	4.540	96.558	5.72141
278.96	300.00	4.540	96.545	4.24938
279.96	300.00	4.539	96.542	-3.76651
280.96	300.00	4.539	96.528	-2.98924
281.96	300.00	4.538	96.508	7.26308
282.96	300.00	4.537	96.489	14.3786
283.96	300.00	4.537	96.494	13.7953
284.96	300.00	4.537	96.487	17.1935
285.96	300.00	4.536	96.466	12.6770
286.96	300.00	4.535	96.452	16.4076
287.96	300.00	4.535	96.445	9.64441
288.96	300.00	4.534	96.421	-2.37384
289.96	300.00	4.533	96.414	2.57382
290.96	300.00	4.533	96.412	-7.12494
291.96	300.00	4.532	96.393	-5.91967
292.96	300.00	4.532	96.383	2.41255
293.96	300.00	4.531	96.369	15.6967
294.96	300.00	4.531	96.361	18.8026
295.96	300.00	4.530	96.350	20.8121
296.96	300.00	4.530	96.340	19.6027
297.96	300.00	4.529	96.326	14.1176
298.96	300.00	4.528	96.305	14.7794
299.96	300.00	4.528	96.302	6.88157
300.96	300.00	4.528	96.292	-3.49183
301.96	300.00	4.527	96.283	0.0725670
302.96	300.00	4.527	96.272	1.23114
303.96	300.00	4.526	96.264	-0.557408
304.96	300.00	4.526	96.256	-11.4251
305.96	300.00	4.525	96.233	-16.9682
306.96	300.00	4.524	96.221	-11.2942
307.96	300.00	4.524	96.206	-16.3655
308.96	300.00	4.523	96.196	-8.52913
309.96	300.00	4.523	96.186	-10.1125
310.96	300.00	4.523	96.183	-8.91770
311.96	300.00	4.522	96.173	-3.23478
312.96	300.00	4.521	96.149	13.8953
313.96	300.00	4.521	96.146	22.2190
314.96	300.00	4.521	96.149	22.5272
315.96	300.00	4.520	96.126	17.7784
316.96	300.00	4.519	96.114	9.24150
317.96	300.00	4.519	96.100	3.27100
318.96	300.00	4.518	96.094	7.20349
319.96	300.00	4.518	96.080	12.4422
320.96	300.00	4.518	96.077	12.5953
321.96	300.00	4.517	96.065	4.56361
322.96	300.00	4.516	96.051	-1.63635
323.96	300.00	4.516	96.037	-2.85860
324.96	300.00	4.515	96.029	-11.0353
325.96	300.00	4.515	96.020	-10.8995
326.96	300.00	4.514	96.003	-15.1656
327.96	300.00	4.514	95.998	-15.6103
328.96	300.00	4.513	95.989	-14.1753
329.96	300.00	4.513	95.983	-8.80921
330.96	300.00	4.513	95.973	-4.49256
331.96	300.00	4.512	95.953	-9.10942
332.96	300.00	4.511	95.938	-11.7401
333.96	300.00	4.511	95.942	-12.5608
334.96	300.00	4.510	95.921	-15.5645
335.96	300.00	4.510	95.914	-12.3195
336.96	300.00	4.509	95.899	-1.64440
337.96	300.00	4.509	95.898	1.73308
338.96	300.00	4.508	95.876	8.44283
339.96	300.00	4.508	95.866	14.8435
340.96	300.00	4.507	95.858	13.5716
341.96	300.00	4.507	95.850	8.84461
342.96	300.00	4.506	95.841	12.3874
343.96	300.00	4.506	95.833	13.2619
344.96	300.00	4.505	95.819	15.6725
345.96	300.00	4.505	95.806	24.0258
346.96	300.00	4.505	95.801	14.5971
347.96	300.00	4.504	95.790	5.72993
348.96	300.00	4.504	95.781	-6.30296
349.96	300.00	4.503	95.761	-7.16091
350.96	300.00	4.502	95.757	-13.4551
351.96	300.00	4.502	95.747	-15.7601
352.96	300.00	4.502	95.750	-15.4535
353.96	300.00	4.501	95.717	-21.4425
354.96	300.00	4.500	95.711	-18.0876
355.96	300.00	4.500	95.707	-3.57746
356.96	300.00	4.499	95.691	-1.81910
357.96	300.00	4.498	95.671	1.19964
358.96	300.00	4.499	95.673	9.39556
359.96	300.00	4.498	95.661	14.9509
360.96	300.00	4.498	95.653	21.4835
361.96	300.00	4.497	95.651	22.9692
362.96	300.00	4.497	95.632	22.1521
363.96	300.00	4.496	95.620	14.2880
364.96	300.00	4.495	95.607	8.36947
365.96	300.00	4.495	95.602	2.59773
366.96	300.00	4.495	95.589	-3.00572
367.96	300.00	4.494	95.581	-7.43304
368.96	300.00	4.494	95.569	-6.88351
369.96	300.00	4.493	95.562	-5.45163
370.96	300.00	4.493	95.553	-12.8928
371.96	300.00	4.493	95.546	-15.0520
372.96	300.00	4.492	95.524	-15.3589
373.96	300.00	4.492	95.524	-16.1777
374.96	300.00	4.491	95.516	-12.7984
375.96	300.00	4.491	95.511	-5.55289
376.96	300.00	4.490	95.494	1.08529
377.96	300.00	4.490	95.493	12.4487
378.96	300.00	4.489	95.472	14.7558
379.96	300.00	4.488	95.447	10.3236
380.96	300.00	4.488	95.454	4.98867
381.96	300.00	4.488	95.440	-0.373891
382.96	300.00	4.488	95.442	-3.78099
383.96	300.00	4.487	95.417	-10.3628
384.96	300.00	4.486	95.413	-10.0055
385.96	300.00	4.486	95.399	-7.23257
386.96	300.00	4.485	95.391	-2.96450
387.96	300.00	4.485	95.378	-3.16105
388.96	300.00	4.484	95.373	-10.8687
389.96	300.00	4.484	95.364	-15.9452
390.96	300.00	4.483	95.352	-10.6077
391.96	300.00	4.483	95.349	-3.26836
392.96	300.00	4.483	95.337	3.56736
393.96	300.00	4.482	95.326	15.8550
394.96	300.00	4.482	95.316	28.0569
395.96	300.00	4.481	95.298	31.3690
396.96	300.00	4.481	95.301	31.7725
397.96	300.00	4.480	95.284	31.8270
398.96	300.00	4.480	95.281	31.7051
399.96	300.00	4.480	95.269	31.9468
400.96	300.00	4.479	95.256	27.9930
401.96	300.00	4.479	95.256	9.26947
402.96	300.00	4.478	95.233	-0.0143983
403.96	300.00	4.478	95.240	-1.98166
404.96	300.00	4.477	95.212	-5.48439
405.96	300.00	4.477	95.213	-12.8515
406.96	300.00	4.477	95.205	-19.5293
407.96	300.00	4.476	95.197	-19.9555
408.96	300.00	4.475	95.183	-21.3042
409.96	300.00	4.475	95.177	-20.5145
410.96	300.00	4.475	95.168	-19.0458
411.96	300.00	4.474	95.157	-12.7227
412.96	300.00	4.474	95.148	-11.1294
413.96	300.00	4.473	95.129	-10.3080
414.96	300.00	4.473	95.125	-6.80472
415.96	300.00	4.472	95.113	-2.46324
416.96	300.00	4.472	95.108	8.65879
417.96	300.00	4.471	95.098	13.8010
418.96	300.00	4.471	95.087	13.8128
419.96	300.00	4.471	95.081	15.7131
420.96	300.00	4.470	95.069	23.0739
421.96	300.00	4.470	95.056	22.6947
422.96	300.00	4.469	95.050	21.6966
423.96	300.00	4.469	95.039	9.84537
424.96	300.00	4.468	95.029	3.25215
425.96	300.00	4.468	95.025	-2.25048
426.96	300.00	4.467	95.007	-6.96210
427.96	300.00	4.467	95.009	-5.33030
428.96	300.00	4.467	94.996	-2.22321
429.96	300.00	4.466	94.981	-1.09717
430.96	300.00	4.466	94.972	-1.75068
431.96	300.00	4.465	94.963	1.22181
432.96	300.00	4.465	94.956	0.101713
433.96	300.00	4.464	94.944	3.16217
434.96	300.00	4.464	94.938	6.33860
435.96	300.00	4.463	94.924	8.31601
436.96	300.00	4.463	94.916	7.95873
437.96	300.00	4.463	94.907	5.65565
438.96	300.00	4.462	94.901	8.57071
439.96	300.00	4.462	94.889	9.88689
440.96	300.00	4.461	94.881	4.30770
441.96	300.00	4.461	94.871	0.0226466
442.96	300.00	4.460	94.860	-3.83957
443.96	300.00	4.460	94.851	-10.2126
444.96	300.00	4.459	94.836	-13.7779
445.96	300.00	4.459	94.830	-13.7814
446.96	300.00	4.459	94.829	-10.0091
447.96	300.00	4.458	94.810	-4.53932
448.96	300.00	4.458	94.805	1.41284
449.96	300.00	4.457	94.793	5.19591
450.96	300.00	4.457	94.782	4.10203
451.96	300.00	4.457	94.782	6.89025
452.96	300.00	4.456	94.760	3.91087
453.96	300.00	4.455	94.757	0.908912
454.96	300.00	4.455	94.745	-10.0099
455.96	300.00	4.455	94.740	-18.2357
456.96	300.00	4.454	94.730	-13.7148
457.96	300.00	4.453	94.714	-7.48884
458.96	300.00	4.453	94.707	-0.205479
459.96	300.00	4.453	94.694	0.0761824
460.96	300.00	4.452	94.688	-0.972943
461.96	300.00	4.452	94.679	5.53369
462.96	300.00	4.451	94.670	12.5478
463.96	300.00	4.451	94.655	19.3743
464.96	300.00	4.450	94.647	23.3007
465.96	300.00	4.450	94.643	25.3788
466.96	300.00	4.450	94.631	24.6122
467.96	300.00	4.449	94.623	19.0515
468.96	300.00	4.449	94.612	15.7383
469.96	300.00	4.448	94.605	1.16739
470.96	300.00	4.447	94.585	-8.36765
471.96	300.00	4.447	94.581	-15.7503
472.96	300.00	4.447	94.574	-20.2554
473.96	300.00	4.447	94.569	-17.2299
474.96	300.00	4.446	94.548	-9.48408
475.96	300.00	4.445	94.536	-7.24331
476.96	300.00	4.444	94.523	-7.89922
477.96	300.00	4.445	94.530	-10.5919
478.96	300.00	4.444	94.506	-2.00492
479.96	300.00	4.444	94.503	2.96412
480.96	300.00	4.443	94.493	9.54793
481.96	300.00	4.442	94.478	14.4028
482.96	300.00	4.442	94.478	19.8427
483.96	300.00	4.441	94.456	16.2810
484.96	300.00	4.441	94.445	7.73476
485.96	300.00	4.441	94.441	5.06382
486.96	300.00	4.440	94.430	-2.99980
487.96	300.00	4.440	94.422	-10.0667
488.96	300.00	4.439	94.415	-12.8603
489.96	300.00	4.439	94.406	-17.4429
490.96	300.00	4.438	94.393	-16.7731
491.96	300.00	4.438	94.383	-13.7741
492.96	300.00	4.438	94.382	-7.41903
493.96	300.00	4.437	94.368	-9.34607
494.96	300.00	4.436	94.348	-13.4884
495.96	300.00	4.436	94.347	-8.58458
496.96	300.00	4.436	94.339	-6.84313
497.96	300.00	4.435	94.322	1.43881
498.96	300.00	4.435	94.321	13.8824
499.96	300.00	4.434	94.299	18.9841
500.96	300.00	4.434	94.303	20.3151
501.96	300.00	4.434	94.292	15.9840
502.96	300.00	4.433	94.275	10.4576
503.96	300.00	4.433	94.278	-3.01033
504.96	300.00	4.432	94.254	-12.8519
505.96	300.00	4.432	94.250	-14.4860
506.96	300.00	4.431	94.243	-16.9618
507.96	300.00	4.431	94.227	-21.5504
508.96	300.00	4.430	94.222	-22.5937
509.96	300.00	4.430	94.214	-22.1898
510.96	300.00	4.429	94.201	-21.3243
511.96	300.00	4.429	94.195	-20.2193
512.96	300.00	4.429	94.186	-20.1622
513.96	300.00	4.428	94.179	-17.3653
514.96	300.00	4.428	94.172	-17.3196
515.96	300.00	4.427	94.160	-17.4586
516.96	300.00	4.427	94.150	-17.6186
517.96	300.00	4.427	94.150	-17.1738
518.96	300.00	4.426	94.124	-15.5739
519.96	300.00	4.426	94.120	-9.32951
520.96	300.00	4.425	94.118	-3.60987
521.96	300.00	4.425	94.110	0.888622
522.96	300.00	4.424	94.091	1.26824
523.96	300.00	4.424	94.094	-2.00553
524.96	300.00	4.424	94.078	-3.47260
525.96	300.00	4.423	94.070	-4.90811
526.96	300.00	4.423	94.070	-5.65446
527.96	300.00	4.422	94.048	-2.14278
528.96	300.00	4.422	94.053	1.80082
529.96	300.00	4.422	94.046	8.22959
530.96	300.00	4.421	94.032	9.04622
531.96	300.00	4.421	94.028	4.80768
532.96	300.00	4.421	94.018	0.464703
533.96	300.00	4.420	94.012	1.84802
534.96	300.00	4.420	94.006	2.07452
535.96	300.00	4.420	93.999	3.90874
536.96	300.00	4.420	93.994	7.45990
537.96	300.00	4.419	93.986	10.3911
538.96	300.00	4.419	93.977	10.4014
539.96	300.00	4.418	93.969	6.00277
540.96	300.00	4.418	93.963	3.75543
541.96	300.00	4.418	93.949	0.332240
542.96	300.00	4.417	93.946	-3.47674
543.96	300.00	4.417	93.948	-4.58290
544.96	300.00	4.417	93.939	-4.90382
545.96	300.00	4.417	93.929	-5.26419
546.96	300.00	4.417	93.930	-2.53076
547.96	300.00	4.416	93.923	-4.95160
548.96	300.00	4.416	93.909	-5.67081
549.96	300.00	4.415	93.905	-1.35783
550.96	300.00	4.415	93.900	2.21868
551.96	300.00	4.415	93.904	6.18891
552.96	300.00	4.415	93.892	15.4314
553.96	300.00	4.414	93.885	18.8916
554.96	300.00	4.414	93.873	18.2228
555.96	300.00	4.413	93.864	16.5823
556.96	300.00	4.414	93.873	16.3605
557.96	300.00	4.413	93.856	15.8988
558.96	300.00	4.413	93.852	14.7659
559.96	300.00	4.413	93.847	12.7165
560.96	300.00	4.412	93.839	13.6588
561.96	300.00	4.412	93.831	12.4984
562.96	300.00	4.412	93.828	11.8383
563.96	300.00	4.411	93.820	12.2557
564.96	300.00	4.411	93.815	12.0695
565.96	300.00	4.411	93.805	11.8328
566.96	300.00	4.411	93.804	10.6633
567.96	300.00	4.411	93.801	6.65499
568.96	300.00	4.410	93.797	0.508065
569.96	300.00	4.410	93.785	-3.02141
570.96	300.00	4.410	93.779	-5.80599
571.96	300.00	4.409	93.763	-7.38534
572.96	300.00	4.409	93.768	-7.31509
573.96	300.00	4.408	93.753	-7.24300
574.96	300.00	4.409	93.766	-8.21874
575.96	300.00	4.407	93.735	-9.17741
576.96	300.00	4.407	93.731	-8.84378
577.96	300.00	4.407	93.729	-7.90053
578.96	300.00	4.407	93.722	-4.84344
579.96	300.00	4.406	93.713	0.323619
580.96	300.00	4.406	93.705	5.34111
581.96	300.00	4.406	93.709	11.6161
582.96	300.00	4.405	93.691	16.3460
583.96	300.00	4.405	93.687	16.7684
584.96	300.00	4.405	93.682	14.3855
585.96	300.00	4.404	93.670	9.22756
586.96	300.00	4.404	93.665	-0.0179759
587.96	300.00	4.404	93.663	-1.83939
588.96	300.00	4.403	93.646	-6.25585
589.96	300.00	4.403	93.645	-12.5068
590.96	300.00	4.403	93.639	-13.4811
591.96	300.00	4.402	93.627	-13.8313
592.96	300.00	4.402	93.623	-11.9286
593.96	300.00	4.402	93.612	-11.5973
594.96	300.00	4.402	93.612	-13.5232
595.96	300.00	4.401	93.597	-12.1843
596.96	300.00	4.400	93.582	-8.45472
597.96	300.00	4.400	93.580	-7.09645
598.96	300.00	4.400	93.583	1.58411
599.96	300.00	4.400	93.572	4.13525
600.96	300.00	4.399	93.554	4.02451
601.96	300.00	4.399	93.565	7.72727
602.96	300.00	4.399	93.547	9.00532
603.96	300.00	4.399	93.552	9.96375
604.96	300.00	4.398	93.526	17.0984
605.96	300.00	4.398	93.534	20.3684
606.96	300.00	4.397	93.522	20.4701
607.96	300.00	4.397	93.513	18.5107
608.96	300.00	4.397	93.504	9.91505
609.96	300.00	4.396	93.498	4.75029
610.96	300.00	4.396	93.490	-1.25751
611.96	300.00	4.396	93.487	-5.82281
612.96	300.00	4.396	93.482	-6.13207
613.96	300.00	4.395	93.473	-5.43894
614.96	300.00	4.394	93.457	-4.99970
615.96	300.00	4.394	93.456	-0.528682
616.96	300.00	4.394	93.450	-0.0911512
617.96	300.00	4.394	93.447	1.21547
618.96	300.00	4.393	93.438	2.86876
619.96	300.00	4.393	93.422	0.981719
620.96	300.00	4.393	93.424	-1.89637
621.96	300.00	4.392	93.417	-2.84324
622.96	300.00	4.392	93.403	-2.44698
623.96	300.00	4.392	93.399	3.47436
624.96	300.00	4.391	93.380	6.08918
625.96	300.00	4.391	93.384	6.21298
626.96	300.00	4.391	93.380	6.56208
627.96	300.00	4.390	93.365	6.93216
628.96	300.00	4.390	93.364	7.00064
629.96	300.00	4.390	93.362	2.95081
630.96	300.00	4.389	93.339	-1.07722
631.96	300.00	4.389	93.340	-1.36719
632.96	300.00	4.389	93.333	0.498612
633.96	300.00	4.388	93.324	0.0701470
634.96	300.00	4.388	93.317	1.25531
635.96	300.00	4.387	93.310	3.40704
636.96	300.00	4.387	93.299	1.68360
637.96	300.00	4.387	93.291	-0.989224
638.96	300.00	4.387	93.296	-4.77728
639.96	300.00	4.386	93.278	-12.0363
640.96	300.00	4.385	93.261	-8.05539
641.96	300.00	4.385	93.262	0.561636
642.96	300.00	4.385	93.261	4.74030
643.96	300.00	4.385	93.248	12.6502
644.96	300.00	4.384	93.237	11.3218
645.96	300.00	4.384	93.243	9.37574
646.96	300.00	4.384	93.234	-0.0529250
647.96	300.00	4.384	93.229	-6.01679
648.96	300.00	4.383	93.211	-9.53744
649.96	300.00	4.383	93.214	-12.1664
650.96	300.00	4.382	93.195	-13.1432
651.96	300.00	4.382	93.185	-12.6937
652.96	300.00	4.381	93.177	-10.5328
653.96	300.00	4.381	93.166	-4.87678
654.96	300.00	4.381	93.163	2.36778
655.96	300.00	4.380	93.156	4.77180
656.96	300.00	4.380	93.143	6.76598
657.96	300.00	4.379	93.139	8.27989
658.96	300.00	4.379	93.134	14.4417
659.96	300.00	4.379	93.126	14.8898
660.96	300.00	4.378	93.118	13.2050
661.96	300.00	4.378	93.111	8.09092
662.96	300.00	4.378	93.102	4.60826
663.96	300.00	4.377	93.087	3.01349
664.96	300.00	4.377	93.087	4.78423
665.96	300.00	4.377	93.082	2.73865
666.96	300.00	4.376	93.064	3.12452
667.96	300.00	4.376	93.058	0.507452
668.96	300.00	4.375	93.046	-0.267937
669.96	300.00	4.375	93.049	-0.793228
670.96	300.00	4.375	93.035	4.64012
671.96	300.00	4.375	93.044	7.76003
672.96	300.00	4.374	93.020	7.77575
673.96	300.00	4.374	93.015	10.3771
674.96	300.00	4.374	93.016	9.54560
675.96	300.00	4.373	92.996	6.51906
676.96	300.00	4.372	92.988	3.63478
677.96	300.00	4.371	92.970	-0.727828
678.96	300.00	4.372	92.977	-11.4941
679.96	300.00	4.371	92.963	-22.0557
680.96	300.00	4.371	92.958	-22.6345
681.96	300.00	4.370	92.946	-17.4098
682.96	300.00	4.370	92.938	-19.3172
683.96	300.00	4.369	92.925	-18.2039
684.96	300.00	4.369	92.919	-17.5519
685.96	300.00	4.369	92.909	-14.6405
686.96	300.00	4.368	92.897	-6.56048
687.96	300.00	4.367	92.882	8.39627
688.96	300.00	4.367	92.879	5.20143
689.96	300.00	4.367	92.875	2.31981
690.96	300.00	4.366	92.861	-1.53542
691.96	300.00	4.366	92.851	-6.96876
692.96	300.00	4.365	92.837	-10.8316
693.96	300.00	4.365	92.831	-9.34791
694.96	300.00	4.365	92.831	-3.63835
695.96	300.00	4.364	92.818	-3.53276
696.96	300.00	4.364	92.805	-6.65765
697.96	300.00	4.362	92.779	-7.05414
698.96	300.00	4.362	92.777	-4.35698
699.96	300.00	4.362	92.776	-12.2668
700.96	300.00	4.362	92.770	-13.9393
701.96	300.00	4.362	92.763	-11.3494
702.96	300.00	4.361	92.754	-8.23295
703.96	300.00	4.360	92.734	5.32149
704.96	300.00	4.360	92.733	16.4481
705.96	300.00	4.360	92.722	19.8756
706.96	300.00	4.359	92.713	21.1345
707.96	300.00	4.359	92.706	19.6179
708.96	300.00	4.359	92.695	19.8230
709.96	300.00	4.358	92.686	19.8828
710.96	300.00	4.358	92.679	20.5718
711.96	300.00	4.357	92.673	26.8231
712.96	300.00	4.356	92.650	20.5733
713.96	300.00	4.356	92.649	17.6551
714.96	300.00	4.356	92.641	18.0255
715.96	300.00	4.355	92.630	19.0859
716.96	300.00	4.355	92.617	13.9390
717.96	300.00	4.355	92.618	7.76030
718.96	300.00	4.354	92.596	3.18682
719.96	300.00	4.354	92.592	-1.40137
720.96	300.00	4.353	92.579	2.71270
721.96	300.00	4.353	92.580	2.85800
722.96	300.00	4.353	92.568	2.03767
723.96	300.00	4.352	92.561	7.41257
724.96	300.00	4.352	92.548	11.5202
725.96	300.00	4.351	92.545	13.8796
726.96	300.00	4.350	92.522	13.2293
727.96	300.00	4.349	92.502	11.5232
728.96	300.00	4.350	92.512	3.91238
729.96	300.00	4.349	92.498	-7.95404
730.96	300.00	4.349	92.493	-11.9920
731.96	300.00	4.349	92.485	-12.0778
732.96	300.00	4.348	92.470	-8.29015
733.96	300.00	4.348	92.461	-8.59787
734.96	300.00	4.347	92.451	-10.0888
735.96	300.00	4.347	92.443	-7.31674
736.96	300.00	4.345	92.400	-5.67974
737.96	300.00	4.346	92.426	-0.650291
738.96	300.00	4.345	92.411	3.37937
739.96	300.00	4.345	92.403	5.36236
740.96	300.00	4.344	92.393	10.1880
741.96	300.00	4.344	92.390	15.0424
742.96	300.00	4.344	92.380	11.7342
743.96	300.00	4.343	92.370	5.41262
744.96	300.00	4.343	92.356	3.53485
745.96	300.00	4.342	92.335	-0.957631
746.96	300.00	4.342	92.333	-5.21224
747.96	300.00	4.340	92.308	-10.1260
748.96	300.00	4.340	92.311	-10.6161
749.96	300.00	4.340	92.300	-6.07980
750.96	300.00	4.340	92.293	-8.47718
751.96	300.00	4.339	92.275	-12.8694
752.96	300.00	4.338	92.264	-13.9889
753.96	300.00	4.338	92.260	-14.6983
754.96	300.00	4.338	92.248	-14.0891
755.96	300.00	4.337	92.239	-8.47336
756.96	300.00	4.337	92.232	-6.80956
757.96	300.00	4.336	92.220	-0.691555
758.96	300.00	4.336	92.213	-0.0752985
759.96	300.00	4.335	92.202	-2.61884
760.96	300.00	4.335	92.195	-9.56257
761.96	300.00	4.333	92.163	-12.4974
762.96	300.00	4.334	92.170	-9.77180
763.96	300.00	4.333	92.158	-6.53611
764.96	300.00	4.333	92.147	-3.87619
765.96	300.00	4.332	92.139	2.90100
766.96	300.00	4.332	92.138	5.05783
767.96	300.00	4.332	92.124	2.78978
768.96	300.00	4.331	92.117	0.817909
769.96	300.00	4.330	92.094	-5.06671
770.96	300.00	4.330	92.095	-8.54143
771.96	300.00	4.330	92.082	-2.59638
772.96	300.00	4.329	92.071	5.87554
773.96	300.00	4.329	92.066	12.0444
774.96	300.00	4.329	92.057	17.2447
775.96	300.00	4.328	92.042	23.3065
776.96	300.00	4.327	92.030	24.2943
777.96	300.00	4.327	92.026	22.7358
778.96	300.00	4.327	92.016	21.6375
779.96	300.00	4.326	92.007	20.8192
780.96	300.00	4.326	91.997	10.8531
781.96	300.00	4.325	91.987	2.59306
782.96	300.00	4.325	91.977	-1.36034
783.96	300.00	4.324	91.966	-10.2380
784.96	300.00	4.324	91.963	-16.5418
785.96	300.00	4.324	91.954	-20.9704
786.96	300.00	4.323	91.944	-21.5025
787.96	300.00	4.323	91.934	-18.9403
788.96	300.00	4.322	91.924	-15.2152
789.96	300.00	4.322	91.910	-12.3596
790.96	300.00	4.321	91.899	-6.87726
791.96	300.00	4.320	91.883	-2.83884
792.96	300.00	4.320	91.879	2.00499
793.96	300.00	4.319	91.862	9.91660
794.96	300.00	4.320	91.874	13.8040
795.96	300.00	4.319	91.857	17.2797
796.96	300.00	4.319	91.845	12.5657
797.96	300.00	4.318	91.833	9.53419
798.96	300.00	4.318	91.827	8.68926
799.96	300.00	4.318	91.832	5.56884
800.96	300.00	4.317	91.815	-5.23838
801.96	300.00	4.316	91.801	-12.0924
802.96	300.00	4.316	91.789	-13.9492
803.96	300.00	4.316	91.780	-13.5878
804.96	300.00	4.315	91.773	-7.57603
805.96	300.00	4.315	91.765	2.98086
806.96	300.00	4.314	91.756	7.29161
807.96	300.00	4.314	91.747	14.6950
808.96	300.00	4.314	91.738	18.3518
809.96	300.00	4.313	91.728	15.4986
810.96	300.00	4.313	91.719	16.0621
811.96	300.00	4.312	91.704	16.3548
812.96	300.00	4.312	91.697	11.4571
813.96	300.00	4.311	91.693	2.66186
814.96	300.00	4.311	91.677	5.35204
815.96	300.00	4.311	91.680	11.8800
816.96	300.00	4.310	91.663	8.13179
817.96	300.00	4.310	91.656	-9.35034
818.96	300.00	4.309	91.644	-16.1779
819.96	300.00	4.309	91.650	-13.4140
820.96	300.00	4.308	91.617	-15.4966
821.96	300.00	4.308	91.618	-4.93657
822.96	300.00	4.307	91.610	-0.399795
823.96	300.00	4.307	91.601	-3.53086
824.96	300.00	4.307	91.598	0.823924
825.96	300.00	4.306	91.580	3.06864
826.96	300.00	4.306	91.574	-1.69596
827.96	300.00	4.305	91.565	-11.7776
828.96	300.00	4.305	91.558	-16.3934
829.96	300.00	4.305	91.549	-19.2213
830.96	300.00	4.304	91.539	-19.2214
831.96	300.00	4.304	91.531	-11.2695
832.96	300.00	4.304	91.526	-3.82158
833.96	300.00	4.303	91.518	-1.18225
834.96	300.00	4.303	91.506	-5.15714
835.96	300.00	4.302	91.499	-4.55307
836.96	300.00	4.302	91.486	2.70102
837.96	300.00	4.301	91.482	3.38729
838.96	300.00	4.301	91.470	2.94253
839.96	300.00	4.301	91.462	-0.868785
840.96	300.00	4.300	91.451	-2.53453
841.96	300.00	4.300	91.445	0.115929
842.96	300.00	4.299	91.439	5.27031
843.96	300.00	4.299	91.431	8.98892
844.96	300.00	4.298	91.415	7.03611
845.96	300.00	4.298	91.415	1.84245
846.96	300.00	4.298	91.400	-2.92320
847.96	300.00	4.297	91.395	-5.02709
848.96	300.00	4.297	91.376	1.67733
849.96	300.00	4.297	91.384	5.87879
850.96	300.00	4.296	91.368	-4.70635
851.96	300.00	4.296	91.360	-5.52297
852.96	300.00	4.296	91.355	-5.51030
853.96	300.00	4.295	91.343	3.05074
854.96	300.00	4.295	91.336	2.81318
855.96	300.00	4.294	91.329	-3.53888
856.96	300.00	4.294	91.320	-6.84869
857.96	300.00	4.294	91.316	-4.41232
858.96	300.00	4.293	91.303	-2.90540
859.96	300.00	4.292	91.288	4.59103
860.96	300.00	4.292	91.285	6.41475
861.96	300.00	4.292	91.277	10.3129
862.96	300.00	4.292	91.273	10.4938
863.96	300.00	4.291	91.262	8.07648
864.96	300.00	4.291	91.254	4.67329
865.96	300.00	4.290	91.241	3.06824
866.96	300.00	4.290	91.240	0.636274
867.96	300.00	4.289	91.223	0.221583
868.96	300.00	4.289	91.218	5.48793
869.96	300.00	4.289	91.211	6.08431
870.96	300.00	4.288	91.201	4.41662
871.96	300.00	4.288	91.195	6.92124
872.96	300.00	4.287	91.173	11.0840
873.96	300.00	4.287	91.173	10.5882
874.96	300.00	4.287	91.164	10.0407
875.96	300.00	4.286	91.163	12.3577
876.96	300.00	4.286	91.150	11.2372
877.96	300.00	4.286	91.147	2.40921
878.96	300.00	4.285	91.135	2.97411
879.96	300.00	4.285	91.130	3.70285
880.96	300.00	4.285	91.122	0.788303
881.96	300.00	4.284	91.111	-4.38280
882.96	300.00	4.284	91.102	-10.9803
883.96	300.00	4.283	91.098	-12.2476
884.96	300.00	4.283	91.091	-10.0631
885.96	300.00	4.283	91.078	-10.1563
886.96	300.00	4.282	91.075	-11.8115
887.96	300.00	4.282	91.058	-12.7774
888.96	300.00	4.281	91.048	-5.21332
889.96	300.00	4.281	91.050	3.53237
890.96	300.00	4.281	91.040	13.3801
891.96	300.00	4.281	91.037	14.9642
892.96	300.00	4.280	91.025	17.3870
893.96	300.00	4.279	91.004	17.2659
894.96	300.00	4.279	91.003	16.9322
895.96	300.00	4.279	91.001	12.8828
896.96	300.00	4.278	90.988	7.88964
897.96	300.00	4.278	90.982	0.697451
898.96	300.00	4.277	90.971	-3.19182
899.96	300.00	4.277	90.960	-3.94180
900.96	300.00	4.276	90.950	-4.19104
901.96	300.00	4.276	90.945	-3.91870
902.96	300.00	4.276	90.936	-5.67306
903.96	300.00	4.275	90.928	-7.63464
904.96	300.00	4.275	90.916	-7.14888
905.96	300.00	4.275	90.913	-6.74490
906.96	300.00	4.274	90.907	-4.58715
907.96	300.00	4.274	90.895	-1.81433
908.96	300.00	4.273	90.885	-2.65356
909.96	300.00	4.273	90.874	-1.21508
910.96	300.00	4.273	90.868	2.89392
911.96	300.00	4.272	90.862	11.3291
912.96	300.00	4.272	90.848	8.02618
913.96	300.00	4.272	90.846	7.25363
914.96	300.00	4.271	90.834	2.02317
915.96	300.00	4.271	90.828	0.219927
916.96	300.00	4.270	90.808	-4.30087
917.96	300.00	4.270	90.807	-11.1881
918.96	300.00	4.269	90.799	-12.0084
919.96	300.00	4.269	90.785	-2.62527
920.96	300.00	4.269	90.781	7.27023
921.96	300.00	4.267	90.756	15.4174
922.96	300.00	4.267	90.759	8.33113
923.96	300.00	4.267	90.754	-5.63815
924.96	300.00	4.267	90.742	-10.5382
925.96	300.00	4.266	90.738	-13.6089
926.96	300.00	4.266	90.727	-14.7695
927.96	300.00	4.266	90.721	-13.6862
928.96	300.00	4.265	90.710	-11.6269
929.96	300.00	4.265	90.703	-10.2877
930.96	300.00	4.265	90.701	-9.58679
931.96	300.00	4.264	90.692	-8.20255
932.96	300.00	4.264	90.687	-4.30001
933.96	300.00	4.263	90.669	-0.356887
934.96	300.00	4.263	90.663	1.58841
935.96	300.00	4.263	90.660	3.75206
936.96	300.00	4.262	90.644	8.57919
937.96	300.00	4.262	90.644	14.2469
938.96	300.00	4.262	90.633	17.4020
939.96	300.00	4.261	90.629	17.8636
940.96	300.00	4.261	90.620	17.7004
941.96	300.00	4.260	90.604	17.5040
942.96	300.00	4.260	90.601	17.1250
943.96	300.00	4.260	90.592	14.7811
944.96	300.00	4.259	90.585	14.8370
945.96	300.00	4.259	90.581	14.7837
946.96	300.00	4.258	90.567	13.3734
947.96	300.00	4.258	90.562	6.15004
948.96	300.00	4.258	90.559	-5.15381
949.96	300.00	4.258	90.547	-9.03092
950.96	300.00	4.257	90.538	0.605336
951.96	300.00	4.257	90.532	-1.89176
952.96	300.00	4.257	90.526	-2.56744
953.96	300.00	4.256	90.516	-2.30094
954.96	300.00	4.256	90.509	3.57476
955.96	300.00	4.255	90.492	2.25540
956.96	300.00	4.255	90.495	2.08289
957.96	300.00	4.255	90.486	0.516070
958.96	300.00	4.254	90.471	-1.61051
959.96	300.00	4.254	90.476	1.56840
960.96	300.00	4.254	90.463	-4.50766
961.96	300.00	4.253	90.454	-4.06607
962.96	300.00	4.253	90.447	-3.25717
963.96	300.00	4.253	90.445	-7.03325
964.96	300.00	4.252	90.420	-9.79195
965.96	300.00	4.251	90.414	-18.4659
966.96	300.00	4.252	90.420	-18.5601
967.96	300.00	4.251	90.402	-19.0551
968.96	300.00	4.250	90.395	-19.6304
969.96	300.00	4.251	90.401	-18.0703
970.96	300.00	4.250	90.384	-18.5039
971.96	300.00	4.249	90.364	-16.3544
972.96	300.00	4.249	90.365	-15.6512
973.96	300.00	4.249	90.359	-13.3064
974.96	300.00	4.248	90.350	-7.57706
975.96	300.00	4.248	90.342	3.40710
976.96	300.00	4.247	90.332	8.28097
977.96	300.00	4.247	90.325	8.62094
978.96	300.00	4.247	90.317	12.1356
979.96	300.00	4.247	90.313	14.2533
980.96	300.00	4.246	90.301	15.0229
981.96	300.00	4.246	90.295	16.6415
982.96	300.00	4.245	90.289	16.9021
983.96	300.00	4.245	90.280	18.1012
984.96	300.00	4.244	90.267	17.3700
985.96	300.00	4.244	90.258	15.1636
986.96	300.00	4.244	90.253	14.3547
987.96	300.00	4.243	90.249	10.9684
988.96	300.00	4.243	90.231	6.18410
989.96	300.00	4.243	90.229	-8.01190
990.96	300.00	4.243	90.235	-14.9133
991.96	300.00	4.243	90.228	-17.3689
992.96	300.00	4.242	90.214	-15.4009
993.96	300.00	4.242	90.208	-11.7812
994.96	300.00	4.241	90.197	-9.49533
995.96	300.00	4.241	90.189	-8.93148
996.96	300.00	4.240	90.181	-9.88174
997.96	300.00	4.240	90.175	-6.54718
998.96	300.00	4.240	90.168	0.0105239
999.96	300.00	4.239	90.158	3.90076
1000.96	300.00	4.239	90.148	11.9129
1001.96	300.00	4.238	90.141	15.7161
1002.96	300.00	4.238	90.130	18.9044
1003.96	300.00	4.237	90.114	22.7999
1004.96	300.00	4.237	90.116	24.0102
1005.96	300.00	4.238	90.123	22.8440
1006.96	300.00	4.237	90.107	17.1232
1007.96	300.00	4.236	90.097	12.2663
1008.96	300.00	4.236	90.090	0.481671
1009.96	300.00	4.236	90.085	-7.52934
1010.96	300.00	4.235	90.068	-12.3994
1011.96	300.00	4.235	90.071	-14.4569
1012.96	300.00	4.234	90.054	-18.5058
1013.96	300.00	4.234	90.049	-19.7952
1014.96	300.00	4.234	90.041	-20.9728
1015.96	300.00	4.234	90.037	-22.1490
1016.96	300.00	4.233	90.026	-23.2345
1017.96	300.00	4.233	90.020	-22.3735
1018.96	300.00	4.232	90.008	-18.0472
1019.96	300.00	4.232	90.001	-15.4177
1020.96	300.00	4.231	89.991	-1.83862
1021.96	300.00	4.231	89.986	10.8505
1022.96	300.00	4.231	89.974	14.8783
1023.96	300.00	4.230	89.970	16.0888
1024.96	300.00	4.230	89.961	17.8525
1025.96	300.00	4.230	89.951	18.0318
1026.96	300.00	4.229	89.948	18.0170
1027.96	300.00	4.229	89.935	17.6529
1028.96	300.00	4.228	89.925	16.4480
1029.96	300.00	4.228	89.923	14.9983
1030.96	300.00	4.228	89.915	14.3325
1031.96	300.00	4.227	89.907	12.7735
1032.96	300.00	4.227	89.897	9.98258
1033.96	300.00	4.228	89.910	4.48637
1034.96	300.00	4.226	89.879	-3.74757
1035.96	300.00	4.226	89.871	-10.6778
1036.96	300.00	4.225	89.860	-17.7944
1037.96	300.00	4.225	89.864	-14.6427
1038.96	300.00	4.225	89.850	-6.67299
1039.96	300.00	4.225	89.846	1.05839
1040.96	300.00	4.224	89.832	-0.593974
1041.96	300.00	4.223	89.823	0.219078
1042.96	300.00	4.223	89.816	4.02100
1043.96	300.00	4.223	89.809	-1.67643
1044.96	300.00	4.222	89.788	-6.53896
1045.96	300.00	4.222	89.793	-11.6662
1046.96	300.00	4.222	89.782	-15.3180
1047.96	300.00	4.221	89.776	-14.7197
1048.96	300.00	4.221	89.767	-15.8063
1049.96	300.00	4.220	89.758	-16.0546
1050.96	300.00	4.220	89.746	-16.5504
1051.96	300.00	4.220	89.739	-17.8297
1052.96	300.00	4.221	89.766	-18.3266
1053.96	300.00	4.219	89.719	-18.1387
1054.96	300.00	4.218	89.713	-17.6941
1055.96	300.00	4.218	89.701	-17.8008
1056.96	300.00	4.218	89.698	-18.0003
1057.96	300.00	4.217	89.693	-17.3932
1058.96	300.00	4.216	89.673	-15.1585
1059.96	300.00	4.217	89.682	-11.1650
1060.96	300.00	4.216	89.656	-6.75903
1061.96	300.00	4.215	89.646	-7.39529
1062.96	300.00	4.215	89.638	1.97357
1063.96	300.00	4.214	89.628	7.81720
1064.96	300.00	4.214	89.629	5.57055
1065.96	300.00	4.214	89.612	5.33440
1066.96	300.00	4.214	89.612	8.89278
1067.96	300.00	4.213	89.609	15.0979
1068.96	300.00	4.213	89.593	18.0764
1069.96	300.00	4.212	89.588	20.3265
1070.96	300.00	4.212	89.586	23.0704
1071.96	300.00	4.212	89.575	22.7292
1072.96	300.00	4.211	89.565	22.3954
1073.96	300.00	4.211	89.560	21.8951
1074.96	300.00	4.211	89.552	20.6546
1075.96	300.00	4.210	89.545	19.2414
1076.96	300.00	4.210	89.540	17.0007
1077.96	300.00	4.210	89.529	12.4705
1078.96	300.00	4.209	89.517	10.8238
1079.96	300.00	4.209	89.519	15.0925
1080.96	300.00	4.209	89.514	18.5947
1081.96	300.00	4.209	89.509	18.5622
1082.96	300.00	4.208	89.497	18.5694
1083.96	300.00	4.208	89.495	19.0499
1084.96	300.00	4.207	89.475	19.2536
1085.96	300.00	4.208	89.489	18.2642
1086.96	300.00	4.207	89.473	21.2389
1087.96	300.00	4.207	89.463	21.3311
1088.96	300.00	4.206	89.460	20.9216
1089.96	300.00	4.206	89.456	22.0335
1090.96	300.00	4.206	89.448	22.2569
1091.96	300.00	4.206	89.451	21.1028
1092.96	300.00	4.205	89.438	18.9350
1093.96	300.00	4.205	89.423	13.6936
1094.96	300.00	4.204	89.416	5.65523
1095.96	300.00	4.204	89.407	-3.21952
1096.96	300.00	4.204	89.404	-2.23546
1097.96	300.00	4.203	89.392	2.16592
1098.96	300.00	4.203	89.391	0.341351
1099.96	300.00	4.203	89.379	-7.79052
1100.96	300.00	4.202	89.372	-12.4712
1101.96	300.00	4.202	89.371	-13.3084
1102.96	300.00	4.202	89.362	-15.0671
1103.96	300.00	4.201	89.349	-15.0862
1104.96	300.00	4.201	89.339	-15.5087
1105.96	300.00	4.200	89.331	-15.8716
1106.96	300.00	4.200	89.322	-15.5472
1107.96	300.00	4.199	89.301	-14.8061
1108.96	300.00	4.200	89.315	-13.3079
1109.96	300.00	4.199	89.306	-11.8897
1110.96	300.00	4.198	89.278	-11.0438
1111.96	300.00	4.198	89.279	-9.44378
1112.96	300.00	4.198	89.281	-8.90000
1113.96	300.00	4.197	89.268	-6.04913
1114.96	300.00	4.197	89.256	1.93141
1115.96	300.00	4.196	89.243	14.0028
1116.96	300.00	4.196	89.239	18.5591
1117.96	300.00	4.195	89.226	19.4986
1118.96	300.00	4.195	89.226	12.6321
1119.96	300.00	4.195	89.218	10.7108
1120.96	300.00	4.195	89.210	11.1482
1121.96	300.00	4.194	89.202	13.2321
1122.96	300.00	4.194	89.193	13.2826
1123.96	300.00	4.194	89.186	14.6779
1124.96	300.00	4.193	89.181	16.0355
1125.96	300.00	4.193	89.176	16.7330
1126.96	300.00	4.193	89.168	17.3276
1127.96	300.00	4.192	89.157	15.6625
1128.96	300.00	4.192	89.149	14.1104
1129.96	300.00	4.191	89.142	9.51482
1130.96	300.00	4.191	89.134	4.35577
1131.96	300.00	4.192	89.143	2.91292
1132.96	300.00	4.190	89.118	2.43335
1133.96	300.00	4.190	89.119	-0.303497
1134.96	300.00	4.190	89.111	-2.04253
1135.96	300.00	4.189	89.100	-6.86463
1136.96	300.00	4.189	89.099	-9.03252
1137.96	300.00	4.189	89.088	-4.12529
1138.96	300.00	4.189	89.082	0.365686
1139.96	300.00	4.188	89.073	3.79764
1140.96	300.00	4.188	89.065	9.98141
1141.96	300.00	4.187	89.052	17.0492
1142.96	300.00	4.187	89.050	20.9525
1143.96	300.00	4.187	89.052	22.1293
1144.96	300.00	4.187	89.040	21.1355
1145.96	300.00	4.186	89.026	22.2505
1146.96	300.00	4.186	89.019	22.8147
1147.96	300.00	4.185	89.011	21.3025
1148.96	300.00	4.185	89.008	14.7552
1149.96	300.00	4.184	88.982	-2.26514
1150.96	300.00	4.184	88.985	-11.4037
1151.96	300.00	4.184	88.977	-15.2871
1152.96	300.00	4.183	88.970	-17.6735
1153.96	300.00	4.183	88.959	-19.1894
1154.96	300.00	4.182	88.944	-18.9042
1155.96	300.00	4.182	88.944	-18.1737
1156.96	300.00	4.182	88.932	-18.4418
1157.96	300.00	4.181	88.924	-18.4869
1158.96	300.00	4.181	88.912	-18.4178
1159.96	300.00	4.181	88.913	-18.7046
1160.96	300.00	4.180	88.908	-18.3026
1161.96	300.00	4.180	88.892	-17.9535
1162.96	300.00	4.179	88.884	-16.3336
1163.96	300.00	4.179	88.876	-13.4695
1164.96	300.00	4.178	88.865	-12.4224
1165.96	300.00	4.178	88.864	-7.18683
1166.96	300.00	4.178	88.854	-1.20981
1167.96	300.00	4.177	88.843	4.89351
1168.96	300.00	4.177	88.836	8.72788
1169.96	300.00	4.176	88.823	14.5879
1170.96	300.00	4.176	88.822	15.8906
1171.96	300.00	4.176	88.812	15.7928
1172.96	300.00	4.176	88.804	17.7773
1173.96	300.00	4.175	88.800	17.4020
1174.96	300.00	4.175	88.789	17.6833
1175.96	300.00	4.175	88.783	18.0553
1176.96	300.00	4.174	88.769	18.0224
1177.96	300.00	4.174	88.770	16.8890
1178.96	300.00	4.173	88.754	15.3956
1179.96	300.00	4.173	88.756	12.7039
1180.96	300.00	4.173	88.743	7.38416
1181.96	300.00	4.172	88.736	0.835068
1182.96	300.00	4.172	88.734	-3.12661
1183.96	300.00	4.172	88.725	-7.75527
1184.96	300.00	4.171	88.711	-10.1651
1185.96	300.00	4.171	88.700	-11.6758
1186.96	300.00	4.171	88.702	-8.96026
1187.96	300.00	4.170	88.690	-7.71797
1188.96	300.00	4.170	88.694	-5.07834
1189.96	300.00	4.170	88.677	3.75141
1190.96	300.00	4.169	88.668	2.17963
1191.96	300.00	4.169	88.660	2.04103
1192.96	300.00	4.168	88.652	3.50043
1193.96	300.00	4.168	88.644	2.45760
1194.96	300.00	4.168	88.635	2.47463
1195.96	300.00	4.167	88.623	-1.44660
1196.96	300.00	4.167	88.620	-6.11543
1197.96	300.00	4.166	88.607	-14.6075
1198.96	300.00	4.166	88.594	-16.5178
1199.96	300.00	4.165	88.580	-16.6674
1200.96	300.00	4.165	88.583	-18.2165
1201.96	300.00	4.165	88.573	-17.4536
1202.96	300.00	4.164	88.563	-17.5019
1203.96	300.00	4.164	88.552	-15.6218
1204.96	300.00	4.163	88.537	-10.7311
1205.96	300.00	4.164	88.553	-2.78645
1206.96	300.00	4.163	88.533	4.23125
1207.96	300.00	4.162	88.519	3.06342
1208.96	300.00	4.161	88.500	3.44572
1209.96	300.00	4.161	88.489	2.80351
1210.96	300.00	4.161	88.498	4.54713
1211.96	300.00	4.161	88.494	12.1999
1212.96	300.00	4.160	88.478	13.5989
1213.96	300.00	4.160	88.476	18.2015
1214.96	300.00	4.160	88.464	17.4196
1215.96	300.00	4.159	88.451	16.8480
1216.96	300.00	4.159	88.444	13.9006
1217.96	300.00	4.158	88.430	10.5451
1218.96	300.00	4.158	88.437	7.06062
1219.96	300.00	4.157	88.420	0.324270
1220.96	300.00	4.157	88.402	-1.06124
1221.96	300.00	4.157	88.407	0.362396
1222.96	300.00	4.157	88.403	5.21102
1223.96	300.00	4.156	88.396	5.01470
1224.96	300.00	4.156	88.381	4.23757
1225.96	300.00	4.155	88.374	-0.699298
1226.96	300.00	4.155	88.366	-1.56327
1227.96	300.00	4.155	88.361	-0.645826
1228.96	300.00	4.154	88.345	2.87406
1229.96	300.00	4.154	88.346	3.55553
1230.96	300.00	4.153	88.334	12.4620
1231.96	300.00	4.153	88.331	19.7718
1232.96	300.00	4.153	88.317	16.3754
1233.96	300.00	4.152	88.309	9.87843
1234.96	300.00	4.152	88.302	5.04092
1235.96	300.00	4.152	88.295	-1.67139
1236.96	300.00	4.151	88.287	-8.74009
1237.96	300.00	4.151	88.284	-12.7126
1238.96	300.00	4.151	88.272	-14.8920
1239.96	300.00	4.150	88.260	-16.3471
1240.96	300.00	4.149	88.248	-15.1781
1241.96	300.00	4.149	88.248	-12.1397
1242.96	300.00	4.149	88.239	-6.87813
1243.96	300.00	4.148	88.221	-3.57991
1244.96	300.00	4.148	88.216	-0.368926
1245.96	300.00	4.148	88.213	1.42932
1246.96	300.00	4.147	88.201	2.93877
1247.96	300.00	4.147	88.204	10.9765
1248.96	300.00	4.146	88.174	14.8960
1249.96	300.00	4.146	88.179	15.4770
1250.96	300.00	4.146	88.169	15.8432
1251.96	300.00	4.146	88.168	15.7682
1252.96	300.00	4.145	88.149	14.5181
1253.96	300.00	4.145	88.147	13.7161
1254.96	300.00	4.144	88.135	10.7077
1255.96	300.00	4.144	88.132	-0.0838874
1256.96	300.00	4.144	88.123	-0.0101804
1257.96	300.00	4.143	88.110	-4.80780e-3
1258.96	300.00	4.143	88.109	-3.51977e-3
1259.96	300.00	4.142	88.095	-3.55640e-3
1260.96	300.00	4.142	88.084	-4.26187e-3
1261.96	300.00	4.142	88.083	-5.70465e-3
1262.96	300.00	4.141	88.062	-8.24186e-3
1263.96	300.21	4.141	88.072	-0.0126487
1264.96	304.25	4.142	88.087	-0.0202593
1265.96	312.28	4.141	88.066	-0.0332917
1266.96	321.32	4.140	88.048	-0.0560797
1267.96	330.60	4.138	87.999	-0.0963775
1268.96	340.11	4.133	87.899	-0.165300
1269.96	349.94	4.125	87.730	-0.268769
1270.96	359.99	4.109	87.397	-0.388344
1271.96	370.18	4.079	86.742	-0.494147
1272.96	380.38	4.016	85.416	-0.582740
1273.96	390.56	3.897	82.872	-0.654469
1274.96	400.69	3.662	77.885	-0.706181
1275.96	410.76	3.204	68.133	-0.737081
1276.96	420.80	2.378	50.577	-0.747273
1277.96	430.83	1.210	25.743	-0.736548
1278.96	440.88	0.292	6.213	-0.704471
1279.96	450.90	0.060	1.281	-0.650954
1280.96	460.91	0.028	0.586	-0.576665
1281.96	470.94	0.020	0.418	-0.483351
1282.96	480.97	0.016	0.331	-0.374585
1283.96	491.01	0.016	0.341	-0.257303
1284.96	501.05	0.016	0.333	-0.144574
1285.96	511.08	0.015	0.320	-0.0570450
1286.96	521.10	0.016	0.332	-0.0128506
1287.96	531.13	0.016	0.332	-2.36843e-3
1288.96	541.15	0.015	0.324	-6.32079e-4
1289.96	551.18	0.016	0.334	-1.39144e-4
1290.96	561.21	0.015	0.325	5.90866e-5
1291.96	571.23	0.015	0.328	1.36579e-4
1292.96	581.25	0.015	0.326	2.22375e-4
1293.96	591.27	0.016	0.333	3.09838e-4
1294.96	601.29	0.016	0.334	3.99376e-4
1295.96	611.32	0.015	0.330	4.79387e-4
1296.96	621.33	0.016	0.331	5.62921e-4
1297.96	631.35	0.017	0.355	6.18708e-4
1298.96	641.37	0.017	0.356	6.81763e-4
1299.96	651.39	0.017	0.368	7.56452e-4
1300.96	661.41	0.018	0.375	8.12402e-4
1301.96	671.42	0.018	0.385	8.45793e-4
1302.96	681.44	0.019	0.394	8.71346e-4
1303.96	691.46	0.019	0.395	8.88102e-4
1304.96	701.47	0.020	0.424	9.16970e-4
1305.96	711.49	0.020	0.427	9.17324e-4
1306.96	721.50	0.019	0.410	9.27539e-4
1307.96	731.51	0.021	0.454	9.32340e-4
1308.96	741.53	0.021	0.439	9.23973e-4
1309.96	751.54	0.021	0.454	9.32866e-4
1310.96	761.56	0.022	0.466	9.27620e-4
1311.96	771.57	0.023	0.486	9.36935e-4
1312.96	781.58	0.023	0.490	9.42179e-4
1313.46	786.58	0.023	0.498	9.76016e-4