File: data/TGA/005d-L_M/F10_000002 -temp_104 AMU_XIC
Time	Ion Current
min	mA
0.00	1.00000e-13
0.97	1.00000e-13
1.94	1.00000e-13
2.91	1.00000e-13
3.88	1.00000e-13
4.85	1.00000e-13
5.82	1.00000e-13
6.79	1.00000e-13
7.76	1.00000e-13
8.73	1.00000e-13
9.70	1.00000e-13
10.67	1.00000e-13
11.64	1.00000e-13
12.61	1.00000e-13
13.58	1.00000e-13
14.55	1.00000e-13
15.52	1.00000e-13
16.49	5.32926e-6
17.46	1.00000e-13
18.43	1.00000e-13
19.40	1.00000e-13
20.36	1.62195e-6
21.34	1.00000e-13
22.30	1.00000e-13
23.28	1.00000e-13
24.25	1.00000e-13
25.21	1.00000e-13
26.19	1.00000e-13
27.16	1.00000e-13
28.13	1.00000e-13
29.09	1.00000e-13
30.07	1.00000e-13
31.03	1.00000e-13
32.00	1.00000e-13
32.97	1.00000e-13
33.95	1.00000e-13
34.92	1.00000e-13
35.89	1.00000e-13
36.85	1.00000e-13
37.83	1.00000e-13
38.80	1.00000e-13
39.77	1.00000e-13
40.74	1.00000e-13
41.70	1.00000e-13
42.67	1.00000e-13
43.64	1.00000e-13
44.61	1.00000e-13
45.58	2.78048e-6
46.55	1.00000e-13
47.52	1.00000e-13
48.49	1.00000e-13
49.46	1.00000e-13
50.43	1.00000e-13
51.41	1.00000e-13
52.37	2.02744e-5
53.34	1.00000e-13
54.31	1.00000e-13
55.28	1.00000e-13
56.25	1.00000e-13
57.22	1.00000e-13
58.19	1.00000e-13
59.16	1.00000e-13
60.13	1.00000e-13
61.10	1.00000e-13
62.07	1.00000e-13
63.05	1.00000e-13
64.01	1.00000e-13
64.98	1.00000e-13
65.95	1.00000e-13
66.92	1.99268e-5
67.89	1.00000e-13
68.86	2.50244e-5
69.83	1.00000e-13
70.80	1.00000e-13
71.77	1.00000e-13
72.74	1.00000e-13
73.71	1.00000e-13
74.68	1.00000e-13
75.66	1.00000e-13
76.62	1.00000e-13
77.59	1.00000e-13
78.56	1.39024e-6
79.53	1.00000e-13
80.50	1.00000e-13
81.47	1.00000e-13
82.44	1.00000e-13
83.41	1.00000e-13
84.38	1.00000e-13
85.35	1.00000e-13
86.32	1.00000e-13
87.29	1.00000e-13
88.26	1.00000e-13
89.23	1.00000e-13
90.20	1.00000e-13
91.17	1.00000e-13
92.14	1.00000e-13
93.11	1.00000e-13
94.08	1.00000e-13
95.05	1.00000e-13
96.02	1.00000e-13
96.99	1.00000e-13
97.96	1.72622e-5
98.93	1.00000e-13
99.90	1.00000e-13
100.87	1.00000e-13
101.84	1.00000e-13
102.81	1.00000e-13
103.78	1.00000e-13
104.75	2.78048e-6
105.72	1.00000e-13
106.69	1.00000e-13
107.66	1.00000e-13
108.63	1.00000e-13
109.60	1.00000e-13
110.56	1.00000e-13
111.54	1.00000e-13
112.51	1.00000e-13
113.48	1.00000e-13
114.45	1.00000e-13
115.42	1.00000e-13
116.39	1.00000e-13
117.35	1.00000e-13
118.33	1.00000e-13
119.30	6.25609e-6
120.27	1.00000e-13
121.24	1.00000e-13
122.21	1.00000e-13
123.17	1.00000e-13
124.15	1.00000e-13
125.11	1.00000e-13
126.08	2.08536e-6
127.06	4.63414e-7
128.03	1.00000e-13
128.99	1.00000e-13
129.96	1.00000e-13
130.93	1.00000e-13
131.91	1.00000e-13
132.88	1.00000e-13
133.85	1.00000e-13
134.81	1.00000e-13
135.78	1.55244e-5
136.75	1.35549e-5
137.72	1.00000e-13
138.69	1.00000e-13
139.66	1.00000e-13
140.63	1.00000e-13
141.60	1.00000e-13
142.57	1.00000e-13
143.54	1.00000e-13
144.51	1.00000e-13
145.49	1.00000e-13
146.45	1.00000e-13
147.42	1.00000e-13
148.39	1.00000e-13
149.36	1.00000e-13
150.33	1.00000e-13
151.30	1.00000e-13
152.27	1.00000e-13
153.24	1.00000e-13
154.21	1.00000e-13
155.18	1.00000e-13
156.15	1.00000e-13
157.12	1.00000e-13
158.09	1.00000e-13
159.06	1.00000e-13
160.03	1.00000e-13
161.00	1.00000e-13
161.97	9.26828e-7
162.94	1.00000e-13
163.91	1.00000e-13
164.88	1.00000e-13
165.85	1.62195e-6
166.82	1.00000e-13
167.79	2.59512e-5
168.76	1.00000e-13
169.73	1.00000e-13
170.70	1.00000e-13
171.67	1.00000e-13
172.64	1.00000e-13
173.61	1.00000e-13
174.58	1.00000e-13
175.55	1.00000e-13
176.52	1.00000e-13
177.49	2.66463e-6
178.46	1.00000e-13
179.43	1.73780e-6
180.40	1.00000e-13
181.37	1.00000e-13
182.34	1.00000e-13
183.31	3.08170e-5
184.28	1.00000e-13
185.25	1.00000e-13
186.22	1.00000e-13
187.19	1.00000e-13
188.16	1.00000e-13
189.13	1.00000e-13
190.10	1.00000e-13
191.07	1.00000e-13
192.04	1.00000e-13
193.01	1.00000e-13
193.98	1.00000e-13
194.95	1.48292e-5
195.92	1.00000e-13
196.89	1.00000e-13
197.86	1.00000e-13
198.83	1.00000e-13
199.79	1.00000e-13
200.77	1.00000e-13
201.74	1.00000e-13
202.71	1.00000e-13
203.67	1.00000e-13
204.64	1.00000e-13
205.61	1.00000e-13
206.58	1.00000e-13
207.55	1.00000e-13
208.52	1.00000e-13
209.49	1.00000e-13
210.46	1.00000e-13
211.43	1.00000e-13
212.40	1.00000e-13
213.37	1.00000e-13
214.34	1.00000e-13
215.32	1.00000e-13
216.28	1.00000e-13
217.26	1.00000e-13
218.23	1.00000e-13
219.20	1.00000e-13
220.17	1.00000e-13
221.14	1.00000e-13
222.10	1.00000e-13
223.07	1.00000e-13
224.04	1.00000e-13
225.01	1.00000e-13
225.98	1.00000e-13
226.95	1.00000e-13
227.92	1.00000e-13
228.89	2.69939e-5
229.86	1.00000e-13
230.83	1.00000e-13
231.80	1.00000e-13
232.77	1.00000e-13
233.74	1.00000e-13
234.71	1.00000e-13
235.68	1.00000e-13
236.65	1.00000e-13
237.62	1.00000e-13
238.59	1.00000e-13
239.56	1.18171e-5
240.53	1.00000e-13
241.50	1.00000e-13
242.47	1.00000e-13
243.44	1.00000e-13
244.41	1.00000e-13
245.38	1.00000e-13
246.35	1.00000e-13
247.32	1.00000e-13
248.29	1.00000e-13
249.26	1.00000e-13
250.23	1.00000e-13
251.20	1.00000e-13
252.17	1.00000e-13
253.14	1.00000e-13
254.11	1.00000e-13
255.08	1.00000e-13
256.05	1.00000e-13
257.02	1.00000e-13
257.99	1.00000e-13
258.96	1.00000e-13
259.93	1.00000e-13
260.90	1.00000e-13
261.87	2.75731e-5
262.84	1.00000e-13
263.81	1.00000e-13
264.78	1.00000e-13
265.75	1.00000e-13
266.72	1.00000e-13
267.69	1.00000e-13
268.66	1.00000e-13
269.63	1.00000e-13
270.60	1.00000e-13
271.57	1.00000e-13
272.54	1.00000e-13
273.51	1.00000e-13
274.48	1.00000e-13
275.45	7.76218e-6
276.42	1.00000e-13
277.39	1.00000e-13
278.36	1.00000e-13
279.33	1.00000e-13
280.30	1.00000e-13
281.27	1.00000e-13
282.24	1.00000e-13
283.21	1.00000e-13
284.18	1.00000e-13
285.15	1.00000e-13
286.12	1.00000e-13
287.09	1.00000e-13
288.06	1.00000e-13
289.03	1.00000e-13
290.00	1.00000e-13
290.97	1.00000e-13
291.94	1.00000e-13
292.91	1.40183e-5
293.88	1.00000e-13
294.85	1.00000e-13
295.82	1.00000e-13
296.79	1.00000e-13
297.76	1.00000e-13
298.73	1.00000e-13
299.70	1.00000e-13
300.67	1.00000e-13
301.64	1.00000e-13
302.61	1.00000e-13
303.57	1.00000e-13
304.54	1.00000e-13
305.52	1.00000e-13
306.49	1.00000e-13
307.45	1.00000e-13
308.43	1.00000e-13
309.40	1.00000e-13
310.36	1.00000e-13
311.33	1.00000e-13
312.30	1.00000e-13
313.27	1.00000e-13
314.25	1.00000e-13
315.21	1.00000e-13
316.18	1.00000e-13
317.15	1.00000e-13
318.12	1.00000e-13
319.09	1.00000e-13
320.06	6.71950e-6
321.03	1.00000e-13
322.00	1.00000e-13
322.97	1.00000e-13
323.95	1.00000e-13
324.91	1.00000e-13
325.88	1.00000e-13
326.85	1.00000e-13
327.82	1.00000e-13
328.79	1.00000e-13
329.76	1.00000e-13
330.73	1.00000e-13
331.70	1.00000e-13
332.67	1.00000e-13
333.64	1.00000e-13
334.61	1.00000e-13
335.58	9.15242e-6
336.55	1.00000e-13
337.52	1.00000e-13
338.49	1.00000e-13
339.46	1.00000e-13
340.43	2.12012e-5
341.40	9.73169e-6
342.37	1.00000e-13
343.34	1.00000e-13
344.31	1.00000e-13
345.28	1.00000e-13
346.25	1.00000e-13
347.22	1.00000e-13
348.19	1.00000e-13
349.16	1.00000e-13
350.13	1.00000e-13
351.10	1.00000e-13
352.07	1.00000e-13
353.04	1.00000e-13
354.01	1.00000e-13
354.98	1.00000e-13
355.95	1.00000e-13
356.92	1.00000e-13
357.89	1.00000e-13
358.86	1.00000e-13
359.83	1.00000e-13
360.80	1.00000e-13
361.77	1.00000e-13
362.74	1.00000e-13
363.71	1.00000e-13
364.68	1.00000e-13
365.65	1.00000e-13
366.62	1.00000e-13
367.59	1.00000e-13
368.56	1.00000e-13
369.53	1.00000e-13
370.50	1.00000e-13
371.47	1.00000e-13
372.44	1.00000e-13
373.41	1.00000e-13
374.38	1.00000e-13
375.35	1.00000e-13
376.32	1.00000e-13
377.29	1.00000e-13
378.26	1.00000e-13
379.23	1.00000e-13
380.20	1.00000e-13
381.17	1.00000e-13
382.14	1.00000e-13
383.11	1.28597e-5
384.08	1.00000e-13
385.05	1.00000e-13
386.01	1.00000e-13
386.99	1.00000e-13
387.95	1.00000e-13
388.93	1.00000e-13
389.89	1.00000e-13
390.87	1.00000e-13
391.83	1.00000e-13
392.81	1.00000e-13
393.78	1.00000e-13
394.75	1.00000e-13
395.72	1.00000e-13
396.68	1.00000e-13
397.66	1.00000e-13
398.63	1.00000e-13
399.60	1.00000e-13
400.56	1.00000e-13
401.53	5.79267e-7
402.50	1.00000e-13
403.47	1.00000e-13
404.44	1.00000e-13
405.41	1.00000e-13
406.38	1.00000e-13
407.36	1.00000e-13
408.32	1.00000e-13
409.29	1.00000e-13
410.26	3.47560e-6
411.23	1.00000e-13
412.20	1.00000e-13
413.17	1.00000e-13
414.14	1.00000e-13
415.11	1.00000e-13
416.08	1.00000e-13
417.05	1.00000e-13
418.02	1.00000e-13
418.99	1.27439e-6
419.96	1.00000e-13
420.93	1.00000e-13
421.90	1.00000e-13
422.87	1.00000e-13
423.84	1.00000e-13
424.81	4.63414e-7
425.78	1.00000e-13
426.75	1.00000e-13
427.72	1.00000e-13
428.69	1.00000e-13
429.66	1.00000e-13
430.63	1.00000e-13
431.60	1.00000e-13
432.57	1.00000e-13
433.54	1.00000e-13
434.51	1.00000e-13
435.48	1.00000e-13
436.45	1.00000e-13
437.42	1.00000e-13
438.39	1.00000e-13
439.36	1.00000e-13
440.33	5.79267e-6
441.30	1.00000e-13
442.27	1.00000e-13
443.24	1.00000e-13
444.21	1.00000e-13
445.18	1.00000e-13
446.15	1.00000e-13
447.12	1.36707e-5
448.09	1.00000e-13
449.06	1.00000e-13
450.03	1.00000e-13
451.00	1.00000e-13
451.97	1.00000e-13
452.94	1.00000e-13
453.91	1.00000e-13
454.88	1.00000e-13
455.85	1.00000e-13
456.82	1.00000e-13
457.79	1.00000e-13
458.76	1.00000e-13
459.73	1.00000e-13
460.70	1.00000e-13
461.67	1.00000e-13
462.64	1.00000e-13
463.61	1.00000e-13
464.58	1.00000e-13
465.55	1.00000e-13
466.52	1.00000e-13
467.49	1.00000e-13
468.46	1.00000e-13
469.43	1.00000e-13
470.40	1.00000e-13
471.37	1.00000e-13
472.34	1.00000e-13
473.31	1.00000e-13
474.28	1.00000e-13
475.24	1.00000e-13
476.21	4.63414e-7
477.18	1.00000e-13
478.16	1.00000e-13
479.12	1.00000e-13
480.09	1.00000e-13
481.07	1.00000e-13
482.04	5.63048e-5
483.01	1.00000e-13
483.97	5.79267e-6
484.94	1.00000e-13
485.92	1.00000e-13
486.88	1.00000e-13
487.85	1.00000e-13
488.83	1.00000e-13
489.79	1.00000e-13
490.76	1.00000e-13
491.73	1.00000e-13
492.70	9.03657e-6
493.67	1.00000e-13
494.64	1.00000e-13
495.61	1.15853e-5
496.58	3.59146e-6
497.56	1.00000e-13
498.52	1.27439e-6
499.49	1.00000e-13
500.46	1.00000e-13
501.43	1.00000e-13
502.40	1.15853e-5
503.37	1.00000e-13
504.34	1.00000e-13
505.31	1.00000e-13
506.28	1.00000e-13
507.25	1.00000e-13
508.22	1.00000e-13
509.19	1.00000e-13
510.16	1.00000e-13
511.13	1.00000e-13
512.10	1.00000e-13
513.07	1.00000e-13
514.04	1.00000e-13
515.01	1.00000e-13
515.98	1.00000e-13
516.95	1.00000e-13
517.92	1.00000e-13
518.89	1.00000e-13
519.86	1.00000e-13
520.83	1.00000e-13
521.80	1.00000e-13
522.77	1.00000e-13
523.74	1.00000e-13
524.71	1.00000e-13
525.68	1.00000e-13
526.65	1.00000e-13
527.62	1.00000e-13
528.59	1.00000e-13
529.56	1.00000e-13
530.53	1.00000e-13
531.50	1.00000e-13
532.47	1.00000e-13
533.44	1.00000e-13
534.41	1.00000e-13
535.38	1.00000e-13
536.35	1.00000e-13
537.32	1.00000e-13
538.29	1.00000e-13
539.26	1.00000e-13
540.23	1.00000e-13
541.20	1.00000e-13
542.17	1.00000e-13
543.14	1.00000e-13
544.11	1.00000e-13
545.08	1.00000e-13
546.05	1.00000e-13
547.02	1.00000e-13
547.99	1.00000e-13
548.96	1.00000e-13
549.93	1.00000e-13
550.90	1.00000e-13
551.87	1.00000e-13
552.84	1.00000e-13
553.81	1.00000e-13
554.78	1.00000e-13
555.75	1.00000e-13
556.72	1.00000e-13
557.69	1.00000e-13
558.66	1.00000e-13
559.63	1.00000e-13
560.60	5.79267e-7
561.57	1.00000e-13
562.54	1.00000e-13
563.51	1.00000e-13
564.48	1.00000e-13
565.45	1.00000e-13
566.42	1.00000e-13
567.39	1.00000e-13
568.35	1.00000e-13
569.32	1.50610e-5
570.29	1.00000e-13
571.27	1.00000e-13
572.24	1.00000e-13
573.20	1.00000e-13
574.18	1.00000e-13
575.14	1.00000e-13
576.11	1.00000e-13
577.08	1.00000e-13
578.05	1.00000e-13
579.02	1.00000e-13
580.00	1.00000e-13
580.96	1.62195e-5
581.93	1.00000e-13
582.90	1.00000e-13
583.87	1.00000e-13
584.84	1.00000e-13
585.82	1.00000e-13
586.78	1.00000e-13
587.75	1.00000e-13
588.73	1.00000e-13
589.69	1.81890e-5
590.67	1.00000e-13
591.63	1.00000e-13
592.60	1.00000e-13
593.57	1.00000e-13
594.54	1.00000e-13
595.51	1.00000e-13
596.48	1.00000e-13
597.45	1.00000e-13
598.42	1.00000e-13
599.39	1.00000e-13
600.36	1.00000e-13
601.33	1.00000e-13
602.30	1.00000e-13
603.27	1.00000e-13
604.24	1.00000e-13
605.21	1.00000e-13
606.18	1.00000e-13
607.15	1.00000e-13
608.12	1.00000e-13
609.09	1.00000e-13
610.06	1.00000e-13
611.03	1.00000e-13
612.00	1.00000e-13
612.97	1.00000e-13
613.94	1.00000e-13
614.91	1.00000e-13
615.88	1.00000e-13
616.85	1.00000e-13
617.82	1.00000e-13
618.79	1.00000e-13
619.76	1.00000e-13
620.73	1.00000e-13
621.70	1.00000e-13
622.67	1.00000e-13
623.64	1.00000e-13
624.61	1.00000e-13
625.58	1.00000e-13
626.55	7.64633e-6
627.52	1.00000e-13
628.49	1.00000e-13
629.46	1.00000e-13
630.43	1.00000e-13
631.40	1.00000e-13
632.37	1.00000e-13
633.34	1.00000e-13
634.31	1.00000e-13
635.28	1.00000e-13
636.25	1.00000e-13
637.22	1.00000e-13
638.19	1.00000e-13
639.16	1.00000e-13
640.13	1.00000e-13
641.10	1.00000e-13
642.07	1.00000e-13
643.04	8.22560e-6
644.01	1.00000e-13
644.98	1.00000e-13
645.95	1.00000e-13
646.92	1.00000e-13
647.89	1.00000e-13
648.86	3.24390e-6
649.83	1.00000e-13
650.80	3.59146e-6
651.77	1.00000e-13
652.74	1.00000e-13
653.71	1.00000e-13
654.68	1.00000e-13
655.65	1.00000e-13
656.62	1.00000e-13
657.59	1.00000e-13
658.56	1.00000e-13
659.53	1.00000e-13
660.50	1.00000e-13
661.47	1.00000e-13
662.44	1.00000e-13
663.41	1.00000e-13
664.38	1.00000e-13
665.34	1.00000e-13
666.32	1.00000e-13
667.29	6.95121e-6
668.26	1.00000e-13
669.22	1.00000e-13
670.19	1.00000e-13
671.16	1.00000e-13
672.13	1.00000e-13
673.10	1.00000e-13
674.07	1.00000e-13
675.05	1.00000e-13
676.02	1.00000e-13
676.98	1.00000e-13
677.95	1.00000e-13
678.92	1.00000e-13
679.89	1.00000e-13
680.87	1.00000e-13
681.83	1.00000e-13
682.80	1.00000e-13
683.77	1.00000e-13
684.74	1.00000e-13
685.71	1.00000e-13
686.68	1.00000e-13
687.65	1.00000e-13
688.62	1.00000e-13
689.59	1.00000e-13
690.56	1.00000e-13
691.53	1.00000e-13
692.50	1.00000e-13
693.47	1.00000e-13
694.44	1.00000e-13
695.41	1.00000e-13
696.38	1.00000e-13
697.35	1.00000e-13
698.32	1.00000e-13
699.29	1.00000e-13
700.26	1.00000e-13
701.23	1.00000e-13
702.20	1.00000e-13
703.17	1.70305e-5
704.14	1.00000e-13
705.11	1.00000e-13
706.08	1.00000e-13
707.05	1.00000e-13
708.02	1.00000e-13
708.99	1.00000e-13
709.96	1.00000e-13
710.93	1.00000e-13
711.90	1.00000e-13
712.87	1.00000e-13
713.84	1.00000e-13
714.81	5.90853e-6
715.78	1.00000e-13
716.75	1.00000e-13
717.72	1.00000e-13
718.69	1.00000e-13
719.66	5.12072e-5
720.63	1.00000e-13
721.60	1.00000e-13
722.57	1.00000e-13
723.54	1.00000e-13
724.51	1.00000e-13
725.48	1.00000e-13
726.45	1.00000e-13
727.42	1.00000e-13
728.39	1.00000e-13
729.36	1.00000e-13
730.33	1.00000e-13
731.30	1.00000e-13
732.27	1.00000e-13
733.24	1.00000e-13
734.21	1.00000e-13
735.18	1.00000e-13
736.15	1.00000e-13
737.12	1.00000e-13
738.09	1.00000e-13
739.06	1.00000e-13
740.03	1.00000e-13
741.00	1.00000e-13
741.97	1.00000e-13
742.94	1.00000e-13
743.91	1.00000e-13
744.88	1.00000e-13
745.85	1.00000e-13
746.82	1.00000e-13
747.79	2.16646e-5
748.76	1.00000e-13
749.73	3.47560e-6
750.70	1.00000e-13
751.67	1.00000e-13
752.64	1.00000e-13
753.61	1.00000e-13
754.58	1.00000e-13
755.55	1.00000e-13
756.52	1.00000e-13
757.48	1.00000e-13
758.45	1.00000e-13
759.43	1.00000e-13
760.39	1.00000e-13
761.37	1.00000e-13
762.33	1.00000e-13
763.31	1.00000e-13
764.28	1.00000e-13
765.24	1.00000e-13
766.21	1.00000e-13
767.18	1.00000e-13
768.15	1.00000e-13
769.12	1.00000e-13
770.10	1.00000e-13
771.07	1.00000e-13
772.04	1.00000e-13
773.00	1.00000e-13
773.98	1.00000e-13
774.95	1.00000e-13
775.91	1.00000e-13
776.88	1.00000e-13
777.85	1.00000e-13
778.82	1.00000e-13
779.79	1.00000e-13
780.77	1.00000e-13
781.73	1.00000e-13
782.70	1.00000e-13
783.67	1.00000e-13
784.64	1.00000e-13
785.61	1.00000e-13
786.58	1.00000e-13
787.55	1.00000e-13
788.52	1.00000e-13
789.49	1.00000e-13
790.46	1.00000e-13
791.43	1.00000e-13
792.40	1.00000e-13
793.37	1.00000e-13
794.34	1.00000e-13
795.31	1.00000e-13
796.28	1.00000e-13
797.25	1.00000e-13
798.22	1.00000e-13
799.19	1.00000e-13
800.16	1.00000e-13
801.13	1.00000e-13
802.10	1.00000e-13
803.07	1.00000e-13
804.04	1.00000e-13
805.01	1.00000e-13
805.98	1.00000e-13
806.95	1.00000e-13
807.92	1.00000e-13
808.89	1.00000e-13
809.86	1.00000e-13
810.83	1.00000e-13
811.80	1.00000e-13
812.77	1.00000e-13
813.74	1.00000e-13
814.71	1.00000e-13
815.68	1.00000e-13
816.65	1.00000e-13
817.62	8.10974e-7
818.59	1.00000e-13
819.56	1.00000e-13
820.53	1.00000e-13
821.50	1.00000e-13
822.47	1.00000e-13
823.44	1.00000e-13
824.41	1.00000e-13
825.38	1.00000e-13
826.35	1.00000e-13
827.32	1.00000e-13
828.29	1.00000e-13
829.26	1.00000e-13
830.23	2.89634e-6
831.20	1.00000e-13
832.17	1.00000e-13
833.14	1.00000e-13
834.11	1.00000e-13
835.08	1.00000e-13
836.05	1.00000e-13
837.02	1.00000e-13
837.99	1.00000e-13
838.96	1.00000e-13
839.93	1.00000e-13
840.90	1.00000e-13
841.87	1.00000e-13
842.84	1.00000e-13
843.80	1.00000e-13
844.78	1.00000e-13
845.75	1.00000e-13
846.72	1.00000e-13
847.69	1.00000e-13
848.66	1.00000e-13
849.63	1.00000e-13
850.60	1.00000e-13
851.57	1.00000e-13
852.54	1.00000e-13
853.51	1.00000e-13
854.47	1.00000e-13
855.45	1.00000e-13
856.42	1.00000e-13
857.38	1.00000e-13
858.35	1.00000e-13
859.32	1.00000e-13
860.29	1.00000e-13
861.27	1.00000e-13
862.23	1.00000e-13
863.20	1.00000e-13
864.17	1.00000e-13
865.14	1.00000e-13
866.11	1.00000e-13
867.09	1.00000e-13
868.05	1.00000e-13
869.02	1.00000e-13
869.99	1.00000e-13
870.96	1.00000e-13
871.93	1.00000e-13
872.90	1.00000e-13
873.87	1.00000e-13
874.84	1.00000e-13
875.81	1.00000e-13
876.78	1.00000e-13
877.75	1.00000e-13
878.73	1.00000e-13
879.69	1.00000e-13
880.66	1.00000e-13
881.63	1.00000e-13
882.60	1.00000e-13
883.57	1.00000e-13
884.54	1.00000e-13
885.51	1.00000e-13
886.48	1.00000e-13
887.45	1.00000e-13
888.42	1.00000e-13
889.39	1.00000e-13
890.36	1.00000e-13
891.33	1.00000e-13
892.30	1.00000e-13
893.27	1.00000e-13
894.24	1.00000e-13
895.21	1.00000e-13
896.18	1.00000e-13
897.15	1.00000e-13
898.12	1.00000e-13
899.09	1.00000e-13
900.06	1.00000e-13
901.03	2.22439e-5
902.00	1.00000e-13
902.97	1.00000e-13
903.94	1.00000e-13
904.91	1.00000e-13
905.88	1.00000e-13
906.85	1.00000e-13
907.82	1.00000e-13
908.79	1.00000e-13
909.76	1.00000e-13
910.73	4.17073e-6
911.70	1.00000e-13
912.67	1.00000e-13
913.64	6.60365e-6
914.61	1.00000e-13
915.58	1.00000e-13
916.55	1.00000e-13
917.52	1.00000e-13
918.49	1.00000e-13
919.46	1.00000e-13
920.43	1.00000e-13
921.40	1.00000e-13
922.37	1.00000e-13
923.34	1.00000e-13
924.31	1.00000e-13
925.28	1.00000e-13
926.25	1.00000e-13
927.22	1.00000e-13
928.19	1.00000e-13
929.16	1.00000e-13
930.13	1.00000e-13
931.10	1.00000e-13
932.07	1.00000e-13
933.04	1.00000e-13
934.01	1.00000e-13
934.98	1.00000e-13
935.95	1.00000e-13
936.92	1.00000e-13
937.89	1.00000e-13
938.86	1.00000e-13
939.83	1.00000e-13
940.80	1.00000e-13
941.77	1.00000e-13
942.74	1.00000e-13
943.71	1.00000e-13
944.68	1.00000e-13
945.65	1.00000e-13
946.61	1.00000e-13
947.59	1.00000e-13
948.56	1.00000e-13
949.52	1.00000e-13
950.49	1.00000e-13
951.46	1.00000e-13
952.43	1.00000e-13
953.41	1.00000e-13
954.38	1.96951e-6
955.34	1.00000e-13
956.31	1.00000e-13
957.29	1.00000e-13
958.26	1.00000e-13
959.22	1.00000e-13
960.19	1.00000e-13
961.16	1.00000e-13
962.13	1.00000e-13
963.10	1.00000e-13
964.07	1.00000e-13
965.04	1.00000e-13
966.01	1.00000e-13
966.98	1.00000e-13
967.95	1.00000e-13
968.93	1.00000e-13
969.89	1.00000e-13
970.86	1.00000e-13
971.83	1.00000e-13
972.80	1.00000e-13
973.77	1.00000e-13
974.74	1.00000e-13
975.71	1.00000e-13
976.68	1.00000e-13
977.65	1.00000e-13
978.62	1.00000e-13
979.59	1.00000e-13
980.56	1.00000e-13
981.53	1.00000e-13
982.50	1.00000e-13
983.47	1.00000e-13
984.44	1.00000e-13
985.41	1.00000e-13
986.38	1.00000e-13
987.35	1.00000e-13
988.32	3.32499e-5
989.29	1.00000e-13
990.26	1.00000e-13
991.23	1.00000e-13
992.20	1.00000e-13
993.17	1.00000e-13
994.14	1.00000e-13
995.11	1.00000e-13
996.08	1.00000e-13
997.05	1.00000e-13
998.02	1.00000e-13
998.99	1.00000e-13
999.96	1.00000e-13
1000.93	1.00000e-13
1001.90	2.20122e-6
1002.87	1.00000e-13
1003.84	1.00000e-13
1004.81	1.00000e-13
1005.78	1.00000e-13
1006.75	1.00000e-13
1007.72	1.00000e-13
1008.69	1.00000e-13
1009.66	1.00000e-13
1010.63	1.00000e-13
1011.60	1.00000e-13
1012.57	1.00000e-13
1013.54	1.00000e-13
1014.51	1.00000e-13
1015.48	1.00000e-13
1016.45	1.00000e-13
1017.42	1.00000e-13
1018.39	1.00000e-13
1019.36	1.00000e-13
1020.33	1.00000e-13
1021.30	1.00000e-13
1022.27	1.00000e-13
1023.24	1.00000e-13
1024.21	1.00000e-13
1025.18	1.00000e-13
1026.15	1.00000e-13
1027.12	1.00000e-13
1028.09	1.85366e-6
1029.06	1.00000e-13
1030.03	1.00000e-13
1031.00	1.00000e-13
1031.97	9.26828e-6
1032.94	1.00000e-13
1033.91	1.00000e-13
1034.88	1.00000e-13
1035.85	1.00000e-13
1036.82	1.00000e-13
1037.79	1.00000e-13
1038.75	1.00000e-13
1039.72	1.00000e-13
1040.70	1.00000e-13
1041.67	1.00000e-13
1042.63	1.00000e-13
1043.61	1.00000e-13
1044.58	1.00000e-13
1045.55	1.00000e-13
1046.51	1.00000e-13
1047.48	1.00000e-13
1048.46	1.00000e-13
1049.42	1.00000e-13
1050.39	1.00000e-13
1051.37	1.00000e-13
1052.33	1.00000e-13
1053.30	1.00000e-13
1054.27	1.00000e-13
1055.24	1.00000e-13
1056.21	1.00000e-13
1057.19	1.00000e-13
1058.15	1.00000e-13
1059.13	1.00000e-13
1060.10	1.00000e-13
1061.06	1.44817e-5
1062.03	1.00000e-13
1063.00	1.00000e-13
1063.97	1.00000e-13
1064.94	1.00000e-13
1065.91	1.00000e-13
1066.88	1.00000e-13
1067.85	1.00000e-13
1068.82	1.00000e-13
1069.79	1.00000e-13
1070.76	1.00000e-13
1071.73	1.00000e-13
1072.70	1.00000e-13
1073.67	1.00000e-13
1074.64	1.00000e-13
1075.61	1.00000e-13
1076.58	1.00000e-13
1077.55	1.00000e-13
1078.52	1.00000e-13
1079.49	1.00000e-13
1080.46	1.00000e-13
1081.43	1.00000e-13
1082.40	1.00000e-13
1083.37	1.00000e-13
1084.34	1.00000e-13
1085.31	1.00000e-13
1086.28	1.00000e-13
1087.25	1.00000e-13
1088.22	1.00000e-13
1089.19	1.00000e-13
1090.16	1.00000e-13
1091.13	1.00000e-13
1092.10	1.00000e-13
1093.07	1.00000e-13
1094.04	1.00000e-13
1095.01	1.00000e-13
1095.98	1.00000e-13
1096.95	1.00000e-13
1097.92	1.00000e-13
1098.89	1.00000e-13
1099.86	1.00000e-13
1100.83	1.00000e-13
1101.80	1.00000e-13
1102.77	1.00000e-13
1103.74	1.00000e-13
1104.71	1.00000e-13
1105.68	1.00000e-13
1106.65	1.00000e-13
1107.62	1.00000e-13
1108.59	1.00000e-13
1109.56	1.00000e-13
1110.53	1.00000e-13
1111.50	1.00000e-13
1112.47	1.00000e-13
1113.44	1.00000e-13
1114.41	1.00000e-13
1115.38	1.00000e-13
1116.35	1.00000e-13
1117.32	1.00000e-13
1118.29	1.00000e-13
1119.26	1.00000e-13
1120.23	1.00000e-13
1121.20	1.00000e-13
1122.17	1.00000e-13
1123.14	1.00000e-13
1124.11	1.00000e-13
1125.08	1.00000e-13
1126.05	1.00000e-13
1127.02	1.00000e-13
1127.99	1.00000e-13
1128.95	1.00000e-13
1129.93	1.00000e-13
1130.90	1.00000e-13
1131.87	1.00000e-13
1132.84	1.00000e-13
1133.80	1.00000e-13
1134.77	1.00000e-13
1135.74	1.00000e-13
1136.71	1.00000e-13
1137.68	1.00000e-13
1138.66	1.00000e-13
1139.62	1.00000e-13
1140.59	1.00000e-13
1141.56	1.00000e-13
1142.54	1.00000e-13
1143.51	1.00000e-13
1144.47	1.15853e-7
1145.44	1.00000e-13
1146.42	1.00000e-13
1147.39	1.00000e-13
1148.35	1.00000e-13
1149.33	1.00000e-13
1150.29	1.00000e-13
1151.26	1.00000e-13
1152.23	1.00000e-13
1153.20	1.00000e-13
1154.18	1.00000e-13
1155.14	4.63414e-6
1156.11	1.00000e-13
1157.08	1.00000e-13
1158.05	1.00000e-13
1159.02	7.29877e-6
1159.99	1.91158e-5
1160.96	1.00000e-13
1161.93	1.00000e-13
1162.90	1.00000e-13
1163.87	1.00000e-13
1164.84	1.00000e-13
1165.81	1.00000e-13
1166.78	1.00000e-13
1167.75	1.00000e-13
1168.72	1.00000e-13
1169.69	3.47560e-7
1170.66	1.00000e-13
1171.63	1.00000e-13
1172.60	1.00000e-13
1173.57	1.00000e-13
1174.54	1.00000e-13
1175.51	1.00000e-13
1176.48	1.00000e-13
1177.45	1.00000e-13
1178.42	1.00000e-13
1179.39	1.00000e-13
1180.36	9.15242e-6
1181.33	1.00000e-13
1182.30	1.00000e-13
1183.27	1.00000e-13
1184.24	1.00000e-13
1185.21	1.00000e-13
1186.18	1.00000e-13
1187.15	1.00000e-13
1188.12	1.00000e-13
1189.09	1.00000e-13
1190.06	1.00000e-13
1191.03	1.00000e-13
1192.00	1.00000e-13
1192.97	1.00000e-13
1193.94	1.00000e-13
1194.91	1.00000e-13
1195.88	1.00000e-13
1196.85	1.00000e-13
1197.82	1.00000e-13
1198.79	1.00000e-13
1199.76	1.00000e-13
1200.73	1.00000e-13
1201.70	1.00000e-13
1202.67	1.00000e-13
1203.64	1.00000e-13
1204.61	1.39024e-5
1205.58	1.00000e-13
1206.55	1.00000e-13
1207.52	1.00000e-13
1208.49	1.00000e-13
1209.46	1.00000e-13
1210.43	1.00000e-13
1211.40	1.00000e-13
1212.37	1.00000e-13
1213.34	1.00000e-13
1214.31	1.00000e-13
1215.28	1.00000e-13
1216.25	1.00000e-13
1217.22	1.00000e-13
1218.19	1.00000e-13
1219.15	1.00000e-13
1220.12	1.00000e-13
1221.09	1.00000e-13
1222.06	1.00000e-13
1223.03	1.00000e-13
1224.01	1.00000e-13
1224.97	1.00000e-13
1225.94	1.00000e-13
1226.91	1.00000e-13
1227.88	1.00000e-13
1228.85	1.00000e-13
1229.82	1.00000e-13
1230.79	1.00000e-13
1231.76	1.00000e-13
1232.74	1.00000e-13
1233.70	1.00000e-13
1234.67	1.00000e-13
1235.64	1.00000e-13
1236.61	1.00000e-13
1237.58	1.00000e-13
1238.55	1.00000e-13
1239.53	1.00000e-13
1240.49	1.00000e-13
1241.47	1.00000e-13
1242.43	1.00000e-13
1243.40	1.00000e-13
1244.37	1.00000e-13
1245.34	1.00000e-13
1246.31	1.00000e-13
1247.28	2.88475e-5
1248.25	1.00000e-13
1249.22	1.00000e-13
1250.19	1.00000e-13
1251.16	1.00000e-13
1252.13	1.00000e-13
1253.10	1.00000e-13
1254.07	1.00000e-13
1255.04	1.00000e-13
1256.01	1.00000e-13
1256.98	1.00000e-13
1257.95	1.00000e-13
1258.92	1.00000e-13
1259.89	1.00000e-13
1260.86	1.00000e-13
1261.83	1.00000e-13
1262.80	1.00000e-13
1263.77	1.00000e-13
1264.74	1.00000e-13
1265.71	1.00000e-13
1266.68	1.00000e-13
1267.65	1.18171e-5
1268.62	1.00000e-13
1269.59	1.00000e-13
1270.56	1.04384e-4
1271.53	1.40646e-4
1272.50	4.57389e-4
1273.47	1.23928e-3
1274.44	2.34870e-3
1275.41	5.04055e-3
1276.38	0.0102535
1277.35	0.0205933
1278.32	0.0325383
1279.29	0.0446756
1280.26	0.0380783
1281.23	0.0248372
1282.20	0.0186641
1283.17	0.0127751
1284.14	7.93909e-3
1285.11	5.05017e-3
1286.08	3.82328e-3
1287.05	2.18812e-3
1288.02	1.54259e-3
1288.99	8.10858e-4
1289.96	6.47505e-4
1290.93	3.53237e-4
1291.90	2.51750e-4
1292.87	1.25353e-4
1293.84	1.56981e-4
1294.81	1.25353e-4
1295.78	7.88962e-5
1296.75	6.96279e-5
1297.72	8.54999e-5
1298.69	2.61829e-5
1299.66	2.07378e-5
1300.63	4.63414e-5
1301.60	3.93902e-5
1302.57	9.03657e-6
1303.54	1.00000e-13
1304.51	5.51463e-5
1305.47	3.74207e-5
1306.44	3.24390e-6
1307.42	6.14023e-6
1308.39	2.59512e-5
1309.36	2.57195e-5
1310.33	4.87743e-5
1311.29	3.92743e-5
1312.26	1.00000e-13
1313.07	3.51036e-5