File: data/TGA/005d-L_M/F1_000001 -temp_104 AMU_XIC
Time	Ion Current
min	mA
0.00	1.00000e-13
0.97	1.00000e-13
1.94	1.00000e-13
2.91	1.00000e-13
3.88	1.00000e-13
4.85	1.00000e-13
5.82	1.00000e-13
6.79	1.00000e-13
7.76	1.00000e-13
8.73	1.00000e-13
9.70	1.00000e-13
10.67	1.00000e-13
11.64	1.00000e-13
12.61	1.00000e-13
13.58	1.00000e-13
14.55	1.00000e-13
15.52	1.00000e-13
16.49	1.00000e-13
17.46	1.00000e-13
18.43	1.00000e-13
19.40	1.00000e-13
20.37	1.00000e-13
21.34	1.00000e-13
22.31	1.00000e-13
23.28	1.00000e-13
24.25	1.00000e-13
25.22	1.00000e-13
26.19	1.00000e-13
27.16	1.00000e-13
28.13	1.00000e-13
29.10	1.00000e-13
30.07	1.00000e-13
31.04	2.66463e-6
32.00	1.00000e-13
32.97	1.00000e-13
33.95	1.00000e-13
34.91	1.00000e-13
35.88	1.00000e-13
36.85	1.00000e-13
37.82	1.00000e-13
38.79	1.00000e-13
39.76	1.00000e-13
40.73	1.00000e-13
41.71	1.00000e-13
42.67	1.00000e-13
43.64	1.00000e-13
44.61	1.00000e-13
45.59	1.00000e-13
46.55	1.00000e-13
47.52	1.00000e-13
48.49	1.00000e-13
49.46	1.00000e-13
50.44	1.00000e-13
51.40	1.00000e-13
52.37	1.00000e-13
53.34	1.00000e-13
54.31	1.00000e-13
55.28	1.00000e-13
56.25	1.00000e-13
57.23	1.00000e-13
58.19	1.00000e-13
59.16	2.54878e-6
60.13	1.00000e-13
61.10	1.00000e-13
62.07	1.00000e-13
63.05	6.48779e-6
64.02	9.26828e-7
64.98	1.00000e-13
65.95	1.00000e-13
66.92	5.79267e-6
67.90	1.00000e-13
68.86	1.79573e-5
69.83	7.99389e-6
70.80	1.00000e-13
71.77	4.02012e-5
72.74	1.00000e-13
73.71	1.00000e-13
74.68	2.43292e-6
75.65	2.34024e-5
76.62	9.26828e-7
77.59	1.00000e-13
78.56	7.41462e-6
79.53	1.00000e-13
80.50	3.12804e-5
81.47	1.11219e-5
82.44	6.02438e-6
83.41	1.00000e-13
84.38	2.83841e-5
85.35	1.00000e-13
86.32	1.04268e-6
87.29	1.37866e-5
88.26	3.01219e-6
89.23	1.00000e-13
90.20	1.01951e-5
91.17	1.00000e-13
92.14	1.00000e-13
93.11	3.31341e-5
94.08	2.44451e-5
95.05	3.31341e-5
96.02	1.00000e-13
96.99	3.86951e-5
97.96	4.56463e-5
98.93	1.40183e-5
99.90	1.83048e-5
100.87	2.09695e-5
101.84	1.00000e-13
102.81	1.79573e-5
103.78	5.00487e-5
104.75	2.35183e-5
105.72	1.00000e-13
106.69	1.00793e-5
107.66	4.29816e-5
108.63	9.38413e-6
109.60	3.11646e-5
110.57	1.00000e-13
111.54	4.88902e-5
112.51	1.00000e-13
113.48	1.00000e-13
114.45	1.00000e-13
115.42	8.10974e-7
116.39	1.00000e-13
117.36	1.00000e-13
118.33	2.29390e-5
119.30	3.24390e-6
120.27	1.59878e-5
121.24	1.00000e-13
122.21	3.97377e-5
123.18	1.00000e-13
124.15	2.02744e-5
125.12	1.00000e-13
126.09	1.00000e-13
127.06	8.80486e-6
128.03	2.31707e-6
129.00	1.00000e-13
129.97	1.00000e-13
130.94	2.71097e-5
131.91	3.26707e-5
132.88	1.00000e-13
133.85	2.73414e-5
134.82	1.34390e-5
135.79	9.38413e-6
136.76	6.60365e-6
137.73	1.00000e-13
138.70	6.95121e-7
139.67	1.71463e-5
140.64	4.44877e-5
141.61	3.92743e-5
142.58	1.00000e-13
143.55	1.96951e-5
144.52	5.41036e-5
145.49	1.69146e-5
146.46	8.68901e-6
147.43	5.67682e-6
148.39	1.45975e-5
149.37	7.04389e-5
150.33	1.00000e-13
151.31	1.00000e-13
152.28	9.96340e-6
153.25	1.00000e-13
154.22	1.67988e-5
155.18	2.54878e-5
156.16	2.54878e-6
157.13	1.00000e-13
158.09	1.76097e-5
159.06	1.00793e-5
160.03	1.61036e-5
161.00	1.78414e-5
161.97	1.00000e-13
162.94	1.50610e-6
163.91	2.13170e-5
164.89	1.00000e-13
165.85	1.00000e-13
166.83	2.09695e-5
167.80	1.00000e-13
168.77	1.00000e-13
169.74	1.00000e-13
170.71	1.72622e-5
171.68	1.00000e-13
172.64	5.09755e-6
173.61	4.15914e-5
174.58	1.00000e-13
175.55	1.98109e-5
176.52	2.32865e-5
177.49	1.00000e-13
178.47	1.00000e-13
179.43	1.00000e-13
180.40	4.86585e-6
181.37	5.44511e-6
182.34	1.00000e-13
183.31	1.00000e-13
184.28	1.39024e-5
185.25	2.67622e-5
186.22	1.23963e-5
187.19	1.27439e-5
188.16	9.96340e-6
189.13	1.00000e-13
190.10	1.00000e-13
191.07	1.00000e-13
192.04	1.00000e-13
193.01	9.96340e-6
193.99	1.41341e-5
194.95	1.00000e-13
195.92	1.00000e-13
196.89	2.54878e-6
197.86	1.00000e-13
198.83	1.00000e-13
199.80	1.00000e-13
200.77	1.00000e-13
201.74	1.47134e-5
202.71	4.74999e-6
203.68	1.00000e-13
204.65	1.00000e-13
205.62	9.26828e-7
206.59	1.00000e-13
207.56	1.00000e-13
208.53	1.00000e-13
209.50	1.00000e-13
210.47	1.00000e-13
211.44	1.00000e-13
212.41	7.53048e-6
213.38	1.00000e-13
214.35	1.00000e-13
215.32	1.00000e-13
216.29	1.90000e-5
217.26	1.00000e-13
218.23	1.00000e-13
219.20	1.00000e-13
220.17	1.22805e-5
221.14	1.14695e-5
222.11	1.00000e-13
223.08	1.00000e-13
224.05	1.00000e-13
225.02	1.00000e-13
225.99	1.62195e-6
226.96	1.04268e-6
227.93	1.00000e-13
228.90	1.00000e-13
229.87	1.00000e-13
230.84	1.94634e-5
231.81	1.00000e-13
232.78	1.10061e-5
233.75	1.00000e-13
234.72	1.00000e-13
235.69	1.00000e-13
236.66	1.00000e-13
237.63	1.47134e-5
238.60	1.00000e-13
239.57	7.99389e-6
240.54	1.00000e-13
241.51	1.00000e-13
242.48	1.00000e-13
243.45	1.00000e-13
244.42	1.84207e-5
245.39	5.09755e-6
246.36	1.00000e-13
247.33	1.00000e-13
248.30	5.90853e-6
249.27	1.00000e-13
250.24	1.00000e-13
251.21	1.70305e-5
252.17	4.17073e-6
253.14	1.00000e-13
254.11	1.00000e-13
255.09	1.05427e-5
256.06	3.30182e-5
257.02	6.95121e-7
258.00	3.24390e-6
258.97	1.00000e-13
259.93	1.00000e-13
260.91	1.94634e-5
261.87	1.00000e-13
262.85	1.00000e-13
263.81	7.99389e-6
264.78	3.09329e-5
265.75	1.00000e-13
266.73	1.37866e-5
267.69	1.00000e-13
268.66	2.30548e-5
269.63	1.00000e-13
270.61	1.00000e-13
271.57	1.00000e-13
272.54	2.24756e-5
273.51	1.00000e-13
274.48	1.00000e-13
275.45	1.00000e-13
276.43	1.00000e-13
277.39	1.00000e-13
278.36	1.00000e-13
279.33	1.00000e-13
280.30	1.00000e-13
281.27	1.00000e-13
282.24	1.00000e-13
283.21	1.00000e-13
284.18	1.00000e-13
285.15	4.28658e-6
286.12	2.18963e-5
287.09	3.38292e-5
288.06	1.00000e-13
289.03	1.00000e-13
290.00	1.00000e-13
290.97	1.00000e-13
291.94	1.73780e-6
292.91	1.00000e-13
293.88	1.00000e-13
294.85	1.00000e-13
295.82	1.00000e-13
296.79	1.00000e-13
297.76	1.62195e-5
298.73	1.00000e-13
299.70	1.00000e-13
300.67	1.00000e-13
301.64	1.00000e-13
302.61	1.00000e-13
303.58	1.00000e-13
304.55	6.37194e-6
305.52	1.00000e-13
306.49	1.00000e-13
307.46	1.00000e-13
308.43	1.00000e-13
309.40	1.00000e-13
310.37	1.00000e-13
311.34	1.00000e-13
312.31	2.68780e-5
313.28	1.00000e-13
314.25	1.00000e-13
315.22	1.00000e-13
316.19	1.00000e-13
317.16	1.00000e-13
318.13	1.00000e-13
319.10	1.00000e-13
320.07	6.37194e-6
321.04	1.00000e-13
322.01	8.10974e-6
322.98	1.00000e-13
323.95	1.00000e-13
324.92	1.00000e-13
325.89	1.00000e-13
326.86	9.49998e-6
327.83	1.00000e-13
328.80	1.00000e-13
329.77	1.00000e-13
330.74	1.00000e-13
331.71	1.00000e-13
332.68	1.00000e-13
333.65	1.00000e-13
334.62	1.00000e-13
335.59	1.00000e-13
336.56	1.00000e-13
337.53	3.00061e-5
338.50	1.00000e-13
339.47	1.00000e-13
340.44	1.00000e-13
341.41	1.00000e-13
342.38	1.00000e-13
343.34	1.00000e-13
344.31	9.96340e-6
345.29	1.00000e-13
346.26	1.00000e-13
347.22	9.38413e-6
348.20	1.00000e-13
349.17	1.00000e-13
350.14	1.00000e-13
351.10	1.00000e-13
352.07	1.00000e-13
353.04	1.96951e-6
354.02	1.00000e-13
354.98	1.00000e-13
355.96	1.00000e-13
356.93	1.00000e-13
357.89	1.00000e-13
358.86	1.00000e-13
359.84	1.00000e-13
360.80	1.00000e-13
361.77	1.00000e-13
362.74	1.00000e-13
363.71	1.00000e-13
364.69	1.00000e-13
365.66	1.00000e-13
366.62	1.00000e-13
367.60	1.00000e-13
368.56	1.00000e-13
369.53	1.00000e-13
370.50	1.00000e-13
371.47	1.00000e-13
372.44	1.00000e-13
373.41	1.00000e-13
374.38	1.00000e-13
375.35	1.00000e-13
376.32	1.00000e-13
377.29	1.00000e-13
378.26	1.00000e-13
379.23	1.00000e-13
380.20	1.00000e-13
381.17	1.00000e-13
382.14	1.00000e-13
383.11	1.00000e-13
384.08	1.00000e-13
385.05	1.00000e-13
386.02	1.00000e-13
386.99	1.00000e-13
387.96	1.00000e-13
388.93	1.00000e-13
389.90	1.00000e-13
390.87	1.00000e-13
391.84	1.00000e-13
392.81	1.00000e-13
393.78	1.35549e-5
394.75	1.00000e-13
395.72	1.00000e-13
396.69	1.00000e-13
397.66	1.00000e-13
398.63	1.00000e-13
399.60	1.00000e-13
400.57	1.00000e-13
401.54	1.00000e-13
402.51	1.00000e-13
403.48	2.44451e-5
404.45	1.00000e-13
405.42	1.00000e-13
406.39	6.60365e-6
407.36	5.32926e-6
408.33	1.00000e-13
409.30	1.00000e-13
410.27	1.00000e-13
411.24	1.62195e-6
412.21	8.57316e-6
413.18	1.00000e-13
414.15	1.00000e-13
415.12	1.00000e-13
416.09	1.00000e-13
417.06	1.00000e-13
418.03	1.00000e-13
419.00	1.00000e-13
419.97	1.00000e-13
420.94	1.00000e-13
421.91	1.00000e-13
422.88	1.00000e-13
423.85	1.00000e-13
424.82	1.00000e-13
425.79	1.00000e-13
426.76	1.00000e-13
427.73	1.00000e-13
428.70	1.00000e-13
429.67	1.00000e-13
430.64	1.00000e-13
431.61	1.00000e-13
432.58	1.00000e-13
433.55	1.00000e-13
434.52	1.00000e-13
435.49	2.08536e-6
436.46	1.00000e-13
437.43	1.00000e-13
438.40	1.00000e-13
439.37	1.00000e-13
440.34	1.00000e-13
441.31	1.00000e-13
442.28	1.00000e-13
443.25	1.00000e-13
444.21	1.00000e-13
445.19	1.00000e-13
446.16	1.00000e-13
447.12	1.00000e-13
448.09	1.00000e-13
449.07	1.00000e-13
450.03	1.00000e-13
451.00	1.00000e-13
451.97	1.00000e-13
452.94	1.00000e-13
453.91	1.00000e-13
454.88	1.00000e-13
455.85	1.00000e-13
456.82	1.00000e-13
457.80	1.00000e-13
458.76	1.00000e-13
459.73	1.00000e-13
460.70	1.00000e-13
461.67	1.00000e-13
462.65	1.00000e-13
463.61	1.00000e-13
464.58	1.00000e-13
465.55	1.00000e-13
466.53	1.00000e-13
467.49	1.00000e-13
468.46	1.00000e-13
469.43	1.00000e-13
470.41	1.00000e-13
471.37	1.00000e-13
472.34	1.00000e-13
473.31	1.00000e-13
474.28	1.00000e-13
475.25	1.00000e-13
476.22	1.00000e-13
477.19	1.00000e-13
478.16	1.00000e-13
479.13	3.01219e-6
480.10	1.00000e-13
481.07	1.00000e-13
482.04	1.00000e-13
483.01	1.74939e-5
483.98	1.00000e-13
484.95	1.00000e-13
485.92	1.00000e-13
486.89	2.66463e-6
487.86	1.00000e-13
488.83	1.00000e-13
489.80	1.00000e-13
490.77	1.00000e-13
491.74	1.00000e-13
492.71	1.00000e-13
493.68	1.00000e-13
494.65	1.00000e-13
495.62	1.00000e-13
496.59	1.00000e-13
497.56	1.00000e-13
498.53	1.00000e-13
499.50	1.00000e-13
500.47	1.00000e-13
501.44	1.00000e-13
502.41	1.00000e-13
503.38	1.00000e-13
504.35	1.00000e-13
505.32	1.00000e-13
506.29	1.00000e-13
507.26	1.00000e-13
508.23	2.31707e-6
509.20	1.00000e-13
510.17	1.00000e-13
511.14	1.00000e-13
512.11	1.00000e-13
513.08	1.00000e-13
514.05	1.00000e-13
515.02	1.04268e-6
515.99	1.62195e-6
516.96	1.00000e-13
517.93	1.00000e-13
518.90	1.00000e-13
519.87	1.00000e-13
520.84	1.00000e-13
521.81	1.00000e-13
522.78	1.00000e-13
523.75	1.00000e-13
524.72	1.00000e-13
525.69	1.00000e-13
526.66	1.00000e-13
527.63	1.00000e-13
528.60	1.00000e-13
529.57	8.22560e-6
530.54	1.00000e-13
531.51	1.00000e-13
532.48	1.00000e-13
533.45	1.00000e-13
534.42	1.00000e-13
535.39	1.00000e-13
536.36	1.00000e-13
537.33	1.00000e-13
538.30	1.00000e-13
539.27	1.00000e-13
540.24	1.00000e-13
541.21	1.00000e-13
542.18	1.00000e-13
543.14	1.00000e-13
544.11	1.00000e-13
545.09	1.00000e-13
546.06	1.00000e-13
547.03	1.00000e-13
547.99	2.78048e-6
548.96	1.00000e-13
549.93	1.00000e-13
550.91	1.00000e-13
551.88	1.00000e-13
552.85	1.00000e-13
553.82	1.00000e-13
554.79	1.00000e-13
555.75	1.00000e-13
556.72	1.00000e-13
557.70	1.00000e-13
558.66	1.00000e-13
559.63	1.00000e-13
560.60	1.00000e-13
561.57	1.00000e-13
562.54	1.00000e-13
563.51	1.00000e-13
564.48	1.00000e-13
565.46	1.00000e-13
566.42	1.00000e-13
567.39	1.00000e-13
568.36	1.00000e-13
569.34	1.00000e-13
570.30	1.00000e-13
571.27	1.00000e-13
572.24	1.00000e-13
573.21	1.00000e-13
574.18	1.00000e-13
575.15	1.00000e-13
576.12	1.00000e-13
577.09	1.00000e-13
578.06	1.00000e-13
579.03	1.00000e-13
580.00	1.00000e-13
580.97	1.00000e-13
581.94	1.00000e-13
582.91	1.00000e-13
583.88	1.00000e-13
584.85	1.00000e-13
585.82	1.00000e-13
586.79	1.00000e-13
587.76	1.00000e-13
588.73	1.00000e-13
589.70	1.00000e-13
590.67	1.00000e-13
591.64	1.00000e-13
592.61	1.00000e-13
593.58	1.00000e-13
594.55	4.28658e-6
595.52	1.00000e-13
596.49	1.00000e-13
597.46	1.00000e-13
598.43	2.20122e-6
599.40	1.00000e-13
600.37	1.00000e-13
601.34	1.00000e-13
602.31	1.00000e-13
603.28	1.00000e-13
604.25	1.00000e-13
605.22	1.00000e-13
606.19	1.00000e-13
607.16	1.00000e-13
608.13	9.26828e-7
609.10	1.00000e-13
610.07	1.00000e-13
611.04	1.00000e-13
612.01	1.00000e-13
612.98	1.00000e-13
613.95	1.00000e-13
614.92	1.00000e-13
615.89	1.00000e-13
616.86	1.00000e-13
617.83	1.00000e-13
618.80	1.00000e-13
619.77	1.00000e-13
620.74	1.00000e-13
621.71	1.00000e-13
622.68	6.95121e-6
623.65	1.00000e-13
624.62	1.00000e-13
625.59	1.00000e-13
626.56	1.00000e-13
627.53	1.00000e-13
628.50	1.00000e-13
629.47	1.00000e-13
630.44	1.00000e-13
631.41	1.00000e-13
632.38	1.00000e-13
633.35	1.00000e-13
634.32	1.00000e-13
635.29	1.00000e-13
636.26	1.00000e-13
637.23	1.00000e-13
638.20	1.00000e-13
639.17	1.00000e-13
640.14	8.45730e-6
641.11	1.00000e-13
642.08	1.00000e-13
643.05	1.00000e-13
644.02	1.00000e-13
644.98	1.00000e-13
645.95	1.00000e-13
646.93	1.00000e-13
647.90	1.00000e-13
648.87	1.00000e-13
649.84	1.00000e-13
650.81	1.00000e-13
651.78	1.00000e-13
652.75	1.00000e-13
653.71	1.00000e-13
654.68	1.00000e-13
655.65	1.00000e-13
656.63	1.00000e-13
657.59	1.00000e-13
658.57	1.00000e-13
659.54	1.15853e-6
660.50	1.00000e-13
661.47	1.00000e-13
662.45	1.00000e-13
663.41	1.00000e-13
664.38	1.00000e-13
665.35	1.00000e-13
666.32	1.00000e-13
667.29	1.00000e-13
668.27	1.00000e-13
669.23	1.00000e-13
670.20	1.00000e-13
671.17	1.73780e-6
672.14	1.00000e-13
673.11	6.60365e-6
674.08	1.00000e-13
675.05	1.00000e-13
676.02	1.00000e-13
676.99	1.00000e-13
677.96	5.67682e-6
678.93	1.00000e-13
679.90	1.00000e-13
680.87	1.00000e-13
681.84	1.00000e-13
682.81	1.00000e-13
683.78	1.00000e-13
684.75	1.00000e-13
685.72	1.00000e-13
686.69	1.50610e-6
687.66	1.00000e-13
688.63	1.00000e-13
689.60	1.00000e-13
690.57	1.00000e-13
691.54	1.00000e-13
692.51	1.14695e-5
693.48	1.00000e-13
694.45	1.00000e-13
695.42	1.00000e-13
696.39	1.00000e-13
697.36	1.00000e-13
698.33	1.00000e-13
699.30	1.00000e-13
700.27	1.00000e-13
701.24	1.00000e-13
702.21	1.00000e-13
703.18	1.00000e-13
704.15	1.00000e-13
705.12	1.36707e-5
706.09	1.00000e-13
707.06	1.00000e-13
708.03	1.00000e-13
709.00	1.00000e-13
709.97	1.00000e-13
710.94	1.00000e-13
711.91	1.00000e-13
712.88	1.00000e-13
713.85	1.00000e-13
714.82	1.00000e-13
715.79	1.54085e-5
716.76	1.00000e-13
717.73	1.00000e-13
718.70	1.00000e-13
719.67	1.00000e-13
720.64	1.00000e-13
721.61	1.00000e-13
722.58	1.00000e-13
723.55	1.00000e-13
724.52	1.00000e-13
725.49	1.00000e-13
726.46	1.00000e-13
727.43	1.00000e-13
728.40	1.00000e-13
729.37	1.00000e-13
730.34	1.00000e-13
731.31	1.00000e-13
732.28	1.00000e-13
733.25	1.00000e-13
734.22	1.00000e-13
735.19	1.00000e-13
736.16	1.00000e-13
737.12	1.00000e-13
738.09	1.00000e-13
739.07	1.00000e-13
740.04	1.00000e-13
741.01	1.00000e-13
741.98	1.00000e-13
742.94	1.00000e-13
743.92	1.00000e-13
744.89	1.00000e-13
745.85	1.00000e-13
746.83	1.00000e-13
747.79	1.00000e-13
748.77	1.00000e-13
749.73	1.00000e-13
750.70	1.00000e-13
751.67	1.00000e-13
752.64	1.00000e-13
753.62	1.00000e-13
754.59	1.00000e-13
755.55	1.00000e-13
756.52	1.00000e-13
757.49	1.00000e-13
758.47	1.00000e-13
759.44	1.00000e-13
760.41	1.00000e-13
761.37	1.00000e-13
762.34	1.00000e-13
763.32	1.00000e-13
764.29	1.00000e-13
765.25	1.00000e-13
766.22	1.00000e-13
767.19	1.00000e-13
768.16	1.00000e-13
769.14	1.00000e-13
770.10	1.00000e-13
771.07	1.00000e-13
772.04	1.00000e-13
773.01	1.00000e-13
773.98	1.00000e-13
774.95	1.00000e-13
775.92	1.00000e-13
776.89	1.00000e-13
777.86	1.00000e-13
778.83	1.00000e-13
779.80	1.00000e-13
780.77	1.00000e-13
781.74	1.00000e-13
782.71	1.00000e-13
783.68	1.00000e-13
784.65	1.00000e-13
785.62	1.00000e-13
786.59	1.00000e-13
787.56	1.00000e-13
788.53	1.00000e-13
789.50	1.27439e-6
790.47	1.00000e-13
791.44	1.00000e-13
792.41	1.00000e-13
793.38	1.00000e-13
794.35	1.00000e-13
795.32	1.00000e-13
796.29	1.00000e-13
797.26	1.00000e-13
798.23	1.00000e-13
799.20	1.00000e-13
800.17	1.00000e-13
801.14	1.00000e-13
802.11	1.00000e-13
803.08	1.00000e-13
804.05	4.40243e-6
805.02	1.00000e-13
805.99	1.00000e-13
806.96	1.00000e-13
807.93	1.00000e-13
808.90	1.00000e-13
809.87	1.00000e-13
810.84	1.00000e-13
811.81	1.00000e-13
812.78	1.00000e-13
813.75	1.00000e-13
814.72	1.04268e-6
815.69	1.00000e-13
816.66	1.00000e-13
817.63	1.00000e-13
818.60	1.00000e-13
819.57	1.00000e-13
820.54	1.00000e-13
821.51	1.00000e-13
822.48	1.00000e-13
823.45	1.00000e-13
824.42	1.00000e-13
825.39	1.00000e-13
826.36	1.00000e-13
827.33	1.00000e-13
828.30	1.00000e-13
829.27	2.01585e-5
830.24	1.00000e-13
831.21	1.00000e-13
832.18	1.00000e-13
833.15	1.00000e-13
834.12	1.00000e-13
835.09	1.00000e-13
836.06	1.00000e-13
837.03	1.00000e-13
838.00	1.00000e-13
838.97	1.00000e-13
839.94	1.00000e-13
840.91	7.06706e-6
841.88	1.00000e-13
842.85	1.00000e-13
843.82	1.00000e-13
844.78	1.00000e-13
845.76	1.00000e-13
846.73	1.00000e-13
847.70	1.00000e-13
848.66	1.00000e-13
849.63	1.00000e-13
850.61	3.35975e-6
851.57	1.00000e-13
852.55	1.00000e-13
853.51	1.00000e-13
854.48	1.62195e-6
855.45	1.00000e-13
856.42	1.00000e-13
857.39	1.00000e-13
858.36	1.00000e-13
859.33	1.00000e-13
860.31	1.00000e-13
861.27	1.00000e-13
862.24	1.00000e-13
863.21	1.00000e-13
864.18	1.00000e-13
865.15	1.00000e-13
866.12	1.00000e-13
867.09	1.00000e-13
868.07	1.00000e-13
869.04	1.00000e-13
870.01	1.00000e-13
870.97	1.00000e-13
871.94	1.00000e-13
872.91	1.00000e-13
873.88	1.00000e-13
874.85	1.00000e-13
875.82	1.00000e-13
876.79	1.00000e-13
877.76	1.00000e-13
878.73	1.00000e-13
879.70	1.00000e-13
880.67	1.00000e-13
881.64	1.00000e-13
882.61	1.00000e-13
883.58	1.00000e-13
884.55	1.00000e-13
885.52	1.00000e-13
886.49	4.98170e-6
887.46	1.00000e-13
888.43	1.00000e-13
889.40	1.00000e-13
890.37	1.00000e-13
891.34	1.00000e-13
892.31	1.00000e-13
893.28	1.00000e-13
894.25	1.00000e-13
895.22	1.00000e-13
896.19	1.00000e-13
897.16	1.00000e-13
898.13	3.38292e-5
899.10	1.00000e-13
900.07	1.00000e-13
901.04	1.00000e-13
902.01	1.00000e-13
902.98	1.41341e-5
903.95	1.00000e-13
904.92	1.00000e-13
905.89	1.00000e-13
906.86	1.00000e-13
907.83	1.00000e-13
908.80	1.00000e-13
909.77	1.00000e-13
910.74	1.00000e-13
911.71	1.00000e-13
912.68	4.74999e-6
913.65	1.00000e-13
914.62	1.06585e-5
915.59	1.00000e-13
916.56	1.00000e-13
917.53	1.00000e-13
918.50	1.00000e-13
919.47	1.00000e-13
920.44	1.00000e-13
921.41	1.00000e-13
922.38	1.00000e-13
923.35	1.00000e-13
924.32	1.00000e-13
925.29	1.00000e-13
926.26	1.00000e-13
927.23	1.00000e-13
928.20	1.00000e-13
929.17	1.00000e-13
930.14	1.00000e-13
931.11	1.00000e-13
932.08	1.00000e-13
933.05	1.00000e-13
934.02	1.00000e-13
934.99	1.00000e-13
935.96	1.00000e-13
936.93	1.00000e-13
937.90	1.00000e-13
938.87	1.00000e-13
939.84	1.00000e-13
940.81	1.00000e-13
941.78	1.00000e-13
942.74	1.00000e-13
943.72	1.00000e-13
944.69	1.00000e-13
945.66	1.00000e-13
946.63	1.00000e-13
947.59	1.00000e-13
948.57	1.00000e-13
949.54	1.00000e-13
950.50	1.00000e-13
951.48	1.00000e-13
952.44	1.00000e-13
953.41	1.00000e-13
954.39	1.00000e-13
955.35	1.00000e-13
956.32	1.00000e-13
957.29	9.26828e-7
958.26	2.54878e-6
959.24	1.00000e-13
960.20	1.00000e-13
961.17	1.00000e-13
962.15	1.00000e-13
963.12	1.00000e-13
964.08	1.00000e-13
965.05	1.00000e-13
966.02	1.00000e-13
967.00	1.00000e-13
967.97	1.00000e-13
968.94	1.00000e-13
969.91	1.00000e-13
970.88	1.00000e-13
971.85	1.00000e-13
972.82	1.00000e-13
973.78	1.00000e-13
974.75	1.00000e-13
975.72	1.00000e-13
976.69	1.00000e-13
977.66	1.00000e-13
978.63	1.00000e-13
979.60	1.00000e-13
980.57	1.00000e-13
981.54	2.78048e-6
982.51	1.00000e-13
983.48	1.00000e-13
984.45	7.53048e-6
985.42	1.00000e-13
986.39	1.00000e-13
987.36	1.00000e-13
988.33	1.00000e-13
989.30	1.00000e-13
990.27	1.00000e-13
991.24	1.00000e-13
992.21	1.00000e-13
993.18	1.00000e-13
994.15	1.00000e-13
995.12	1.00000e-13
996.09	1.00000e-13
997.06	1.00000e-13
998.03	1.00000e-13
999.00	1.00000e-13
999.97	2.31707e-7
1000.94	1.00000e-13
1001.91	1.00000e-13
1002.88	1.00000e-13
1003.85	1.00000e-13
1004.82	1.00000e-13
1005.79	1.00000e-13
1006.76	1.00000e-13
1007.73	1.00000e-13
1008.70	1.00000e-13
1009.67	1.00000e-13
1010.64	1.00000e-13
1011.61	1.00000e-13
1012.58	1.00000e-13
1013.55	1.00000e-13
1014.52	1.00000e-13
1015.49	1.00000e-13
1016.46	1.00000e-13
1017.43	1.00000e-13
1018.40	1.00000e-13
1019.37	1.00000e-13
1020.34	1.00000e-13
1021.31	1.00000e-13
1022.28	1.00000e-13
1023.25	1.00000e-13
1024.22	1.00000e-13
1025.19	1.00000e-13
1026.16	1.00000e-13
1027.13	1.00000e-13
1028.10	1.00000e-13
1029.07	1.00000e-13
1030.04	1.00000e-13
1031.01	1.00000e-13
1031.98	1.00000e-13
1032.95	1.00000e-13
1033.92	1.00000e-13
1034.89	1.00000e-13
1035.86	1.00000e-13
1036.83	1.00000e-13
1037.80	1.00000e-13
1038.77	1.00000e-13
1039.74	1.00000e-13
1040.71	1.00000e-13
1041.68	1.00000e-13
1042.65	1.00000e-13
1043.62	1.00000e-13
1044.59	1.00000e-13
1045.56	1.00000e-13
1046.53	1.00000e-13
1047.50	1.00000e-13
1048.47	1.00000e-13
1049.44	1.00000e-13
1050.40	1.00000e-13
1051.38	1.00000e-13
1052.34	1.00000e-13
1053.31	1.00000e-13
1054.29	1.00000e-13
1055.26	1.00000e-13
1056.22	1.00000e-13
1057.19	1.00000e-13
1058.16	1.00000e-13
1059.13	1.00000e-13
1060.10	1.00000e-13
1061.07	1.00000e-13
1062.04	1.00000e-13
1063.02	1.00000e-13
1063.98	1.00000e-13
1064.95	1.00000e-13
1065.92	1.00000e-13
1066.90	1.00000e-13
1067.86	1.00000e-13
1068.83	1.00000e-13
1069.80	1.00000e-13
1070.77	1.00000e-13
1071.74	1.00000e-13
1072.71	1.00000e-13
1073.69	1.00000e-13
1074.65	1.00000e-13
1075.62	1.00000e-13
1076.59	1.00000e-13
1077.56	1.00000e-13
1078.53	1.00000e-13
1079.50	2.44451e-5
1080.47	1.00000e-13
1081.44	1.00000e-13
1082.41	1.00000e-13
1083.38	1.00000e-13
1084.35	1.00000e-13
1085.32	1.00000e-13
1086.29	1.00000e-13
1087.26	1.00000e-13
1088.23	1.00000e-13
1089.20	1.00000e-13
1090.17	1.00000e-13
1091.14	1.00000e-13
1092.11	1.00000e-13
1093.08	1.00000e-13
1094.05	1.00000e-13
1095.02	1.00000e-13
1095.99	1.00000e-13
1096.96	1.00000e-13
1097.93	1.00000e-13
1098.90	1.00000e-13
1099.87	1.00000e-13
1100.84	1.00000e-13
1101.81	1.00000e-13
1102.78	1.00000e-13
1103.75	1.00000e-13
1104.72	9.73169e-6
1105.69	1.00000e-13
1106.66	1.00000e-13
1107.63	1.00000e-13
1108.60	1.00000e-13
1109.57	1.00000e-13
1110.54	1.00000e-13
1111.51	1.00000e-13
1112.48	1.00000e-13
1113.45	1.00000e-13
1114.42	1.00000e-13
1115.39	1.00000e-13
1116.36	1.00000e-13
1117.33	1.00000e-13
1118.30	1.00000e-13
1119.27	1.00000e-13
1120.24	1.00000e-13
1121.21	2.72256e-5
1122.18	1.14695e-5
1123.15	1.00000e-13
1124.12	1.00000e-13
1125.09	1.00000e-13
1126.06	1.00000e-13
1127.03	1.00000e-13
1128.00	1.00000e-13
1128.97	1.00000e-13
1129.94	1.00000e-13
1130.91	1.00000e-13
1131.88	1.00000e-13
1132.85	1.00000e-13
1133.82	1.00000e-13
1134.79	1.96951e-6
1135.76	1.00000e-13
1136.73	1.00000e-13
1137.70	1.00000e-13
1138.67	1.00000e-13
1139.64	5.79267e-7
1140.60	1.00000e-13
1141.58	1.00000e-13
1142.55	1.00000e-13
1143.51	1.00000e-13
1144.49	1.00000e-13
1145.45	1.00000e-13
1146.42	1.00000e-13
1147.39	1.00000e-13
1148.36	1.00000e-13
1149.33	1.00000e-13
1150.31	1.00000e-13
1151.28	1.00000e-13
1152.25	1.00000e-13
1153.22	4.05487e-6
1154.18	1.00000e-13
1155.16	1.00000e-13
1156.12	1.04268e-6
1157.10	1.00000e-13
1158.06	1.00000e-13
1159.03	1.00000e-13
1160.01	1.00000e-13
1160.98	1.00000e-13
1161.94	1.00000e-13
1162.91	1.00000e-13
1163.88	1.00000e-13
1164.85	1.00000e-13
1165.82	3.35975e-6
1166.79	1.00000e-13
1167.76	1.00000e-13
1168.74	1.00000e-13
1169.70	1.00000e-13
1170.67	1.00000e-13
1171.64	1.00000e-13
1172.61	1.00000e-13
1173.58	1.00000e-13
1174.55	1.00000e-13
1175.52	1.00000e-13
1176.49	1.00000e-13
1177.46	1.00000e-13
1178.43	1.00000e-13
1179.40	1.00000e-13
1180.37	1.00000e-13
1181.34	1.00000e-13
1182.31	1.00000e-13
1183.28	1.00000e-13
1184.25	1.00000e-13
1185.22	1.00000e-13
1186.19	1.00000e-13
1187.16	1.00000e-13
1188.13	1.00000e-13
1189.10	1.00000e-13
1190.07	1.00000e-13
1191.04	1.00000e-13
1192.01	2.31707e-6
1192.98	1.00000e-13
1193.95	1.00000e-13
1194.92	1.00000e-13
1195.89	1.00000e-13
1196.86	1.00000e-13
1197.83	1.00000e-13
1198.80	1.00000e-13
1199.77	1.00000e-13
1200.74	1.00000e-13
1201.71	1.00000e-13
1202.68	1.00000e-13
1203.65	1.00000e-13
1204.62	1.00000e-13
1205.59	1.00000e-13
1206.56	1.00000e-13
1207.53	1.00000e-13
1208.50	1.00000e-13
1209.47	1.00000e-13
1210.44	1.00000e-13
1211.41	1.00000e-13
1212.38	1.00000e-13
1213.35	1.00000e-13
1214.32	1.00000e-13
1215.29	1.00000e-13
1216.26	1.00000e-13
1217.23	1.00000e-13
1218.20	1.00000e-13
1219.17	1.00000e-13
1220.14	1.00000e-13
1221.11	1.00000e-13
1222.08	1.00000e-13
1223.05	6.83536e-6
1224.02	1.00000e-13
1224.99	1.00000e-13
1225.96	1.00000e-13
1226.93	1.00000e-13
1227.90	1.00000e-13
1228.87	3.47560e-6
1229.84	1.00000e-13
1230.81	1.00000e-13
1231.78	1.00000e-13
1232.75	1.00000e-13
1233.72	1.00000e-13
1234.69	1.00000e-13
1235.66	3.59146e-6
1236.63	1.00000e-13
1237.60	1.00000e-13
1238.57	1.00000e-13
1239.54	1.00000e-13
1240.51	1.00000e-13
1241.48	1.00000e-13
1242.45	1.00000e-13
1243.41	1.00000e-13
1244.39	1.00000e-13
1245.36	1.00000e-13
1246.32	2.08536e-6
1247.30	1.00000e-13
1248.27	1.00000e-13
1249.23	1.00000e-13
1250.20	1.00000e-13
1251.18	1.00000e-13
1252.15	1.00000e-13
1253.12	1.00000e-13
1254.09	1.00000e-13
1255.05	1.00000e-13
1256.03	1.00000e-13
1257.00	1.00000e-13
1257.96	1.00000e-13
1258.94	1.00000e-13
1259.90	1.00000e-13
1260.88	1.00000e-13
1261.85	1.00000e-13
1262.81	1.00000e-13
1263.78	1.00000e-13
1264.75	1.98109e-5
1265.72	1.00000e-13
1266.70	1.00000e-13
1267.66	1.00000e-13
1268.63	1.00000e-13
1269.60	1.00000e-13
1270.57	1.00000e-13
1271.54	5.03963e-5
1272.51	2.50244e-4
1273.48	4.51481e-4
1274.45	1.11903e-3
1275.42	2.45945e-3
1276.39	4.90952e-3
1277.36	9.45254e-3
1278.33	0.0167580
1279.30	0.0273619
1280.27	0.0356664
1281.24	0.0342723
1282.21	0.0225592
1283.18	0.0124774
1284.15	6.22967e-3
1285.12	3.45823e-3
1286.09	1.91900e-3
1287.06	1.03330e-3
1288.03	7.18407e-4
1289.00	3.02725e-4
1289.97	2.13402e-4
1290.94	1.25006e-4
1291.91	1.47366e-4
1292.88	5.20182e-5
1293.85	2.74573e-5
1294.82	6.99755e-5
1295.79	3.04695e-5
1296.76	1.00000e-13
1297.73	1.00000e-13
1298.70	1.00000e-13
1299.67	4.51829e-6
1300.64	1.00000e-13
1301.61	1.00000e-13
1302.58	1.00000e-13
1303.55	1.00000e-13
1304.52	1.00000e-13
1305.49	2.24756e-5
1306.46	1.00000e-13
1307.43	1.00000e-13
1308.40	2.32865e-5
1309.37	1.00000e-13
1310.34	2.40975e-5
1311.31	1.00000e-13
1312.28	1.00000e-13
1313.25	1.00000e-13
1314.22	1.00000e-13
1314.54	1.00000e-13