File: data/TGA/005d-L_M/F2.txt
Filename	F2
Instrument name
Operator	Gwenael
rundate	2025-02-10
Sample name	F2
[step]
Step 1
Time	Temperature	Weight	Weight	Deriv. Weight
min	°C	mg	%	% / °C
0.02	26.50	2.993	100.055	1.90968e-3
0.96	27.69	2.998	100.227	1.25162e-3
1.96	29.50	3.000	100.300	7.67940e-4
2.96	32.77	3.000	100.309	4.70068e-4
3.96	37.25	3.000	100.301	2.00191e-4
4.96	42.28	3.001	100.334	-6.82384e-5
5.96	47.37	3.001	100.320	-1.92531e-4
6.96	52.29	3.000	100.300	-3.61738e-4
7.96	57.06	3.000	100.289	-5.58477e-4
8.96	61.75	3.000	100.286	-1.22299e-3
9.96	66.48	2.998	100.251	-1.94002e-3
10.96	71.30	2.999	100.275	-2.65973e-3
11.96	76.22	2.999	100.272	-3.42862e-3
12.96	81.22	2.998	100.248	-4.20083e-3
13.96	86.28	2.999	100.277	-4.98486e-3
14.96	91.35	2.998	100.225	-5.89730e-3
15.96	96.37	2.997	100.212	-6.98311e-3
16.96	100.23	2.996	100.160	-8.31005e-3
17.96	102.31	2.994	100.108	-9.70498e-3
18.96	103.02	2.993	100.076	-0.0114239
19.96	102.90	2.990	99.969	-0.0132265
20.96	102.39	2.991	99.988	-0.0143202
21.96	101.74	2.990	99.951	-0.0130276
22.96	101.09	2.989	99.928	-9.10921e-3
23.96	100.50	2.988	99.906	-5.42821e-3
24.96	100.06	2.988	99.890	-3.37820e-3
25.96	100.69	2.988	99.911	-2.37968e-3
26.96	103.47	2.989	99.943	-1.84411e-3
27.96	107.74	2.989	99.923	-1.51637e-3
28.96	112.54	2.989	99.920	-1.30663e-3
29.96	117.34	2.988	99.901	-1.15085e-3
30.96	122.07	2.988	99.900	-1.12240e-3
31.96	126.83	2.988	99.900	-1.25417e-3
32.96	131.66	2.988	99.886	-1.51030e-3
33.96	136.59	2.987	99.879	-1.85493e-3
34.96	141.59	2.987	99.879	-2.14626e-3
35.96	146.63	2.986	99.841	-2.35390e-3
36.96	151.70	2.987	99.851	-2.49500e-3
37.96	156.76	2.987	99.861	-2.62332e-3
38.96	161.82	2.986	99.842	-2.81112e-3
39.96	166.86	2.985	99.810	-2.94285e-3
40.96	171.87	2.985	99.797	-3.04860e-3
41.96	176.87	2.984	99.770	-3.11818e-3
42.96	181.88	2.983	99.746	-3.13600e-3
43.96	186.89	2.983	99.740	-3.09167e-3
44.96	191.90	2.983	99.728	-3.00205e-3
45.96	196.90	2.982	99.708	-2.86402e-3
46.96	201.90	2.982	99.690	-2.65081e-3
47.96	206.89	2.981	99.681	-2.38139e-3
48.96	211.89	2.981	99.671	-2.17004e-3
49.96	216.90	2.981	99.659	-2.01239e-3
50.96	221.90	2.981	99.654	-1.86490e-3
51.96	226.91	2.980	99.643	-1.81161e-3
52.96	231.92	2.980	99.642	-1.74989e-3
53.96	236.93	2.980	99.621	-1.72310e-3
54.96	241.94	2.980	99.620	-1.79523e-3
55.96	246.95	2.980	99.618	-1.95650e-3
56.96	251.97	2.980	99.616	-2.21733e-3
57.96	256.97	2.979	99.599	-2.67581e-3
58.96	261.98	2.979	99.608	-3.31754e-3
59.96	266.99	2.978	99.569	-4.06041e-3
60.96	271.99	2.978	99.567	-4.94504e-3
61.96	277.00	2.977	99.536	-5.94741e-3
62.96	282.01	2.977	99.522	-7.16538e-3
63.96	287.02	2.975	99.477	-8.52914e-3
64.96	292.04	2.974	99.448	-0.0101040
65.96	296.79	2.973	99.391	-0.0119357
66.96	299.70	2.971	99.324	-0.0141684
67.96	301.12	2.969	99.276	-0.0167826
68.96	301.80	2.967	99.211	-0.0201207
69.96	301.89	2.966	99.166	-0.0242116
70.96	301.57	2.964	99.090	-0.0296274
71.96	301.05	2.963	99.055	-0.0361901
72.96	300.51	2.961	99.005	-0.0383102
73.96	300.08	2.960	98.970	0.0141275
74.96	299.80	2.959	98.922	0.175357
75.96	299.67	2.957	98.876	0.219219
76.96	299.67	2.956	98.833	0.211046
77.96	299.74	2.955	98.796	0.208129
78.96	299.84	2.953	98.742	0.210624
79.96	299.94	2.952	98.708	0.172655
80.96	300.02	2.951	98.674	-0.135024
81.96	300.06	2.950	98.617	-0.833189
82.96	300.08	2.949	98.584	-1.06265
83.96	300.07	2.948	98.546	-1.02309
84.96	300.05	2.945	98.469	-1.00577
85.96	300.03	2.945	98.456	-0.933611
86.96	300.01	2.943	98.408	-0.300131
87.96	299.99	2.942	98.372	2.27927
88.96	299.99	2.941	98.325	4.70349
89.96	299.99	2.940	98.291	4.87208
90.96	299.99	2.939	98.251	4.75804
91.96	299.99	2.937	98.194	4.84269
92.96	300.00	2.936	98.165	4.56298
93.96	300.00	2.935	98.123	0.539804
94.96	300.00	2.934	98.079	-13.5511
95.96	300.00	2.932	98.031	-21.3843
96.96	300.00	2.931	97.997	-20.6859
97.96	300.00	2.930	97.948	-18.7621
98.96	300.00	2.928	97.904	-12.7745
99.96	300.00	2.927	97.864	7.60366
100.96	300.00	2.926	97.818	47.2320
101.96	300.00	2.924	97.769	34.2991
102.96	300.00	2.924	97.746	6.89058
103.96	300.00	2.922	97.682	-15.7844
104.96	300.00	2.920	97.630	-32.9962
105.96	300.00	2.919	97.606	-38.7847
106.96	300.00	2.918	97.551	-45.1573
107.96	300.00	2.917	97.512	-53.0048
108.96	300.00	2.915	97.471	-52.8916
109.96	300.00	2.914	97.416	-38.5210
110.96	300.00	2.912	97.374	7.81762
111.96	300.00	2.911	97.320	43.3931
112.96	300.00	2.911	97.310	56.7856
113.96	300.00	2.909	97.245	56.7128
114.96	300.00	2.907	97.205	51.7925
115.96	300.00	2.906	97.143	48.9244
116.96	300.00	2.904	97.105	26.3390
117.96	300.00	2.903	97.051	8.66183
118.96	300.00	2.902	97.016	-23.1902
119.96	300.00	2.900	96.966	-55.2048
120.96	300.00	2.899	96.929	-61.3200
121.96	300.00	2.898	96.876	-62.5144
122.96	300.00	2.896	96.839	-30.2342
123.96	300.00	2.895	96.790	-0.199548
124.96	300.00	2.894	96.743	20.4112
125.96	300.00	2.892	96.696	14.1904
126.96	300.00	2.891	96.646	15.0414
127.96	300.00	2.890	96.608	46.1473
128.96	300.00	2.888	96.572	90.4361
129.96	300.00	2.887	96.524	101.814
130.96	300.00	2.885	96.470	101.479
131.96	300.00	2.885	96.446	85.1502
132.96	300.00	2.883	96.394	60.0804
133.96	300.00	2.881	96.334	18.5581
134.96	300.00	2.880	96.282	-28.1168
135.96	300.00	2.879	96.258	-56.3412
136.96	300.00	2.878	96.220	-67.6056
137.96	300.00	2.876	96.163	-83.1790
138.96	300.00	2.875	96.120	-90.4301
139.96	300.00	2.874	96.080	-88.2472
140.96	300.00	2.872	96.038	-87.3889
141.96	300.00	2.871	95.998	-87.1696
142.96	300.00	2.870	95.941	-89.9481
143.96	300.00	2.868	95.895	-91.5414
144.96	300.00	2.867	95.851	-90.9919
145.96	300.00	2.866	95.808	-96.7560
146.96	300.00	2.864	95.767	-103.876
147.96	300.00	2.863	95.717	-41.8932
148.96	300.00	2.862	95.674	21.1487
149.96	300.00	2.861	95.638	45.7624
150.96	300.00	2.859	95.579	53.4476
151.96	300.00	2.858	95.547	55.6649
152.96	300.00	2.856	95.501	57.2169
153.96	300.00	2.855	95.460	66.4952
154.96	300.00	2.854	95.417	61.8034
155.96	300.00	2.852	95.361	59.1509
156.96	300.00	2.852	95.364	59.1527
157.96	300.00	2.850	95.293	51.9141
158.96	300.00	2.849	95.246	49.6512
159.96	300.00	2.848	95.205	50.2323
160.96	300.00	2.845	95.127	47.3081
161.96	300.00	2.846	95.160	37.0390
162.96	300.00	2.844	95.093	5.73762
163.96	300.00	2.843	95.052	-56.8671
164.96	300.00	2.842	95.006	-73.0317
165.96	300.00	2.841	94.970	-26.1401
166.96	300.00	2.839	94.927	33.5879
167.96	300.00	2.838	94.885	66.1143
168.96	300.00	2.837	94.842	90.9279
169.96	300.00	2.835	94.800	104.425
170.96	300.00	2.834	94.762	102.532
171.96	300.00	2.833	94.717	80.7915
172.96	300.00	2.832	94.678	28.9067
173.96	300.00	2.831	94.640	-29.3838
174.96	300.00	2.830	94.603	-52.3204
175.96	300.00	2.828	94.563	-44.7550
176.96	300.00	2.827	94.512	-41.4695
177.96	300.00	2.825	94.466	-44.9284
178.96	300.00	2.824	94.431	-47.8561
179.96	300.00	2.823	94.396	-59.1009
180.96	300.00	2.822	94.357	-60.5609
181.96	300.00	2.820	94.278	-60.5430
182.96	300.00	2.819	94.254	-48.3172
183.96	300.00	2.818	94.220	-29.0678
184.96	300.00	2.817	94.170	-25.8961
185.96	300.00	2.815	94.122	-19.8630
186.96	300.00	2.814	94.087	17.5646
187.96	300.00	2.813	94.050	46.9119
188.96	300.00	2.812	94.021	27.2245
189.96	300.00	2.811	93.975	-12.0443
190.96	300.00	2.809	93.921	-21.7382
191.96	300.00	2.808	93.886	0.303653
192.96	300.00	2.807	93.846	32.0193
193.96	300.00	2.806	93.804	47.5257
194.96	300.00	2.805	93.765	37.6622
195.96	300.00	2.803	93.719	38.9462
196.96	300.00	2.802	93.681	26.4572
197.96	300.00	2.801	93.639	36.0743
198.96	300.00	2.800	93.606	11.2158
199.96	300.00	2.798	93.547	-12.5548
200.96	300.00	2.797	93.513	-3.82259
201.96	300.00	2.796	93.481	-31.7397
202.96	300.00	2.795	93.434	-37.2863
203.96	300.00	2.794	93.403	-22.7815
204.96	300.00	2.792	93.362	-22.1542
205.96	300.00	2.792	93.332	-46.7154
206.96	300.00	2.790	93.282	-56.6334
207.96	300.00	2.789	93.250	-40.1759
208.96	300.00	2.788	93.212	-13.8027
209.96	300.00	2.786	93.156	35.4274
210.96	300.00	2.785	93.124	73.4887
211.96	300.00	2.784	93.092	87.3850
212.96	300.00	2.783	93.050	108.847
213.96	300.00	2.781	92.987	105.766
214.96	300.00	2.781	92.964	100.711
215.96	300.00	2.779	92.925	55.8963
216.96	300.00	2.778	92.887	8.43359
217.96	300.00	2.777	92.854	-27.2028
218.96	300.00	2.776	92.812	-63.3436
219.96	300.00	2.775	92.770	-66.2076
220.96	300.00	2.774	92.735	-75.9301
221.96	300.00	2.773	92.700	-64.1877
222.96	300.00	2.771	92.655	-53.1675
223.96	300.00	2.770	92.614	-70.7836
224.96	300.00	2.769	92.566	-92.3793
225.96	300.00	2.768	92.541	-99.6732
226.96	300.00	2.767	92.508	-96.2741
227.96	300.00	2.766	92.482	-75.9467
228.96	300.00	2.765	92.428	-46.9754
229.96	300.00	2.764	92.410	-22.9880
230.96	300.00	2.762	92.357	-14.1849
231.96	300.00	2.761	92.318	-6.36104
232.96	300.00	2.760	92.288	-9.92109
233.96	300.00	2.759	92.258	-15.1683
234.96	300.00	2.758	92.211	-29.3428
235.96	300.00	2.757	92.188	-27.1853
236.96	300.00	2.756	92.150	-32.8579
237.96	300.00	2.755	92.105	-24.8084
238.96	300.00	2.754	92.076	8.26897
239.96	300.00	2.753	92.041	22.0252
240.96	300.00	2.752	92.012	13.2059
241.96	300.00	2.751	91.976	-18.0205
242.96	300.00	2.750	91.938	-69.3851
243.96	300.00	2.749	91.906	-89.1337
244.96	300.00	2.748	91.867	-78.8745
245.96	300.00	2.747	91.831	-75.0114
246.96	300.00	2.746	91.798	-72.5823
247.96	300.00	2.745	91.764	-75.2416
248.96	300.00	2.744	91.741	-37.4941
249.96	300.00	2.743	91.697	8.65243
250.96	300.00	2.742	91.669	15.8184
251.96	300.00	2.741	91.637	28.0558
252.96	300.00	2.740	91.625	33.1945
253.96	300.00	2.739	91.564	24.0728
254.96	300.00	2.738	91.544	47.1604
255.96	300.00	2.737	91.495	70.6024
256.96	300.00	2.735	91.456	80.3284
257.96	300.00	2.734	91.423	90.1964
258.96	300.00	2.734	91.393	87.9100
259.96	300.00	2.733	91.380	85.3907
260.96	300.00	2.732	91.335	83.1409
261.96	300.00	2.732	91.335	85.6386
262.96	300.00	2.731	91.292	82.1248
263.96	300.00	2.729	91.244	54.1662
264.96	300.00	2.728	91.211	14.0429
265.96	300.00	2.727	91.183	-12.4487
266.96	300.00	2.726	91.149	-11.8815
267.96	300.00	2.726	91.125	-17.6240
268.96	300.00	2.725	91.095	-8.43552
269.96	300.00	2.724	91.065	-3.40008
270.96	300.00	2.723	91.024	-14.8340
271.96	300.00	2.721	90.985	-35.9573
272.96	300.00	2.721	90.959	-49.4830
273.96	300.00	2.720	90.949	-61.6596
274.96	300.00	2.719	90.914	-62.2800
275.96	300.00	2.718	90.882	-67.8060
276.96	300.00	2.717	90.847	-55.7101
277.96	300.00	2.716	90.820	-33.0412
278.96	300.00	2.715	90.774	0.434766
279.96	300.00	2.715	90.763	18.4339
280.96	300.00	2.714	90.733	30.2684
281.96	300.00	2.713	90.709	28.8472
282.96	300.00	2.712	90.680	30.8463
283.96	300.00	2.712	90.656	35.7134
284.96	300.00	2.710	90.619	31.5287
285.96	300.00	2.709	90.588	30.6292
286.96	300.00	2.709	90.562	39.3385
287.96	300.00	2.708	90.542	33.2138
288.96	300.00	2.707	90.504	19.7562
289.96	300.00	2.706	90.481	-2.21098
290.96	300.00	2.706	90.456	-22.4265
291.96	300.00	2.705	90.425	-57.3252
292.96	300.00	2.704	90.398	-67.5316
293.96	300.00	2.703	90.367	-58.2256
294.96	300.00	2.702	90.345	-44.1277
295.96	300.00	2.701	90.306	-39.8845
296.96	300.00	2.700	90.270	-46.2462
297.96	300.00	2.700	90.264	-44.5427
298.96	300.00	2.699	90.234	-41.9070
299.96	300.00	2.698	90.209	-36.8186
300.96	300.00	2.697	90.187	-12.7289
301.96	300.00	2.696	90.146	12.5006
302.96	300.00	2.696	90.127	12.4942
303.96	300.00	2.695	90.114	0.228586
304.96	300.00	2.694	90.072	-19.3497
305.96	300.00	2.693	90.053	-27.1492
306.96	300.00	2.693	90.032	-20.2350
307.96	300.00	2.692	90.007	-5.70354
308.96	300.00	2.691	89.977	3.46454
309.96	300.00	2.690	89.953	21.7719
310.96	300.00	2.689	89.918	32.6367
311.96	300.00	2.689	89.901	45.1357
312.96	300.00	2.688	89.875	47.2048
313.96	300.00	2.687	89.838	40.6163
314.96	300.00	2.687	89.820	31.3043
315.96	300.00	2.686	89.794	17.5711
316.96	300.00	2.685	89.767	1.71432
317.96	300.00	2.684	89.748	3.91792
318.96	300.00	2.684	89.720	10.4667
319.96	300.00	2.683	89.694	3.73508
320.96	300.00	2.682	89.660	-12.0339
321.96	300.00	2.681	89.637	-56.4730
322.96	300.00	2.680	89.618	-68.7174
323.96	300.00	2.680	89.598	-36.3930
324.96	300.00	2.679	89.567	-1.38544
325.96	300.00	2.678	89.550	11.2291
326.96	300.00	2.677	89.511	25.3284
327.96	300.00	2.677	89.497	35.1576
328.96	300.00	2.676	89.474	51.9124
329.96	300.00	2.676	89.454	49.3377
330.96	300.00	2.675	89.427	38.1945
331.96	300.00	2.674	89.388	23.5650
332.96	300.00	2.673	89.367	16.4643
333.96	300.00	2.672	89.334	8.83817
334.96	300.00	2.672	89.331	-8.19845
335.96	300.00	2.671	89.307	-20.3274
336.96	300.00	2.670	89.283	-32.0296
337.96	300.00	2.669	89.248	-50.0591
338.96	300.00	2.669	89.221	-63.6169
339.96	300.00	2.668	89.202	-66.2319
340.96	300.00	2.667	89.178	-67.5050
341.96	300.00	2.667	89.151	-60.8006
342.96	300.00	2.666	89.131	-47.6464
343.96	300.00	2.665	89.103	-19.7815
344.96	300.00	2.664	89.083	19.8866
345.96	300.00	2.663	89.043	47.7896
346.96	300.00	2.663	89.028	45.7828
347.96	300.00	2.662	89.010	49.6332
348.96	300.00	2.661	88.980	35.8805
349.96	300.00	2.661	88.958	27.4066
350.96	300.00	2.660	88.941	26.1421
351.96	300.00	2.659	88.912	8.31360
352.96	300.00	2.659	88.894	9.64202
353.96	300.00	2.658	88.864	16.3345
354.96	300.00	2.657	88.840	16.2198
355.96	300.00	2.657	88.829	1.36742
356.96	300.00	2.656	88.799	-18.4232
357.96	300.00	2.656	88.784	-29.3370
358.96	300.00	2.655	88.752	-18.7021
359.96	300.00	2.653	88.714	-14.7108
360.96	300.00	2.653	88.702	-12.5364
361.96	300.00	2.653	88.694	7.71737
362.96	300.00	2.652	88.668	4.02360
363.96	300.00	2.651	88.649	11.5745
364.96	300.00	2.651	88.626	33.6600
365.96	300.00	2.650	88.602	24.1653
366.96	300.00	2.649	88.576	2.68199
367.96	300.00	2.649	88.562	-1.23433
368.96	300.00	2.648	88.533	-12.7263
369.96	300.00	2.647	88.515	-24.9179
370.96	300.00	2.647	88.492	-9.13598
371.96	300.00	2.646	88.477	15.7866
372.96	300.00	2.646	88.451	22.4304
373.96	300.00	2.645	88.434	16.3113
374.96	300.00	2.645	88.419	20.5985
375.96	300.00	2.644	88.382	29.1021
376.96	300.00	2.643	88.371	7.83258
377.96	300.00	2.643	88.352	5.46165
378.96	300.00	2.642	88.320	3.62067
379.96	300.00	2.641	88.311	-5.13316
380.96	300.00	2.641	88.286	-11.0412
381.96	300.00	2.640	88.252	-5.24482
382.96	300.00	2.640	88.249	-13.4789
383.96	300.00	2.638	88.213	-19.1821
384.96	300.00	2.638	88.195	-6.41133
385.96	300.00	2.637	88.179	-15.2659
386.96	300.00	2.637	88.152	-26.7229
387.96	300.00	2.636	88.135	-20.7992
388.96	300.00	2.635	88.110	0.0438598
389.96	300.00	2.635	88.095	20.3897
390.96	300.00	2.634	88.073	20.2106
391.96	300.00	2.634	88.064	20.6684
392.96	300.00	2.633	88.031	12.3711
393.96	300.00	2.632	87.996	-1.93846
394.96	300.00	2.632	87.981	-0.0684188
395.96	300.00	2.631	87.975	-1.79239
396.96	300.00	2.631	87.957	-13.9446
397.96	300.00	2.630	87.936	-28.6817
398.96	300.00	2.629	87.898	-40.2976
399.96	300.00	2.629	87.893	-43.4404
400.96	300.00	2.628	87.861	-40.5173
401.96	300.00	2.628	87.850	-42.3930
402.96	300.00	2.627	87.840	-51.9285
403.96	300.00	2.626	87.798	-56.4278
404.96	300.00	2.626	87.783	-44.4920
405.96	300.00	2.625	87.769	-23.0448
406.96	300.00	2.625	87.759	6.50686
407.96	300.00	2.624	87.718	22.3611
408.96	300.00	2.624	87.740	27.2793
409.96	300.00	2.623	87.708	23.3194
410.96	300.00	2.622	87.674	27.7883
411.96	300.00	2.622	87.650	30.6349
412.96	300.00	2.621	87.626	36.1064
413.96	300.00	2.620	87.613	28.1966
414.96	300.00	2.620	87.595	23.6490
415.96	300.00	2.619	87.577	9.68653
416.96	300.00	2.619	87.557	-0.958426
417.96	300.00	2.618	87.537	-2.32756
418.96	300.00	2.618	87.520	-11.5710
419.96	300.00	2.617	87.509	-19.5829
420.96	300.00	2.617	87.483	-26.7749
421.96	300.00	2.616	87.460	-23.5832
422.96	300.00	2.615	87.435	-19.0836
423.96	300.00	2.615	87.422	-8.48654
424.96	300.00	2.614	87.406	12.2122
425.96	300.00	2.613	87.377	32.0999
426.96	300.00	2.613	87.364	34.1998
427.96	300.00	2.612	87.342	32.5097
428.96	300.00	2.612	87.332	39.4165
429.96	300.00	2.612	87.315	34.7585
430.96	300.00	2.611	87.282	22.4197
431.96	300.00	2.610	87.270	24.3702
432.96	300.00	2.610	87.253	16.8040
433.96	300.00	2.608	87.209	12.3728
434.96	300.00	2.609	87.222	6.76924
435.96	300.00	2.608	87.199	-0.998642
436.96	300.00	2.608	87.185	8.96138
437.96	300.00	2.607	87.165	24.6915
438.96	300.00	2.606	87.144	6.14989
439.96	300.00	2.606	87.130	-4.35455
440.96	300.00	2.606	87.114	-4.01140
441.96	300.00	2.605	87.086	10.3573
442.96	300.00	2.604	87.074	28.9329
443.96	300.00	2.604	87.055	36.0858
444.96	300.00	2.603	87.037	40.6645
445.96	300.00	2.603	87.017	37.5807
446.96	300.00	2.602	87.009	23.8468
447.96	300.00	2.601	86.977	16.4466
448.96	300.00	2.601	86.957	18.6515
449.96	300.00	2.601	86.946	22.0535
450.96	300.00	2.600	86.930	29.2728
451.96	300.00	2.600	86.913	11.0634
452.96	300.00	2.599	86.897	0.160041
453.96	300.00	2.598	86.867	2.49051
454.96	300.00	2.598	86.852	8.22404
455.96	300.00	2.597	86.841	-9.46131
456.96	300.00	2.597	86.822	-27.0368
457.96	300.00	2.597	86.811	-39.5379
458.96	300.00	2.596	86.785	-42.3372
459.96	300.00	2.595	86.764	-23.9216
460.96	300.00	2.595	86.748	-21.5338
461.96	300.00	2.594	86.728	-23.7688
462.96	300.00	2.594	86.712	-31.4795
463.96	300.00	2.593	86.688	-33.8326
464.96	300.00	2.592	86.669	-17.6081
465.96	300.00	2.592	86.644	-1.89914
466.96	300.00	2.591	86.624	2.28885
467.96	300.00	2.590	86.602	8.60627
468.96	300.00	2.590	86.599	-3.34280
469.96	300.00	2.590	86.583	-13.3920
470.96	300.00	2.589	86.561	-18.1606
471.96	300.00	2.589	86.544	-14.3822
472.96	300.00	2.588	86.519	-12.4796
473.96	300.00	2.587	86.488	-8.19433
474.96	300.00	2.587	86.496	-9.38044
475.96	300.00	2.587	86.479	11.5908
476.96	300.00	2.585	86.442	25.3946
477.96	300.00	2.585	86.423	7.43222
478.96	300.00	2.585	86.420	-14.2859
479.96	300.00	2.584	86.398	-20.5527
480.96	300.00	2.584	86.385	-21.9336
481.96	300.00	2.583	86.348	-12.5816
482.96	300.00	2.583	86.347	-2.72244
483.96	300.00	2.582	86.318	6.31885
484.96	300.00	2.581	86.298	12.5583
485.96	300.00	2.581	86.287	13.0714
486.96	300.00	2.580	86.268	11.4000
487.96	300.00	2.580	86.244	-7.30616
488.96	300.00	2.579	86.229	-23.4643
489.96	300.00	2.579	86.216	-20.5659
490.96	300.00	2.579	86.209	-9.25605
491.96	300.00	2.577	86.173	21.7817
492.96	300.00	2.577	86.161	47.6249
493.96	300.00	2.577	86.152	40.0478
494.96	300.00	2.576	86.120	34.2715
495.96	300.00	2.576	86.117	25.8608
496.96	300.00	2.575	86.082	33.5231
497.96	300.00	2.575	86.080	29.7589
498.96	300.00	2.573	86.041	18.1654
499.96	300.00	2.573	86.027	3.67177
500.96	300.00	2.572	86.000	-9.14127
501.96	300.00	2.572	86.006	-9.77379
502.96	300.00	2.571	85.970	-6.95799
503.96	300.00	2.571	85.957	-12.1287
504.96	300.00	2.571	85.943	-17.5431
505.96	300.00	2.570	85.929	-24.8567
506.96	300.00	2.570	85.916	-35.2456
507.96	300.00	2.569	85.887	-35.8801
508.96	300.00	2.568	85.868	-34.3821
509.96	300.00	2.568	85.849	-29.5503
510.96	300.00	2.567	85.838	-31.6381
511.96	300.00	2.567	85.818	-28.6623
512.96	300.00	2.566	85.802	-20.1369
513.96	300.00	2.566	85.777	-0.681882
514.96	300.00	2.566	85.776	16.6123
515.96	300.00	2.565	85.751	26.1101
516.96	300.00	2.565	85.746	27.9466
517.96	300.00	2.564	85.711	28.0830
518.96	300.00	2.563	85.695	35.1548
519.96	300.00	2.562	85.670	42.4874
520.96	300.00	2.562	85.661	42.9980
521.96	300.00	2.561	85.637	51.4522
522.96	300.00	2.561	85.637	54.1050
523.96	300.00	2.560	85.600	41.6553
524.96	300.00	2.560	85.604	15.5405
525.96	300.00	2.560	85.591	-15.2371
526.96	300.00	2.559	85.547	-20.3900
527.96	300.00	2.559	85.545	-28.4651
528.96	300.00	2.558	85.530	-27.6178
529.96	300.00	2.557	85.505	-23.3390
530.96	300.00	2.557	85.502	-23.3387
531.96	300.00	2.557	85.475	-23.7866
532.96	300.00	2.556	85.454	-22.8657
533.96	300.00	2.555	85.439	-21.7059
534.96	300.00	2.555	85.422	-20.6000
535.96	300.00	2.555	85.413	-16.3206
536.96	300.00	2.554	85.391	-5.28615
537.96	300.00	2.554	85.381	-0.298892
538.96	300.00	2.553	85.361	11.0028
539.96	300.00	2.552	85.339	16.1990
540.96	300.00	2.552	85.322	24.0039
541.96	300.00	2.552	85.307	24.1513
542.96	300.00	2.551	85.288	23.0390
543.96	300.00	2.551	85.277	17.9447
544.96	300.00	2.550	85.243	20.0542
545.96	300.00	2.550	85.249	25.6301
546.96	300.00	2.549	85.224	35.5998
547.96	300.00	2.549	85.208	21.5786
548.96	300.00	2.548	85.185	-1.06281
549.96	300.00	2.548	85.182	-8.66678
550.96	300.00	2.547	85.151	-15.1918
551.96	300.00	2.547	85.146	-22.5904
552.96	300.00	2.546	85.132	-18.0689
553.96	300.00	2.545	85.102	-10.5127
554.96	300.00	2.545	85.096	-15.6419
555.96	300.00	2.544	85.072	-11.4201
556.96	300.00	2.544	85.060	-12.8987
557.96	300.00	2.543	85.037	-7.02420
558.96	300.00	2.543	85.026	5.03678
559.96	300.00	2.542	85.004	24.8822
560.96	300.00	2.542	84.991	23.3578
561.96	300.00	2.542	84.977	19.9352
562.96	300.00	2.541	84.958	25.2908
563.96	300.00	2.541	84.938	26.5147
564.96	300.00	2.540	84.926	22.9352
565.96	300.00	2.540	84.906	13.9744
566.96	300.00	2.539	84.898	4.26825
567.96	300.00	2.539	84.876	-2.38432
568.96	300.00	2.538	84.852	-22.8830
569.96	300.00	2.537	84.824	-16.8623
570.96	300.00	2.538	84.853	-12.5320
571.96	300.00	2.537	84.805	-28.0788
572.96	300.00	2.536	84.780	-17.5681
573.96	300.00	2.536	84.787	-11.7893
574.96	300.00	2.536	84.789	-22.5716
575.96	300.00	2.535	84.741	-19.6049
576.96	300.00	2.534	84.726	-10.5768
577.96	300.00	2.534	84.727	-25.3774
578.96	300.00	2.533	84.686	-28.0338
579.96	300.00	2.533	84.684	-38.8487
580.96	300.00	2.532	84.667	-36.9257
581.96	300.00	2.532	84.649	-25.7184
582.96	300.00	2.532	84.639	-0.707551
583.96	300.00	2.531	84.615	17.7682
584.96	300.00	2.531	84.606	27.9028
585.96	300.00	2.530	84.592	31.0200
586.96	300.00	2.529	84.567	32.5535
587.96	300.00	2.530	84.571	34.9223
588.96	300.00	2.529	84.543	32.3452
589.96	300.00	2.528	84.524	25.8036
590.96	300.00	2.528	84.504	15.9945
591.96	300.00	2.527	84.486	15.4347
592.96	300.00	2.527	84.479	20.6106
593.96	300.00	2.526	84.452	19.0330
594.96	300.00	2.526	84.451	13.7679
595.96	300.00	2.525	84.411	9.80413
596.96	300.00	2.525	84.426	-8.88789
597.96	300.00	2.524	84.390	-12.7444
598.96	300.00	2.524	84.374	-16.9672
599.96	300.00	2.523	84.348	-5.34730
600.96	300.00	2.523	84.346	6.60515
601.96	300.00	2.523	84.337	14.4938
602.96	300.00	2.522	84.311	10.9780
603.96	300.00	2.521	84.298	4.85760
604.96	300.00	2.521	84.282	4.50610
605.96	300.00	2.521	84.277	9.83649
606.96	300.00	2.520	84.260	0.154765
607.96	300.00	2.520	84.244	-3.27201
608.96	300.00	2.519	84.228	2.82951
609.96	300.00	2.519	84.212	12.9247
610.96	300.00	2.518	84.194	18.9684
611.96	300.00	2.518	84.174	19.9981
612.96	300.00	2.518	84.176	16.2418
613.96	300.00	2.517	84.156	-8.64477
614.96	300.00	2.516	84.131	-14.0498
615.96	300.00	2.516	84.112	-18.0768
616.96	300.00	2.515	84.092	-22.7923
617.96	300.00	2.515	84.078	-23.3945
618.96	300.00	2.514	84.047	-36.2333
619.96	300.00	2.513	84.030	-40.6610
620.96	300.00	2.513	84.023	-32.5732
621.96	300.00	2.513	84.009	-22.4817
622.96	300.00	2.512	83.991	-18.5049
623.96	300.00	2.512	83.987	-13.5525
624.96	300.00	2.512	83.977	0.144987
625.96	300.00	2.511	83.947	7.04252
626.96	300.00	2.510	83.933	3.75199
627.96	300.00	2.509	83.899	9.69477
628.96	300.00	2.510	83.915	17.4231
629.96	300.00	2.509	83.880	25.4273
630.96	300.00	2.509	83.871	16.4575
631.96	300.00	2.508	83.850	18.4364
632.96	300.00	2.507	83.832	18.5238
633.96	300.00	2.507	83.815	8.84134
634.96	300.00	2.506	83.798	5.38010
635.96	300.00	2.506	83.778	-13.7788
636.96	300.00	2.505	83.751	-23.4332
637.96	300.00	2.505	83.758	-11.8341
638.96	300.00	2.505	83.735	-2.71271
639.96	300.00	2.504	83.718	-2.57146
640.96	300.00	2.504	83.702	4.72647
641.96	300.00	2.503	83.678	10.8311
642.96	300.00	2.502	83.661	15.8239
643.96	300.00	2.501	83.633	7.75634
644.96	300.00	2.501	83.632	11.3182
645.96	300.00	2.501	83.604	19.5412
646.96	300.00	2.501	83.604	21.2077
647.96	300.00	2.500	83.593	10.5100
648.96	300.00	2.499	83.566	5.38155
649.96	300.00	2.499	83.550	-12.0513
650.96	300.00	2.498	83.531	-21.6725
651.96	300.00	2.498	83.527	-27.3109
652.96	300.00	2.497	83.497	-42.1303
653.96	300.00	2.497	83.484	-46.3283
654.96	300.00	2.497	83.472	-48.4426
655.96	300.00	2.496	83.454	-47.2897
656.96	300.00	2.496	83.437	-33.0372
657.96	300.00	2.495	83.420	-20.7687
658.96	300.00	2.495	83.408	-15.2485
659.96	300.00	2.494	83.385	-7.10186
660.96	300.00	2.494	83.374	-3.01304
661.96	300.00	2.493	83.355	8.83205
662.96	300.00	2.493	83.361	23.7038
663.96	300.00	2.492	83.330	28.3017
664.96	300.00	2.492	83.313	31.3794
665.96	300.00	2.491	83.289	25.9899
666.96	300.00	2.491	83.298	22.8447
667.96	300.00	2.490	83.256	19.1560
668.96	300.00	2.490	83.261	14.1588
669.96	300.00	2.490	83.234	9.24964
670.96	300.00	2.489	83.214	0.610133
671.96	300.00	2.489	83.221	0.790250
672.96	300.00	2.488	83.197	-4.88173
673.96	300.00	2.488	83.172	-7.56354
674.96	300.00	2.488	83.169	-11.5389
675.96	300.00	2.487	83.145	-2.56156
676.96	300.00	2.487	83.133	5.15017
677.96	300.00	2.486	83.119	1.49410
678.96	300.00	2.486	83.105	-0.977169
679.96	300.00	2.485	83.091	-2.87513
680.96	300.00	2.485	83.074	-7.57046
681.96	300.00	2.484	83.062	-11.8440
682.96	300.00	2.484	83.056	-23.2393
683.96	300.00	2.483	83.032	-30.4620
684.96	300.00	2.483	83.020	-29.8878
685.96	300.00	2.483	83.002	-29.3900
686.96	300.00	2.482	82.989	-26.6323
687.96	300.00	2.482	82.980	-26.3659
688.96	300.00	2.482	82.973	-25.2432
689.96	300.00	2.481	82.946	-28.4043
690.96	300.00	2.481	82.935	-33.4675
691.96	300.00	2.480	82.909	-33.6735
692.96	300.00	2.479	82.893	-29.0202
693.96	300.00	2.480	82.901	-22.0444
694.96	300.00	2.479	82.888	-8.10117
695.96	300.00	2.479	82.883	-2.75049
696.96	300.00	2.478	82.863	4.00449
697.96	300.00	2.478	82.841	9.44660
698.96	300.00	2.477	82.823	18.6509
699.96	300.00	2.477	82.812	21.9209
700.96	300.00	2.476	82.791	22.6525
701.96	300.00	2.476	82.783	28.5601
702.96	300.00	2.476	82.777	21.8863
703.96	300.00	2.475	82.757	23.3741
704.96	300.00	2.475	82.752	14.0869
705.96	300.00	2.475	82.740	3.98136
706.96	300.00	2.474	82.726	3.74233
707.96	300.00	2.474	82.720	3.50938
708.96	300.00	2.474	82.705	4.91494
709.96	300.00	2.473	82.670	7.01641
710.96	300.00	2.472	82.662	4.89231
711.96	300.00	2.472	82.664	4.71858
712.96	300.00	2.472	82.647	0.660362
713.96	300.00	2.472	82.641	0.664768
714.96	300.00	2.472	82.640	-1.35554
715.96	300.00	2.471	82.619	1.15333
716.96	300.00	2.471	82.598	6.85718
717.96	300.00	2.471	82.612	9.91904
718.96	300.00	2.469	82.558	7.84553
719.96	300.00	2.469	82.556	3.74298
720.96	300.00	2.469	82.547	3.70640
721.96	300.00	2.469	82.543	-4.97416
722.96	300.00	2.469	82.536	-2.34582
723.96	300.00	2.468	82.521	12.3134
724.96	300.00	2.467	82.490	20.5443
725.96	300.00	2.467	82.475	26.5198
726.96	300.00	2.467	82.483	30.4886
727.96	300.00	2.467	82.468	30.0299
728.96	300.00	2.466	82.452	27.8629
729.96	300.00	2.466	82.441	24.1855
730.96	300.00	2.466	82.431	13.8921
731.96	300.00	2.465	82.414	5.47997
732.96	300.00	2.465	82.401	1.34451
733.96	300.00	2.464	82.389	-0.556440
734.96	300.00	2.464	82.373	-10.3331
735.96	300.00	2.464	82.383	-27.4446
736.96	300.00	2.463	82.354	-32.2776
737.96	300.00	2.463	82.339	-29.2293
738.96	300.00	2.462	82.329	-24.0415
739.96	300.00	2.462	82.307	-13.5774
740.96	300.00	2.461	82.295	2.11504
741.96	300.00	2.461	82.291	22.8765
742.96	300.00	2.461	82.273	26.2774
743.96	300.00	2.461	82.272	29.6151
744.96	300.00	2.460	82.250	32.2376
745.96	300.00	2.460	82.250	25.7982
746.96	300.00	2.459	82.225	17.8072
747.96	300.00	2.459	82.202	9.75946
748.96	300.00	2.459	82.206	4.44965
749.96	300.00	2.458	82.183	-0.748480
750.96	300.00	2.458	82.165	-12.5563
751.96	300.00	2.457	82.149	-21.2009
752.96	300.00	2.457	82.136	-27.8725
753.96	300.00	2.456	82.121	-32.5041
754.96	300.00	2.456	82.109	-32.7121
755.96	300.00	2.455	82.084	-30.6582
756.96	300.00	2.455	82.083	-27.6081
757.96	300.00	2.455	82.064	-25.6845
758.96	300.00	2.454	82.048	-23.0835
759.96	300.00	2.453	82.022	-18.6328
760.96	300.00	2.453	82.020	-15.2710
761.96	300.00	2.453	82.007	-1.65672
762.96	300.00	2.453	82.000	7.05059
763.96	300.00	2.453	82.003	14.4426
764.96	300.00	2.452	81.975	22.6682
765.96	300.00	2.451	81.956	28.1388
766.96	300.00	2.450	81.898	30.2494
767.96	300.00	2.451	81.935	29.7478
768.96	300.00	2.450	81.915	30.2102
769.96	300.00	2.450	81.897	31.2446
770.96	300.00	2.449	81.883	28.7434
771.96	300.00	2.449	81.873	22.1718
772.96	300.00	2.448	81.850	18.7983
773.96	300.00	2.448	81.854	13.1347
774.96	300.00	2.448	81.836	10.2678
775.96	300.00	2.447	81.822	4.84701
776.96	300.00	2.447	81.811	-2.74611
777.96	300.00	2.447	81.797	-17.2007
778.96	300.00	2.446	81.783	-16.5240
779.96	300.00	2.446	81.772	-18.2032
780.96	300.00	2.445	81.755	-18.3198
781.96	300.00	2.445	81.750	-20.9546
782.96	300.00	2.445	81.741	-22.7485
783.96	300.00	2.444	81.708	-23.3990
784.96	300.00	2.444	81.702	-22.6336
785.96	300.00	2.443	81.686	-22.0406
786.96	300.00	2.443	81.670	-23.7719
787.96	300.00	2.443	81.671	-18.8631
788.96	300.00	2.442	81.635	-14.4205
789.96	300.00	2.442	81.638	-15.5648
790.96	300.00	2.441	81.623	-7.56867
791.96	300.00	2.440	81.590	-0.377456
792.96	300.00	2.440	81.585	1.31684
793.96	300.00	2.439	81.557	-2.33335
794.96	300.00	2.439	81.558	-1.30631
795.96	300.00	2.439	81.547	-5.71847
796.96	300.00	2.439	81.530	-5.53137
797.96	300.00	2.438	81.512	-5.34354
798.96	300.00	2.438	81.508	-13.8021
799.96	300.00	2.437	81.484	-20.3324
800.96	300.00	2.437	81.471	-26.4784
801.96	300.00	2.436	81.455	-28.7264
802.96	300.00	2.436	81.436	-31.3391
803.96	300.00	2.435	81.425	-31.5555
804.96	300.00	2.435	81.414	-28.1721
805.96	300.00	2.435	81.398	-20.4071
806.96	300.00	2.434	81.365	-5.83336
807.96	300.00	2.434	81.380	8.39580
808.96	300.00	2.433	81.346	16.1838
809.96	300.00	2.433	81.332	21.9649
810.96	300.00	2.432	81.327	21.4995
811.96	300.00	2.432	81.310	22.2712
812.96	300.00	2.432	81.297	21.1624
813.96	300.00	2.431	81.288	21.9847
814.96	300.00	2.431	81.267	20.6492
815.96	300.00	2.430	81.256	19.4165
816.96	300.00	2.430	81.246	18.0610
817.96	300.00	2.430	81.239	15.9980
818.96	300.00	2.429	81.205	9.22050
819.96	300.00	2.429	81.204	-2.53133
820.96	300.00	2.428	81.191	-16.7879
821.96	300.00	2.428	81.178	-24.1347
822.96	300.00	2.428	81.165	-23.9444
823.96	300.00	2.427	81.153	-11.2503
824.96	300.00	2.427	81.136	7.72006
825.96	300.00	2.426	81.123	17.7021
826.96	300.00	2.426	81.113	18.8560
827.96	300.00	2.426	81.098	17.0504
828.96	300.00	2.425	81.086	14.2272
829.96	300.00	2.425	81.069	11.5635
830.96	300.00	2.425	81.064	13.5275
831.96	300.00	2.424	81.044	13.4420
832.96	300.00	2.423	81.013	15.7818
833.96	300.00	2.423	81.015	17.1586
834.96	300.00	2.423	81.008	16.3601
835.96	300.00	2.423	80.995	10.0848
836.96	300.00	2.422	80.976	3.35401
837.96	300.00	2.422	80.961	-7.87426
838.96	300.00	2.421	80.956	-26.6222
839.96	300.00	2.421	80.933	-35.9155
840.96	300.00	2.421	80.941	-35.7671
841.96	300.00	2.420	80.898	-36.4984
842.96	300.00	2.420	80.920	-36.5285
843.96	300.00	2.419	80.886	-35.7309
844.96	300.00	2.419	80.870	-35.7674
845.96	300.00	2.418	80.841	-37.9949
846.96	300.00	2.417	80.821	-39.7490
847.96	300.00	2.418	80.836	-40.0505
848.96	300.00	2.417	80.807	-36.2445
849.96	300.00	2.417	80.794	-29.6724
850.96	300.00	2.416	80.781	-15.2710
851.96	300.00	2.416	80.767	-0.636138
852.96	300.00	2.415	80.754	5.76858
853.96	300.00	2.415	80.742	14.3784
854.96	300.00	2.414	80.725	20.9681
855.96	300.00	2.414	80.702	18.9465
856.96	300.00	2.413	80.671	25.5528
857.96	300.00	2.413	80.682	21.4842
858.96	300.00	2.413	80.675	17.6139
859.96	300.00	2.412	80.657	10.9335
860.96	300.00	2.412	80.643	14.3785
861.96	300.00	2.412	80.633	16.7436
862.96	300.00	2.411	80.623	14.1951
863.96	300.00	2.411	80.617	17.4634
864.96	300.00	2.410	80.571	20.3810
865.96	300.00	2.410	80.572	24.5682
866.96	300.00	2.409	80.554	23.4807
867.96	300.00	2.410	80.559	26.8732
868.96	300.00	2.409	80.536	25.9194
869.96	300.00	2.408	80.525	22.5002
870.96	300.00	2.409	80.545	22.9714
871.96	300.00	2.408	80.505	24.1815
872.96	300.00	2.407	80.480	24.3394
873.96	300.00	2.407	80.475	24.6185
874.96	300.00	2.407	80.462	22.2930
875.96	300.00	2.406	80.452	16.1761
876.96	300.00	2.406	80.435	15.3839
877.96	300.00	2.406	80.429	15.9012
878.96	300.00	2.405	80.415	12.1700
879.96	300.00	2.405	80.415	9.77106
880.96	300.00	2.404	80.382	10.6186
881.96	300.00	2.404	80.368	16.2332
882.96	300.00	2.404	80.363	11.1963
883.96	300.00	2.403	80.350	-3.80882
884.96	300.00	2.403	80.347	-8.12854
885.96	300.00	2.403	80.334	-16.2837
886.96	300.00	2.402	80.316	-25.9779
887.96	300.00	2.401	80.278	-25.7499
888.96	300.00	2.401	80.272	-26.8020
889.96	300.00	2.401	80.266	-28.1111
890.96	300.00	2.400	80.245	-30.1844
891.96	300.00	2.400	80.230	-32.2554
892.96	300.00	2.399	80.215	-31.7437
893.96	300.00	2.399	80.204	-29.5124
894.96	300.00	2.398	80.173	-25.7116
895.96	300.00	2.400	80.228	-22.5620
896.96	300.00	2.398	80.168	-16.5846
897.96	300.00	2.397	80.147	-7.32954
898.96	300.00	2.397	80.138	5.85642
899.96	300.00	2.396	80.122	10.5204
900.96	300.00	2.396	80.109	1.14212
901.96	300.00	2.396	80.094	14.7366
902.96	300.00	2.395	80.081	29.7293
903.96	300.00	2.395	80.067	36.1200
904.96	300.00	2.394	80.053	36.4902
905.96	300.00	2.394	80.038	36.1755
906.96	300.00	2.393	80.021	30.1656
907.96	300.00	2.393	80.010	22.4338
908.96	300.00	2.393	80.005	7.56571
909.96	300.00	2.392	79.986	-1.77985
910.96	300.00	2.392	79.974	-8.96271
911.96	300.00	2.391	79.950	-13.5268
912.96	300.00	2.391	79.933	-14.3116
913.96	300.00	2.391	79.929	-13.0923
914.96	300.00	2.392	79.960	-4.61832
915.96	300.00	2.390	79.915	2.96298
916.96	300.00	2.390	79.892	6.01550
917.96	300.00	2.389	79.865	6.52866
918.96	300.00	2.390	79.903	10.7181
919.96	300.00	2.389	79.888	12.7601
920.96	300.00	2.387	79.821	16.7611
921.96	300.00	2.388	79.825	18.2095
922.96	300.00	2.387	79.805	19.5871
923.96	300.00	2.387	79.793	17.9748
924.96	300.00	2.386	79.782	18.3101
925.96	300.00	2.386	79.771	16.8193
926.96	300.00	2.386	79.759	11.2779
927.96	300.00	2.385	79.739	-2.17498
928.96	300.00	2.384	79.720	-12.7459
929.96	300.00	2.384	79.702	-17.0795
930.96	300.00	2.384	79.700	-23.7593
931.96	300.00	2.383	79.684	-25.3032
932.96	300.00	2.383	79.674	-23.9831
933.96	300.00	2.383	79.658	-24.2685
934.96	300.00	2.382	79.649	-24.5394
935.96	300.00	2.382	79.635	-24.5914
936.96	300.00	2.382	79.624	-25.3519
937.96	300.00	2.381	79.590	-24.4511
938.96	300.00	2.381	79.599	-24.8877
939.96	300.00	2.379	79.547	-19.4642
940.96	300.00	2.379	79.547	-9.71440
941.96	300.00	2.379	79.533	-1.72402
942.96	300.00	2.378	79.519	4.84914
943.96	300.00	2.377	79.478	6.86945
944.96	300.00	2.378	79.493	9.14912
945.96	300.00	2.377	79.468	12.9624
946.96	300.00	2.377	79.456	16.0466
947.96	300.00	2.376	79.441	15.1359
948.96	300.00	2.376	79.425	14.4882
949.96	300.00	2.375	79.416	8.55303
950.96	300.00	2.375	79.401	1.38330
951.96	300.00	2.374	79.379	-8.42665
952.96	300.00	2.374	79.377	-12.1571
953.96	300.00	2.373	79.353	-13.3639
954.96	300.00	2.373	79.348	-14.5764
955.96	300.00	2.373	79.327	-15.1083
956.96	300.00	2.372	79.318	-8.99408
957.96	300.00	2.372	79.296	3.77748
958.96	300.00	2.371	79.278	23.8109
959.96	300.00	2.371	79.280	28.9027
960.96	300.00	2.371	79.257	29.8978
961.96	300.00	2.371	79.273	30.7542
962.96	300.00	2.370	79.229	30.4968
963.96	300.00	2.369	79.216	25.6359
964.96	300.00	2.369	79.219	25.6163
965.96	300.00	2.369	79.202	25.8500
966.96	300.00	2.368	79.184	24.3774
967.96	300.00	2.368	79.160	22.4097
968.96	300.00	2.368	79.159	17.6508
969.96	300.00	2.367	79.147	13.4026
970.96	300.00	2.367	79.137	7.00968
971.96	300.00	2.366	79.121	2.30122
972.96	300.00	2.366	79.108	-4.43403
973.96	300.00	2.366	79.093	-10.7548
974.96	300.00	2.365	79.085	-22.5483
975.96	300.00	2.365	79.066	-25.2775
976.96	300.00	2.365	79.054	-27.0122
977.96	300.00	2.364	79.044	-28.7935
978.96	300.00	2.364	79.035	-30.1375
979.96	300.00	2.363	79.014	-30.3192
980.96	300.00	2.363	79.003	-38.6341
981.96	300.00	2.363	78.987	-47.9594
982.96	300.00	2.361	78.944	-46.1964
983.96	300.00	2.361	78.953	-41.6052
984.96	300.00	2.362	78.957	-32.5987
985.96	300.00	2.360	78.919	-25.0202
986.96	300.00	2.360	78.899	-17.4499
987.96	300.00	2.360	78.890	-20.2552
988.96	300.00	2.359	78.865	-17.8667
989.96	300.00	2.359	78.864	-15.5582
990.96	300.00	2.359	78.854	-9.43401
991.96	300.00	2.358	78.841	-6.52193
992.96	300.00	2.357	78.815	1.88756
993.96	300.00	2.357	78.807	7.86867
994.96	300.00	2.357	78.794	8.01823
995.96	300.00	2.356	78.778	8.64136
996.96	300.00	2.356	78.763	0.524080
997.96	300.00	2.355	78.749	-12.4469
998.96	300.00	2.355	78.733	-11.5544
999.96	300.00	2.354	78.718	-10.3587
1000.96	300.00	2.354	78.712	5.32651
1001.96	300.00	2.354	78.694	23.5309
1002.96	300.00	2.353	78.680	34.6612
1003.96	300.00	2.353	78.665	39.7324
1004.96	300.00	2.353	78.654	37.9334
1005.96	300.00	2.352	78.639	32.8312
1006.96	300.00	2.352	78.620	23.5282
1007.96	300.00	2.351	78.618	11.0461
1008.96	300.00	2.352	78.629	-1.94336
1009.96	300.00	2.351	78.597	-10.8568
1010.96	300.00	2.350	78.584	-12.9363
1011.96	300.00	2.350	78.578	-17.5733
1012.96	300.00	2.350	78.562	-12.0476
1013.96	300.00	2.349	78.544	-7.64759
1014.96	300.00	2.349	78.532	-10.1450
1015.96	300.00	2.348	78.516	-13.8073
1016.96	300.00	2.348	78.497	-17.1221
1017.96	300.00	2.348	78.496	-15.2153
1018.96	300.00	2.347	78.483	-4.08139
1019.96	300.00	2.347	78.466	12.2894
1020.96	300.00	2.347	78.454	23.5223
1021.96	300.00	2.346	78.444	25.5772
1022.96	300.00	2.346	78.430	26.8203
1023.96	300.00	2.346	78.420	27.2049
1024.96	300.00	2.345	78.398	24.8301
1025.96	300.00	2.345	78.405	22.6006
1026.96	300.00	2.344	78.361	14.1872
1027.96	300.00	2.344	78.376	10.1270
1028.96	300.00	2.344	78.356	8.33031
1029.96	300.00	2.343	78.338	12.1600
1030.96	300.00	2.343	78.346	16.1359
1031.96	300.00	2.343	78.322	15.6884
1032.96	300.00	2.342	78.292	10.6446
1033.96	300.00	2.341	78.280	0.614101
1034.96	300.00	2.341	78.282	-4.58934
1035.96	300.00	2.341	78.263	-10.6253
1036.96	300.00	2.341	78.259	-14.1053
1037.96	300.00	2.341	78.255	-13.5493
1038.96	300.00	2.340	78.237	-12.7669
1039.96	300.00	2.339	78.217	-10.9716
1040.96	300.00	2.339	78.210	-9.83387
1041.96	300.00	2.339	78.196	-19.4444
1042.96	300.00	2.338	78.178	-16.4570
1043.96	300.00	2.338	78.164	-29.6872
1044.96	300.00	2.338	78.153	-28.8192
1045.96	300.00	2.337	78.139	-28.5936
1046.96	300.00	2.337	78.121	-20.2539
1047.96	300.00	2.336	78.116	-21.7134
1048.96	300.00	2.336	78.102	-23.7321
1049.96	300.00	2.336	78.084	-18.7076
1050.96	300.00	2.335	78.072	-18.1928
1051.96	300.00	2.335	78.059	-18.3215
1052.96	300.00	2.334	78.045	-21.8166
1053.96	300.00	2.334	78.027	-27.3264
1054.96	300.00	2.334	78.020	-33.3251
1055.96	300.00	2.333	77.999	-16.5143
1056.96	300.00	2.333	78.007	0.126931
1057.96	300.00	2.332	77.967	8.76588
1058.96	300.00	2.332	77.956	12.4664
1059.96	300.00	2.331	77.935	17.1502
1060.96	300.00	2.331	77.939	18.6601
1061.96	300.00	2.331	77.941	15.4131
1062.96	300.00	2.330	77.916	7.41836
1063.96	300.00	2.330	77.903	-1.02059
1064.96	300.00	2.330	77.892	-7.02056
1065.96	300.00	2.329	77.864	-10.8294
1066.96	300.00	2.329	77.858	-10.7394
1067.96	300.00	2.328	77.849	-11.8073
1068.96	300.00	2.328	77.840	-10.5208
1069.96	300.00	2.328	77.831	-10.1802
1070.96	300.00	2.327	77.816	-11.9938
1071.96	300.00	2.327	77.799	-10.5787
1072.96	300.00	2.327	77.787	-4.35149
1073.96	300.00	2.326	77.776	3.76244
1074.96	300.00	2.326	77.767	10.3695
1075.96	300.00	2.326	77.758	16.4964
1076.96	300.00	2.325	77.745	20.5647
1077.96	300.00	2.325	77.728	22.8956
1078.96	300.00	2.325	77.722	23.2105
1079.96	300.00	2.324	77.701	23.0549
1080.96	300.00	2.324	77.688	22.5947
1081.96	300.00	2.324	77.692	19.6993
1082.96	300.00	2.324	77.684	9.45517
1083.96	300.00	2.323	77.673	-2.66115
1084.96	300.00	2.323	77.655	-10.6328
1085.96	300.00	2.322	77.638	-6.60864
1086.96	300.00	2.322	77.619	-3.58036
1087.96	300.00	2.321	77.608	-8.22836
1088.96	300.00	2.321	77.608	-12.9494
1089.96	300.00	2.320	77.578	-13.8010
1090.96	300.00	2.320	77.578	-9.09280
1091.96	300.00	2.320	77.559	-3.12036
1092.96	300.00	2.320	77.553	-0.411929
1093.96	300.00	2.319	77.537	3.12575
1094.96	300.00	2.319	77.521	14.6369
1095.96	300.00	2.318	77.509	22.6984
1096.96	300.00	2.318	77.499	17.7219
1097.96	300.00	2.318	77.484	5.30768
1098.96	300.00	2.317	77.479	-9.85604
1099.96	300.00	2.317	77.450	-27.2145
1100.96	300.00	2.316	77.436	-38.4007
1101.96	300.00	2.316	77.432	-32.8599
1102.96	300.00	2.316	77.417	-15.9513
1103.96	300.00	2.315	77.403	-3.99978
1104.96	300.00	2.315	77.387	-11.1884
1105.96	300.00	2.315	77.387	-21.1235
1106.96	300.00	2.314	77.355	-24.9357
1107.96	300.00	2.313	77.341	-27.2402
1108.96	300.00	2.313	77.326	-23.1697
1109.96	300.00	2.313	77.319	-23.0207
1110.96	300.00	2.312	77.299	-22.7054
1111.96	300.00	2.312	77.290	-19.2151
1112.96	300.00	2.311	77.277	-19.8443
1113.96	300.00	2.311	77.255	-20.0479
1114.96	300.00	2.311	77.265	-24.1711
1115.96	300.00	2.310	77.236	-27.5485
1116.96	300.00	2.310	77.218	-26.8068
1117.96	300.00	2.309	77.204	-25.4576
1118.96	300.00	2.309	77.191	-18.3512
1119.96	300.00	2.309	77.183	-10.4012
1120.96	300.00	2.308	77.165	2.07544
1121.96	300.00	2.308	77.159	7.09706
1122.96	300.00	2.307	77.141	9.59659
1123.96	300.00	2.307	77.131	13.0617
1124.96	300.00	2.306	77.102	19.6986
1125.96	300.00	2.306	77.098	24.7465
1126.96	300.00	2.306	77.090	24.6802
1127.96	300.00	2.305	77.071	23.5536
1128.96	300.00	2.305	77.058	24.3811
1129.96	300.00	2.305	77.054	27.0048
1130.96	300.00	2.304	77.042	28.6340
1131.96	300.00	2.303	77.011	30.7042
1132.96	300.00	2.304	77.023	32.3483
1133.96	300.00	2.303	76.995	30.9781
1134.96	300.00	2.303	76.987	27.0539
1135.96	300.00	2.302	76.973	24.0673
1136.96	300.00	2.302	76.964	14.8764
1137.96	300.00	2.301	76.947	8.43745
1138.96	300.00	2.301	76.932	12.2593
1139.96	300.00	2.301	76.924	20.9691
1140.96	300.00	2.301	76.916	25.9719
1141.96	300.00	2.300	76.900	25.7966
1142.96	300.00	2.300	76.892	20.7064
1143.96	300.00	2.299	76.876	11.8410
1144.96	300.00	2.299	76.860	-1.10074
1145.96	300.00	2.298	76.847	-9.29552
1146.96	300.00	2.298	76.845	1.95063
1147.96	300.00	2.298	76.842	2.32350
1148.96	300.00	2.297	76.807	19.1908
1149.96	300.00	2.297	76.797	11.6023
1150.96	300.00	2.297	76.786	-0.621941
1151.96	300.00	2.296	76.775	-14.8014
1152.96	300.00	2.295	76.739	-21.5752
1153.96	300.00	2.296	76.748	-26.3916
1154.96	300.00	2.294	76.708	-30.0789
1155.96	300.00	2.295	76.737	-30.1213
1156.96	300.00	2.294	76.698	-29.5724
1157.96	300.00	2.294	76.709	-29.2317
1158.96	300.00	2.294	76.681	-29.8537
1159.96	300.00	2.293	76.672	-30.0535
1160.96	300.00	2.293	76.658	-27.6332
1161.96	300.00	2.292	76.634	-18.9000
1162.96	300.00	2.292	76.626	-11.3398
1163.96	300.00	2.292	76.619	-0.265820
1164.96	300.00	2.291	76.599	8.04402
1165.96	300.00	2.291	76.585	22.8163
1166.96	300.00	2.290	76.575	27.4076
1167.96	300.00	2.290	76.561	31.8071
1168.96	300.00	2.290	76.547	32.1060
1169.96	300.00	2.289	76.532	29.3350
1170.96	300.00	2.289	76.525	29.6208
1171.96	300.00	2.288	76.497	30.6318
1172.96	300.00	2.288	76.493	30.4448
1173.96	300.00	2.288	76.482	28.1564
1174.96	300.00	2.287	76.473	27.1761
1175.96	300.00	2.287	76.461	16.0875
1176.96	300.00	2.286	76.445	-5.13840
1177.96	300.00	2.286	76.431	-10.1990
1178.96	300.00	2.286	76.422	-5.38962
1179.96	300.00	2.286	76.414	-6.47659
1180.96	300.00	2.285	76.391	-3.50975
1181.96	300.00	2.285	76.396	-11.1450
1182.96	300.00	2.284	76.377	-13.4636
1183.96	300.00	2.284	76.357	-15.8608
1184.96	300.00	2.284	76.350	-6.27032
1185.96	300.00	2.283	76.339	1.15990
1186.96	300.00	2.283	76.329	1.41430
1187.96	300.00	2.283	76.318	6.56984
1188.96	300.00	2.282	76.300	15.5138
1189.96	300.00	2.282	76.289	29.9502
1190.96	300.00	2.281	76.277	34.3054
1191.96	300.00	2.281	76.263	36.1620
1192.96	300.00	2.281	76.249	36.5982
1193.96	300.00	2.280	76.239	35.0740
1194.96	300.00	2.280	76.221	31.0781
1195.96	300.00	2.280	76.213	23.2813
1196.96	300.00	2.279	76.205	3.97651
1197.96	300.00	2.279	76.199	-12.4843
1198.96	300.00	2.278	76.171	-23.6690
1199.96	300.00	2.278	76.170	-29.1604
1200.96	300.00	2.278	76.167	-32.3090
1201.96	300.00	2.277	76.130	-25.7015
1202.96	300.00	2.277	76.113	-20.4491
1203.96	300.00	2.277	76.119	-27.1897
1204.96	300.00	2.276	76.108	-31.6653
1205.96	300.00	2.275	76.077	-17.6782
1206.96	300.00	2.275	76.076	-9.88398
1207.96	300.00	2.275	76.062	1.98538
1208.96	300.00	2.275	76.048	10.9509
1209.96	300.00	2.274	76.037	25.1247
1210.96	300.00	2.273	75.997	32.0545
1211.96	300.00	2.274	76.025	39.6170
1212.96	300.00	2.273	75.986	40.6000
1213.96	300.00	2.273	75.980	34.1395
1214.96	300.00	2.272	75.970	23.4237
1215.96	300.00	2.272	75.957	22.2202
1216.96	300.00	2.271	75.942	8.71852
1217.96	300.00	2.271	75.928	1.88356
1218.96	300.00	2.271	75.912	-7.53803
1219.96	300.00	2.270	75.905	-19.2977
1220.96	300.00	2.270	75.879	-27.1015
1221.96	300.00	2.270	75.878	-28.9745
1222.96	300.00	2.269	75.862	-28.7396
1223.96	300.00	2.268	75.843	-29.7901
1224.96	300.00	2.268	75.835	-29.5281
1225.96	300.00	2.268	75.813	-27.6553
1226.96	300.00	2.268	75.823	-24.0623
1227.96	300.00	2.267	75.801	-19.6251
1228.96	300.00	2.268	75.813	-15.0600
1229.96	300.00	2.267	75.778	-14.5698
1230.96	300.00	2.267	75.782	-14.1192
1231.96	300.00	2.265	75.737	-12.6718
1232.96	300.00	2.265	75.740	-0.626712
1233.96	300.00	2.265	75.722	9.62866
1234.96	300.00	2.265	75.715	26.7321
1235.96	300.00	2.265	75.735	29.6501
1236.96	300.00	2.264	75.693	29.5907
1237.96	300.00	2.263	75.672	31.1046
1238.96	300.00	2.263	75.659	27.2681
1239.96	300.00	2.263	75.647	17.2150
1240.96	300.00	2.262	75.633	9.59697
1241.96	300.00	2.262	75.622	0.602530
1242.96	300.00	2.261	75.604	2.97130
1243.96	300.00	2.261	75.593	9.23760
1244.96	300.00	2.260	75.576	11.2654
1245.96	300.00	2.261	75.582	4.46485
1246.96	300.00	2.260	75.547	-8.42435
1247.96	300.00	2.260	75.551	-21.1474
1248.96	300.00	2.259	75.535	-14.2733
1249.96	300.00	2.259	75.519	-1.37650
1250.96	300.00	2.259	75.531	8.80335
1251.96	300.00	2.258	75.499	15.8670
1252.96	300.00	2.258	75.490	20.7344
1253.96	300.00	2.258	75.487	24.3405
1254.96	300.00	2.258	75.481	25.2029
1255.96	300.00	2.257	75.459	24.7739
1256.96	300.00	2.257	75.453	-0.150674
1257.96	300.00	2.257	75.445	-0.0152864
1258.96	300.00	2.256	75.433	-6.41570e-3
1259.96	300.00	2.255	75.408	-5.04255e-3
1260.96	300.00	2.256	75.413	-5.13211e-3
1261.96	300.00	2.255	75.407	-6.15738e-3
1262.96	300.00	2.255	75.394	-8.38596e-3
1263.96	300.00	2.255	75.382	-0.0121564
1264.96	300.12	2.255	75.384	-0.0183560
1265.96	303.68	2.255	75.394	-0.0284060
1266.96	311.50	2.255	75.379	-0.0446194
1267.96	320.51	2.253	75.340	-0.0706674
1268.96	329.77	2.251	75.265	-0.111988
1269.96	339.26	2.247	75.135	-0.174380
1270.96	349.06	2.240	74.886	-0.257602
1271.96	359.10	2.225	74.393	-0.347815
1272.96	369.27	2.198	73.482	-0.428530
1273.96	379.48	2.147	71.790	-0.497400
1274.96	389.66	2.056	68.753	-0.553734
1275.96	399.77	1.893	63.304	-0.594005
1276.96	409.88	1.613	53.941	-0.616957
1277.96	419.93	1.180	39.437	-0.622427
1278.96	429.96	0.647	21.620	-0.610313
1279.96	439.99	0.248	8.291	-0.580413
1280.96	450.00	0.101	3.388	-0.532872
1281.96	460.02	0.059	1.979	-0.468652
1282.96	470.04	0.041	1.371	-0.389894
1283.96	480.08	0.031	1.034	-0.300511
1284.96	490.12	0.028	0.931	-0.207209
1285.96	500.16	0.029	0.958	-0.120824
1286.96	510.19	0.028	0.925	-0.0552877
1287.96	520.21	0.027	0.919	-0.0198004
1288.96	530.24	0.027	0.914	-7.10137e-3
1289.96	540.27	0.027	0.917	-2.78512e-3
1290.96	550.29	0.027	0.915	-8.59643e-4
1291.96	560.32	0.027	0.911	8.32868e-6
1292.96	570.34	0.028	0.921	3.13663e-4
1293.96	580.37	0.027	0.907	4.03173e-4
1294.96	590.39	0.028	0.934	4.96354e-4
1295.96	600.41	0.028	0.924	5.92599e-4
1296.96	610.42	0.028	0.943	6.97343e-4
1297.96	620.45	0.029	0.954	7.85096e-4
1298.96	630.47	0.029	0.963	8.68474e-4
1299.96	640.48	0.029	0.986	9.58300e-4
1300.96	650.50	0.029	0.981	1.02049e-3
1301.96	660.52	0.029	0.965	1.09235e-3
1302.96	670.54	0.029	0.980	1.13919e-3
1303.96	680.55	0.031	1.022	1.19121e-3
1304.96	690.57	0.030	1.008	1.22051e-3
1305.96	700.59	0.031	1.034	1.24841e-3
1306.96	710.60	0.031	1.048	1.28419e-3
1307.96	720.62	0.032	1.074	1.32450e-3
1308.96	730.63	0.032	1.073	1.37258e-3
1309.96	740.65	0.033	1.102	1.39914e-3
1310.96	750.66	0.033	1.103	1.38652e-3
1311.96	760.67	0.033	1.116	1.35215e-3
1312.96	770.68	0.034	1.132	1.36978e-3
1313.96	780.69	0.034	1.125	1.38342e-3
1314.54	786.53	0.034	1.153	1.35414e-3