File: data/TGA/005d-L_M/F2_000002 -temp_104 AMU_XIC
Time	Ion Current
min	mA
0.00	1.00000e-13
0.97	3.01219e-6
1.94	1.00000e-13
2.91	1.00000e-13
3.88	1.00000e-13
4.85	1.00000e-13
5.82	1.00000e-13
6.79	1.00000e-13
7.76	1.00000e-13
8.73	1.00000e-13
9.70	1.00000e-13
10.67	1.00000e-13
11.64	9.49998e-6
12.61	1.00000e-13
13.58	1.00000e-13
14.55	1.00000e-13
15.52	1.00000e-13
16.49	1.00000e-13
17.46	1.00000e-13
18.43	1.00000e-13
19.40	1.00000e-13
20.37	1.00000e-13
21.34	1.00000e-13
22.31	1.00000e-13
23.28	1.00000e-13
24.25	1.00000e-13
25.22	1.00000e-13
26.19	1.00000e-13
27.16	1.00000e-13
28.13	1.00000e-13
29.10	1.00000e-13
30.07	1.00000e-13
31.04	1.00000e-13
32.01	1.00000e-13
32.98	1.00000e-13
33.95	1.00000e-13
34.92	1.00000e-13
35.89	1.00000e-13
36.86	1.00000e-13
37.83	1.00000e-13
38.80	1.00000e-13
39.77	1.00000e-13
40.74	1.00000e-13
41.71	2.08536e-6
42.68	1.00000e-13
43.65	1.00000e-13
44.62	1.00000e-13
45.59	1.00000e-13
46.56	1.00000e-13
47.53	1.00000e-13
48.50	2.08536e-6
49.47	1.00000e-13
50.44	1.00000e-13
51.41	1.00000e-13
52.38	1.00000e-13
53.35	1.00000e-13
54.32	1.00000e-13
55.28	1.00000e-13
56.26	1.00000e-13
57.23	1.00000e-13
58.19	8.92072e-6
59.16	1.00000e-13
60.13	1.00000e-13
61.11	1.00000e-13
62.08	1.00000e-13
63.05	1.00000e-13
64.02	1.00000e-13
64.99	1.00000e-13
65.95	1.00000e-13
66.92	1.00000e-13
67.89	1.00000e-13
68.86	1.01951e-5
69.83	1.00000e-13
70.80	1.00000e-13
71.77	1.65670e-5
72.74	1.00000e-13
73.72	7.76218e-6
74.69	1.00000e-13
75.66	1.50610e-6
76.63	1.00000e-13
77.59	2.97743e-5
78.56	1.00000e-13
79.53	1.00000e-13
80.50	1.00000e-13
81.48	1.40183e-5
82.45	1.00000e-13
83.41	1.00000e-13
84.38	1.00000e-13
85.35	1.00000e-13
86.32	7.53048e-6
87.29	1.08902e-5
88.26	5.79267e-6
89.23	1.00000e-13
90.20	1.20488e-5
91.17	1.18171e-5
92.14	2.85000e-5
93.11	1.44817e-5
94.08	1.00000e-13
95.05	1.00000e-13
96.02	1.00000e-13
96.99	1.67988e-5
97.96	1.00000e-13
98.93	1.00000e-13
99.90	1.00000e-13
100.87	5.09755e-6
101.84	1.00000e-13
102.81	1.00000e-13
103.78	2.76890e-5
104.75	3.93902e-6
105.72	1.00000e-13
106.69	1.00000e-13
107.66	1.00000e-13
108.63	1.00000e-13
109.60	1.04268e-5
110.57	1.00000e-13
111.54	1.00000e-13
112.51	1.00000e-13
113.48	1.00000e-13
114.45	1.00000e-13
115.42	1.00000e-13
116.39	1.85366e-5
117.36	1.00000e-13
118.33	1.00000e-13
119.30	1.00000e-13
120.27	1.00000e-13
121.24	1.00000e-13
122.21	1.00000e-13
123.18	1.00000e-13
124.15	1.00000e-13
125.12	1.00000e-13
126.09	1.00000e-13
127.06	2.74573e-5
128.03	1.00000e-13
129.00	1.00000e-13
129.97	4.05487e-6
130.94	1.00000e-13
131.91	3.59146e-5
132.88	1.00000e-13
133.85	7.41462e-6
134.82	1.00000e-13
135.79	1.00000e-13
136.76	2.53719e-5
137.73	9.26828e-7
138.70	1.00000e-13
139.67	1.00000e-13
140.64	8.92072e-6
141.61	1.00000e-13
142.58	1.00000e-13
143.55	1.90000e-5
144.52	1.00000e-13
145.49	1.00000e-13
146.46	1.00000e-13
147.43	1.00000e-13
148.40	1.00000e-13
149.37	1.00000e-13
150.34	1.10061e-5
151.31	7.18292e-6
152.28	1.00000e-13
153.25	1.00000e-13
154.22	1.00000e-13
155.19	1.00000e-13
156.16	1.29756e-5
157.13	1.00000e-13
158.10	8.34145e-6
159.07	1.00000e-13
160.04	1.00000e-13
161.01	1.30914e-5
161.98	1.00000e-13
162.95	1.00000e-13
163.92	1.00000e-13
164.89	1.00000e-13
165.86	1.00000e-13
166.83	1.00000e-13
167.80	1.56402e-5
168.77	1.00000e-13
169.74	1.00000e-13
170.71	6.83536e-6
171.68	1.00000e-13
172.65	1.00000e-13
173.62	1.00000e-13
174.59	1.00000e-13
175.56	1.00000e-13
176.53	1.00000e-13
177.49	1.00000e-13
178.46	1.00000e-13
179.43	1.00000e-13
180.40	1.00000e-13
181.38	3.95060e-5
182.35	7.29877e-6
183.31	1.00000e-13
184.28	1.00000e-13
185.25	1.00000e-13
186.22	1.00000e-13
187.19	7.99389e-6
188.16	1.00000e-13
189.13	1.00000e-13
190.11	1.00000e-13
191.07	1.00000e-13
192.04	1.00000e-13
193.01	1.00000e-13
193.98	1.00000e-13
194.95	1.00000e-13
195.92	1.00000e-13
196.89	1.00000e-13
197.86	1.00000e-13
198.83	1.00000e-13
199.81	1.00000e-13
200.77	1.00000e-13
201.74	1.00000e-13
202.71	1.00000e-13
203.68	1.00000e-13
204.65	1.00000e-13
205.62	1.00000e-13
206.59	1.00000e-13
207.56	1.85366e-6
208.53	1.00000e-13
209.50	1.00000e-13
210.47	1.00000e-13
211.44	1.00000e-13
212.41	4.55304e-5
213.38	1.00000e-13
214.35	1.00000e-13
215.32	1.00000e-13
216.29	1.00000e-13
217.26	1.00000e-13
218.23	1.00000e-13
219.20	2.09695e-5
220.17	1.00000e-13
221.14	1.00000e-13
222.11	1.04268e-6
223.08	1.00000e-13
224.05	1.00000e-13
225.02	1.00000e-13
225.99	5.09755e-6
226.96	1.00000e-13
227.93	1.00000e-13
228.90	1.00000e-13
229.87	1.00000e-13
230.84	3.93902e-6
231.81	1.00000e-13
232.78	1.00000e-13
233.75	1.00000e-13
234.72	1.00000e-13
235.69	1.00000e-13
236.66	1.00000e-13
237.63	1.00000e-13
238.60	1.00000e-13
239.57	1.00000e-13
240.54	1.00000e-13
241.51	1.00000e-13
242.48	1.00000e-13
243.45	1.00000e-13
244.42	1.00000e-13
245.39	1.00000e-13
246.36	1.15853e-7
247.33	1.00000e-13
248.30	1.85366e-6
249.27	1.00000e-13
250.24	1.00000e-13
251.21	1.30914e-5
252.18	1.00000e-13
253.15	1.00000e-13
254.12	1.00000e-13
255.09	1.00000e-13
256.06	1.00000e-13
257.03	1.00000e-13
258.00	1.00000e-13
258.97	1.00000e-13
259.94	1.00000e-13
260.91	1.00000e-13
261.88	1.00000e-13
262.85	1.00000e-13
263.82	1.00000e-13
264.79	7.53048e-6
265.76	1.00000e-13
266.73	1.00000e-13
267.70	1.00000e-13
268.67	1.00000e-13
269.64	1.00000e-13
270.61	1.00000e-13
271.58	1.00000e-13
272.55	1.00000e-13
273.52	1.00000e-13
274.49	1.00000e-13
275.46	1.00000e-13
276.43	1.00000e-13
277.40	1.00000e-13
278.37	1.00000e-13
279.34	1.00000e-13
280.31	1.00000e-13
281.28	1.00000e-13
282.25	1.00000e-13
283.21	1.00000e-13
284.19	1.00000e-13
285.15	1.00000e-13
286.13	1.00000e-13
287.10	1.00000e-13
288.07	1.00000e-13
289.03	1.00000e-13
290.00	1.00000e-13
290.97	1.00000e-13
291.95	1.00000e-13
292.91	1.00000e-13
293.89	1.00000e-13
294.86	1.00000e-13
295.83	1.00000e-13
296.79	1.00000e-13
297.76	1.00000e-13
298.73	1.00000e-13
299.70	1.00000e-13
300.68	1.00000e-13
301.65	1.00000e-13
302.62	1.00000e-13
303.58	1.00000e-13
304.56	1.00000e-13
305.52	1.00000e-13
306.49	1.00000e-13
307.47	1.00000e-13
308.44	1.00000e-13
309.41	1.00000e-13
310.37	1.00000e-13
311.34	1.00000e-13
312.31	1.00000e-13
313.28	1.00000e-13
314.25	1.00000e-13
315.22	1.00000e-13
316.19	1.00000e-13
317.16	3.24390e-6
318.13	1.00000e-13
319.10	1.00000e-13
320.07	1.00000e-13
321.04	1.00000e-13
322.01	1.00000e-13
322.98	1.00000e-13
323.95	1.00000e-13
324.92	1.00000e-13
325.89	1.00000e-13
326.86	1.00000e-13
327.83	3.93902e-6
328.80	1.00000e-13
329.77	1.00000e-13
330.74	1.00000e-13
331.71	1.00000e-13
332.68	1.00000e-13
333.65	1.00000e-13
334.62	1.00000e-13
335.59	1.00000e-13
336.56	1.00000e-13
337.53	1.00000e-13
338.50	1.00000e-13
339.47	1.00000e-13
340.44	1.00000e-13
341.41	1.00000e-13
342.38	1.00000e-13
343.35	1.00000e-13
344.32	1.06585e-5
345.29	1.00000e-13
346.26	1.00000e-13
347.23	1.00000e-13
348.20	1.00000e-13
349.17	1.00000e-13
350.14	1.00000e-13
351.11	1.00000e-13
352.08	1.00000e-13
353.05	1.00000e-13
354.02	7.64633e-6
354.99	1.00000e-13
355.96	1.00000e-13
356.93	1.00000e-13
357.90	1.00000e-13
358.87	1.00000e-13
359.84	1.00000e-13
360.81	2.89634e-6
361.78	1.00000e-13
362.75	1.00000e-13
363.72	1.00000e-13
364.69	1.00000e-13
365.66	1.00000e-13
366.63	4.74999e-6
367.60	1.00000e-13
368.57	1.00000e-13
369.54	1.00000e-13
370.51	1.00000e-13
371.48	1.00000e-13
372.45	1.00000e-13
373.42	1.00000e-13
374.39	1.00000e-13
375.36	1.00000e-13
376.33	1.00000e-13
377.30	1.00000e-13
378.27	1.00000e-13
379.24	1.00000e-13
380.21	1.00000e-13
381.18	1.00000e-13
382.15	1.00000e-13
383.12	1.00000e-13
384.09	1.00000e-13
385.06	1.00000e-13
386.03	1.00000e-13
387.00	1.00000e-13
387.97	1.00000e-13
388.94	2.95426e-5
389.91	1.00000e-13
390.88	1.00000e-13
391.84	1.00000e-13
392.82	1.00000e-13
393.79	1.00000e-13
394.76	1.00000e-13
395.73	1.00000e-13
396.70	1.00000e-13
397.66	1.00000e-13
398.63	1.00000e-13
399.60	1.00000e-13
400.58	1.00000e-13
401.54	1.00000e-13
402.52	1.00000e-13
403.48	1.00000e-13
404.45	1.00000e-13
405.42	1.00000e-13
406.39	1.00000e-13
407.36	1.00000e-13
408.33	1.00000e-13
409.30	1.00000e-13
410.28	1.00000e-13
411.24	1.00000e-13
412.21	1.00000e-13
413.18	1.00000e-13
414.15	5.79267e-6
415.13	1.00000e-13
416.09	1.00000e-13
417.07	1.00000e-13
418.04	1.00000e-13
419.01	1.00000e-13
419.97	1.00000e-13
420.94	1.00000e-13
421.91	1.00000e-13
422.88	1.00000e-13
423.85	1.00000e-13
424.82	1.00000e-13
425.79	1.00000e-13
426.76	1.00000e-13
427.73	1.00000e-13
428.70	1.00000e-13
429.67	1.00000e-13
430.64	1.78414e-5
431.61	8.34145e-6
432.58	1.00000e-13
433.55	1.00000e-13
434.52	1.00000e-13
435.49	1.00000e-13
436.46	1.00000e-13
437.43	1.00000e-13
438.40	1.00000e-13
439.37	1.00000e-13
440.34	1.00000e-13
441.31	1.00000e-13
442.28	1.00000e-13
443.25	1.00000e-13
444.22	1.00000e-13
445.19	1.00000e-13
446.16	1.00000e-13
447.13	1.00000e-13
448.10	1.00000e-13
449.07	1.00000e-13
450.04	1.00000e-13
451.01	1.00000e-13
451.98	1.00000e-13
452.95	1.00000e-13
453.92	1.00000e-13
454.89	1.00000e-13
455.86	1.00000e-13
456.83	1.00000e-13
457.80	2.89634e-6
458.77	1.00000e-13
459.74	1.00000e-13
460.71	1.00000e-13
461.68	1.00000e-13
462.65	1.00000e-13
463.62	1.00000e-13
464.59	1.00000e-13
465.56	1.00000e-13
466.53	1.00000e-13
467.50	1.00000e-13
468.47	1.00000e-13
469.44	1.00000e-13
470.41	1.00000e-13
471.38	1.00000e-13
472.35	1.00000e-13
473.32	1.00000e-13
474.29	1.00000e-13
475.26	1.00000e-13
476.23	1.00000e-13
477.20	1.00000e-13
478.17	1.00000e-13
479.14	1.00000e-13
480.11	1.00000e-13
481.08	1.00000e-13
482.05	1.00000e-13
483.02	1.00000e-13
483.99	1.00000e-13
484.96	1.00000e-13
485.93	1.00000e-13
486.90	1.00000e-13
487.87	1.00000e-13
488.84	1.00000e-13
489.81	1.00000e-13
490.78	1.00000e-13
491.75	1.00000e-13
492.72	1.00000e-13
493.69	1.00000e-13
494.66	1.00000e-13
495.63	1.00000e-13
496.60	1.00000e-13
497.57	1.00000e-13
498.54	1.00000e-13
499.51	1.00000e-13
500.48	1.00000e-13
501.45	1.00000e-13
502.42	1.00000e-13
503.38	1.00000e-13
504.36	1.00000e-13
505.33	1.00000e-13
506.29	1.00000e-13
507.26	1.00000e-13
508.23	1.00000e-13
509.20	1.00000e-13
510.17	1.00000e-13
511.14	1.00000e-13
512.11	1.00000e-13
513.08	2.89634e-6
514.06	1.00000e-13
515.03	2.38658e-5
515.99	1.00000e-13
516.97	1.00000e-13
517.93	1.00000e-13
518.90	1.00000e-13
519.88	1.00000e-13
520.84	1.00000e-13
521.82	1.00000e-13
522.79	1.00000e-13
523.76	1.00000e-13
524.72	1.00000e-13
525.69	1.00000e-13
526.66	1.00000e-13
527.64	1.00000e-13
528.60	1.00000e-13
529.57	1.00000e-13
530.54	1.00000e-13
531.51	1.00000e-13
532.48	1.00000e-13
533.45	1.00000e-13
534.42	1.00000e-13
535.39	1.00000e-13
536.36	1.00000e-13
537.33	1.00000e-13
538.30	1.00000e-13
539.27	1.00000e-13
540.24	1.00000e-13
541.21	1.00000e-13
542.18	1.00000e-13
543.15	1.00000e-13
544.12	1.00000e-13
545.09	1.00000e-13
546.06	1.00000e-13
547.03	1.00000e-13
548.00	1.00000e-13
548.97	1.00000e-13
549.94	1.00000e-13
550.91	1.00000e-13
551.88	1.00000e-13
552.85	1.00000e-13
553.82	1.00000e-13
554.79	1.00000e-13
555.76	1.00000e-13
556.73	1.00000e-13
557.70	1.00000e-13
558.67	1.00000e-13
559.64	1.00000e-13
560.61	1.00000e-13
561.58	2.54878e-6
562.55	1.00000e-13
563.52	1.00000e-13
564.49	2.78048e-6
565.46	1.00000e-13
566.43	1.00000e-13
567.40	1.00000e-13
568.37	1.00000e-13
569.34	1.00000e-13
570.31	1.00000e-13
571.28	1.00000e-13
572.25	1.00000e-13
573.22	1.00000e-13
574.19	1.00000e-13
575.16	1.00000e-13
576.13	1.00000e-13
577.10	1.00000e-13
578.07	1.00000e-13
579.04	1.00000e-13
580.01	1.00000e-13
580.98	1.00000e-13
581.95	1.00000e-13
582.92	1.00000e-13
583.89	1.00000e-13
584.86	1.00000e-13
585.83	1.00000e-13
586.80	1.00000e-13
587.77	1.00000e-13
588.74	1.26280e-5
589.71	1.00000e-13
590.68	1.00000e-13
591.65	1.00000e-13
592.62	1.00000e-13
593.59	1.00000e-13
594.56	1.00000e-13
595.53	1.00000e-13
596.50	1.00000e-13
597.47	1.00000e-13
598.44	1.00000e-13
599.41	1.00000e-13
600.38	1.00000e-13
601.35	1.00000e-13
602.32	1.00000e-13
603.29	1.00000e-13
604.26	1.00000e-13
605.23	1.00000e-13
606.20	1.00000e-13
607.17	1.00000e-13
608.14	1.00000e-13
609.11	1.00000e-13
610.08	1.00000e-13
611.05	1.00000e-13
612.01	1.00000e-13
612.99	1.00000e-13
613.96	1.00000e-13
614.93	1.00000e-13
615.90	1.00000e-13
616.86	1.00000e-13
617.84	2.54878e-6
618.80	1.00000e-13
619.77	1.00000e-13
620.74	1.00000e-13
621.71	1.00000e-13
622.69	1.00000e-13
623.66	1.00000e-13
624.63	1.00000e-13
625.60	1.00000e-13
626.56	1.00000e-13
627.53	3.82316e-6
628.50	1.00000e-13
629.48	1.00000e-13
630.45	1.00000e-13
631.41	1.00000e-13
632.38	1.00000e-13
633.35	1.00000e-13
634.32	1.00000e-13
635.29	1.00000e-13
636.27	1.00000e-13
637.23	1.00000e-13
638.21	1.00000e-13
639.17	1.00000e-13
640.14	1.00000e-13
641.11	1.00000e-13
642.08	1.00000e-13
643.06	1.00000e-13
644.02	1.00000e-13
644.99	1.00000e-13
645.97	1.00000e-13
646.93	1.00000e-13
647.90	1.00000e-13
648.87	1.00000e-13
649.84	1.00000e-13
650.81	2.58353e-5
651.78	1.00000e-13
652.75	1.00000e-13
653.72	1.00000e-13
654.69	1.00000e-13
655.66	1.00000e-13
656.63	1.00000e-13
657.60	1.00000e-13
658.57	1.00000e-13
659.54	1.00000e-13
660.51	1.00000e-13
661.48	1.00000e-13
662.45	1.00000e-13
663.42	1.00000e-13
664.39	1.00000e-13
665.36	1.00000e-13
666.33	1.00000e-13
667.30	1.00000e-13
668.27	1.00000e-13
669.24	1.00000e-13
670.21	1.00000e-13
671.18	1.00000e-13
672.15	1.00000e-13
673.12	1.00000e-13
674.09	1.00000e-13
675.06	1.00000e-13
676.03	1.00000e-13
677.00	1.00000e-13
677.97	1.00000e-13
678.94	1.00000e-13
679.91	1.00000e-13
680.88	1.00000e-13
681.85	1.00000e-13
682.82	1.00000e-13
683.79	1.00000e-13
684.76	4.98170e-6
685.73	1.00000e-13
686.70	1.00000e-13
687.67	1.00000e-13
688.64	1.00000e-13
689.61	1.00000e-13
690.58	1.00000e-13
691.55	1.00000e-13
692.52	1.00000e-13
693.49	1.00000e-13
694.46	1.00000e-13
695.43	1.00000e-13
696.40	1.00000e-13
697.37	1.00000e-13
698.34	1.00000e-13
699.31	1.00000e-13
700.28	1.00000e-13
701.25	1.00000e-13
702.22	1.00000e-13
703.19	1.00000e-13
704.16	2.08536e-6
705.13	1.00000e-13
706.10	1.00000e-13
707.07	1.00000e-13
708.04	1.85366e-6
709.01	1.00000e-13
709.98	1.00000e-13
710.95	1.00000e-13
711.92	1.00000e-13
712.89	1.00000e-13
713.86	1.00000e-13
714.83	1.00000e-13
715.80	1.00000e-13
716.77	1.00000e-13
717.74	1.00000e-13
718.71	1.00000e-13
719.68	1.00000e-13
720.65	1.00000e-13
721.62	1.00000e-13
722.59	1.00000e-13
723.56	1.00000e-13
724.53	1.00000e-13
725.50	4.63414e-7
726.47	1.00000e-13
727.43	2.94268e-5
728.40	1.00000e-13
729.38	1.00000e-13
730.34	1.00000e-13
731.32	1.00000e-13
732.29	1.00000e-13
733.26	1.00000e-13
734.22	1.00000e-13
735.19	1.00000e-13
736.17	1.00000e-13
737.13	1.00000e-13
738.11	1.00000e-13
739.08	1.00000e-13
740.05	8.10974e-7
741.01	1.00000e-13
741.98	1.00000e-13
742.95	1.00000e-13
743.92	1.00000e-13
744.89	1.00000e-13
745.86	1.00000e-13
746.83	1.00000e-13
747.81	4.05487e-6
748.77	1.00000e-13
749.74	1.00000e-13
750.71	1.00000e-13
751.69	1.00000e-13
752.66	1.00000e-13
753.63	1.00000e-13
754.59	1.00000e-13
755.56	1.00000e-13
756.54	1.00000e-13
757.50	2.31707e-6
758.47	1.00000e-13
759.44	1.00000e-13
760.41	1.00000e-13
761.38	1.00000e-13
762.35	1.00000e-13
763.32	1.00000e-13
764.29	1.00000e-13
765.26	1.00000e-13
766.23	1.00000e-13
767.20	1.00000e-13
768.17	1.00000e-13
769.14	1.00000e-13
770.11	1.00000e-13
771.08	1.00000e-13
772.05	1.00000e-13
773.02	1.00000e-13
773.99	1.00000e-13
774.96	1.00000e-13
775.93	1.00000e-13
776.90	1.00000e-13
777.87	1.00000e-13
778.84	1.00000e-13
779.81	1.00000e-13
780.78	1.00000e-13
781.75	1.00000e-13
782.72	1.00000e-13
783.69	1.00000e-13
784.66	1.00000e-13
785.63	1.00000e-13
786.60	1.00000e-13
787.57	3.47560e-7
788.54	1.00000e-13
789.51	1.00000e-13
790.48	1.00000e-13
791.45	1.00000e-13
792.42	1.00000e-13
793.39	1.00000e-13
794.36	1.00000e-13
795.33	1.00000e-13
796.30	1.00000e-13
797.27	1.00000e-13
798.24	1.00000e-13
799.21	1.00000e-13
800.18	1.00000e-13
801.15	1.00000e-13
802.12	5.16707e-5
803.09	1.00000e-13
804.06	1.00000e-13
805.03	1.00000e-13
806.00	1.00000e-13
806.97	1.00000e-13
807.94	1.00000e-13
808.91	1.00000e-13
809.88	1.00000e-13
810.85	1.00000e-13
811.82	1.00000e-13
812.79	1.00000e-13
813.76	1.00000e-13
814.73	1.00000e-13
815.70	1.00000e-13
816.67	1.00000e-13
817.64	1.00000e-13
818.61	1.00000e-13
819.58	1.00000e-13
820.55	5.09755e-6
821.52	1.00000e-13
822.49	1.00000e-13
823.46	1.00000e-13
824.43	1.00000e-13
825.40	1.00000e-13
826.37	1.00000e-13
827.34	1.00000e-13
828.30	1.00000e-13
829.28	1.00000e-13
830.25	1.00000e-13
831.21	1.00000e-13
832.18	1.00000e-13
833.15	1.00000e-13
834.13	1.00000e-13
835.09	1.00000e-13
836.06	1.00000e-13
837.03	1.00000e-13
838.01	1.00000e-13
838.97	1.00000e-13
839.94	6.25609e-6
840.91	1.00000e-13
841.89	1.00000e-13
842.86	1.00000e-13
843.82	1.00000e-13
844.79	1.00000e-13
845.77	1.00000e-13
846.73	1.00000e-13
847.70	1.00000e-13
848.67	1.03110e-5
849.65	1.00000e-13
850.61	1.00000e-13
851.58	1.00000e-13
852.55	1.00000e-13
853.52	1.00000e-13
854.49	9.96340e-6
855.46	1.00000e-13
856.43	1.00000e-13
857.40	1.00000e-13
858.37	1.00000e-13
859.34	1.00000e-13
860.31	1.00000e-13
861.28	1.00000e-13
862.25	1.00000e-13
863.22	1.00000e-13
864.19	1.00000e-13
865.16	1.00000e-13
866.13	1.00000e-13
867.10	1.00000e-13
868.07	1.00000e-13
869.04	1.00000e-13
870.01	1.00000e-13
870.98	1.00000e-13
871.95	1.00000e-13
872.92	1.00000e-13
873.89	1.00000e-13
874.86	5.79267e-7
875.83	1.00000e-13
876.80	2.68780e-5
877.77	1.00000e-13
878.74	1.00000e-13
879.71	1.00000e-13
880.68	1.00000e-13
881.65	1.00000e-13
882.62	1.00000e-13
883.59	1.00000e-13
884.56	1.00000e-13
885.53	1.00000e-13
886.50	1.00000e-13
887.47	1.00000e-13
888.44	1.00000e-13
889.41	1.00000e-13
890.38	1.00000e-13
891.35	1.00000e-13
892.32	1.00000e-13
893.29	1.00000e-13
894.26	4.28658e-6
895.23	1.00000e-13
896.20	1.00000e-13
897.17	1.00000e-13
898.14	1.00000e-13
899.11	1.00000e-13
900.08	1.00000e-13
901.05	1.00000e-13
902.02	1.00000e-13
902.99	8.22560e-6
903.96	1.00000e-13
904.93	1.00000e-13
905.90	1.00000e-13
906.87	1.00000e-13
907.84	1.00000e-13
908.81	1.00000e-13
909.78	9.03657e-6
910.75	1.00000e-13
911.72	1.00000e-13
912.69	1.00000e-13
913.66	1.00000e-13
914.63	1.00000e-13
915.60	1.00000e-13
916.57	1.00000e-13
917.54	1.00000e-13
918.51	1.00000e-13
919.48	1.00000e-13
920.45	1.00000e-13
921.42	1.00000e-13
922.39	1.00000e-13
923.36	1.00000e-13
924.33	1.00000e-13
925.30	1.00000e-13
926.27	1.00000e-13
927.24	1.00000e-13
928.21	1.00000e-13
929.18	1.00000e-13
930.15	1.00000e-13
931.12	1.00000e-13
932.09	1.00000e-13
933.05	1.00000e-13
934.03	1.00000e-13
935.00	1.00000e-13
935.97	1.00000e-13
936.94	1.00000e-13
937.90	1.00000e-13
938.88	1.00000e-13
939.85	1.00000e-13
940.81	1.00000e-13
941.79	1.00000e-13
942.75	1.00000e-13
943.72	1.00000e-13
944.70	1.00000e-13
945.67	1.96951e-6
946.63	1.00000e-13
947.60	1.00000e-13
948.58	1.00000e-13
949.54	1.00000e-13
950.51	1.00000e-13
951.48	1.00000e-13
952.46	1.00000e-13
953.43	1.00000e-13
954.39	1.00000e-13
955.36	1.00000e-13
956.33	1.00000e-13
957.30	1.00000e-13
958.27	1.00000e-13
959.24	1.00000e-13
960.21	1.00000e-13
961.18	1.00000e-13
962.15	1.00000e-13
963.12	1.00000e-13
964.10	1.00000e-13
965.06	1.20488e-5
966.03	1.00000e-13
967.00	1.00000e-13
967.97	1.00000e-13
968.94	1.00000e-13
969.91	1.00000e-13
970.88	1.00000e-13
971.85	1.00000e-13
972.82	1.00000e-13
973.79	1.00000e-13
974.76	1.00000e-13
975.73	1.00000e-13
976.70	1.00000e-13
977.67	1.00000e-13
978.64	1.00000e-13
979.61	1.00000e-13
980.58	1.00000e-13
981.55	1.00000e-13
982.52	1.00000e-13
983.49	1.00000e-13
984.46	1.00000e-13
985.43	1.00000e-13
986.40	1.00000e-13
987.37	1.00000e-13
988.34	1.00000e-13
989.31	1.00000e-13
990.28	1.00000e-13
991.25	1.00000e-13
992.22	1.00000e-13
993.19	1.00000e-13
994.16	1.00000e-13
995.13	1.00000e-13
996.10	1.00000e-13
997.07	1.00000e-13
998.04	1.00000e-13
999.01	1.00000e-13
999.98	1.00000e-13
1000.95	1.00000e-13
1001.92	1.00000e-13
1002.89	1.00000e-13
1003.86	1.00000e-13
1004.83	1.00000e-13
1005.80	1.00000e-13
1006.77	1.00000e-13
1007.74	9.84755e-6
1008.71	1.00000e-13
1009.68	1.00000e-13
1010.65	1.00000e-13
1011.62	1.00000e-13
1012.59	1.00000e-13
1013.56	1.00000e-13
1014.53	1.00000e-13
1015.50	1.00000e-13
1016.47	1.00000e-13
1017.44	1.00000e-13
1018.41	1.00000e-13
1019.38	1.00000e-13
1020.35	1.00000e-13
1021.32	1.00000e-13
1022.29	1.00000e-13
1023.26	1.00000e-13
1024.23	1.00000e-13
1025.20	1.00000e-13
1026.17	1.00000e-13
1027.14	1.00000e-13
1028.11	1.00000e-13
1029.08	1.00000e-13
1030.05	1.00000e-13
1031.02	1.00000e-13
1031.99	1.00000e-13
1032.96	1.00000e-13
1033.93	1.00000e-13
1034.90	1.00000e-13
1035.87	1.00000e-13
1036.84	1.00000e-13
1037.81	1.00000e-13
1038.78	1.00000e-13
1039.75	1.00000e-13
1040.71	9.49998e-6
1041.68	1.00000e-13
1042.66	1.00000e-13
1043.62	1.00000e-13
1044.59	1.00000e-13
1045.57	1.00000e-13
1046.54	1.00000e-13
1047.51	1.00000e-13
1048.47	1.00000e-13
1049.44	1.00000e-13
1050.41	1.00000e-13
1051.38	1.00000e-13
1052.35	4.30975e-5
1053.32	1.00000e-13
1054.29	1.00000e-13
1055.26	1.00000e-13
1056.23	1.00000e-13
1057.21	1.00000e-13
1058.18	1.00000e-13
1059.14	1.00000e-13
1060.11	1.00000e-13
1061.08	1.00000e-13
1062.05	1.00000e-13
1063.02	1.00000e-13
1063.99	1.00000e-13
1064.97	1.00000e-13
1065.93	1.00000e-13
1066.90	1.00000e-13
1067.87	1.00000e-13
1068.85	1.00000e-13
1069.81	1.00000e-13
1070.79	1.00000e-13
1071.75	1.00000e-13
1072.72	1.00000e-13
1073.69	6.95121e-7
1074.66	1.00000e-13
1075.63	1.00000e-13
1076.60	1.00000e-13
1077.57	1.00000e-13
1078.54	1.00000e-13
1079.51	1.00000e-13
1080.48	1.00000e-13
1081.45	1.00000e-13
1082.42	1.00000e-13
1083.39	1.00000e-13
1084.36	1.00000e-13
1085.33	1.00000e-13
1086.30	1.00000e-13
1087.27	1.00000e-13
1088.24	1.00000e-13
1089.21	1.00000e-13
1090.18	2.43292e-5
1091.15	1.00000e-13
1092.12	1.00000e-13
1093.09	1.00000e-13
1094.06	9.26828e-7
1095.03	1.00000e-13
1096.00	1.00000e-13
1096.97	1.00000e-13
1097.94	1.00000e-13
1098.91	1.00000e-13
1099.88	1.00000e-13
1100.85	1.00000e-13
1101.82	1.00000e-13
1102.79	1.00000e-13
1103.76	1.00000e-13
1104.73	1.00000e-13
1105.70	1.00000e-13
1106.67	1.00000e-13
1107.64	1.00000e-13
1108.61	1.00000e-13
1109.58	1.00000e-13
1110.55	1.00000e-13
1111.52	1.00000e-13
1112.49	1.00000e-13
1113.46	1.00000e-13
1114.43	1.00000e-13
1115.40	1.00000e-13
1116.37	1.00000e-13
1117.34	1.00000e-13
1118.31	1.00000e-13
1119.28	1.00000e-13
1120.25	1.00000e-13
1121.22	1.00000e-13
1122.19	1.00000e-13
1123.16	1.77256e-5
1124.13	1.00000e-13
1125.10	1.00000e-13
1126.07	1.00000e-13
1127.04	1.00000e-13
1128.01	1.00000e-13
1128.98	1.00000e-13
1129.95	1.00000e-13
1130.92	1.00000e-13
1131.89	1.00000e-13
1132.86	1.00000e-13
1133.83	1.00000e-13
1134.80	1.00000e-13
1135.77	1.00000e-13
1136.74	1.00000e-13
1137.71	1.00000e-13
1138.68	1.00000e-13
1139.65	1.00000e-13
1140.62	1.00000e-13
1141.59	1.00000e-13
1142.56	1.00000e-13
1143.53	1.00000e-13
1144.50	1.00000e-13
1145.46	1.00000e-13
1146.44	1.00000e-13
1147.41	1.00000e-13
1148.37	1.00000e-13
1149.34	1.04268e-6
1150.31	1.00000e-13
1151.29	1.00000e-13
1152.25	1.00000e-13
1153.22	1.00000e-13
1154.20	1.00000e-13
1155.16	1.00000e-13
1156.13	1.00000e-13
1157.11	1.00000e-13
1158.08	1.00000e-13
1159.05	1.00000e-13
1160.02	1.00000e-13
1160.98	1.00000e-13
1161.95	1.00000e-13
1162.92	1.00000e-13
1163.90	1.00000e-13
1164.86	1.00000e-13
1165.83	1.00000e-13
1166.80	1.00000e-13
1167.77	1.00000e-13
1168.74	1.00000e-13
1169.71	1.00000e-13
1170.69	1.00000e-13
1171.65	1.00000e-13
1172.62	1.00000e-13
1173.59	1.00000e-13
1174.56	1.00000e-13
1175.53	9.84755e-6
1176.50	1.00000e-13
1177.47	1.00000e-13
1178.45	1.00000e-13
1179.41	1.00000e-13
1180.38	1.00000e-13
1181.35	1.00000e-13
1182.32	1.00000e-13
1183.29	1.00000e-13
1184.26	1.15853e-7
1185.23	1.00000e-13
1186.20	1.00000e-13
1187.17	1.00000e-13
1188.14	1.00000e-13
1189.11	1.00000e-13
1190.08	1.00000e-13
1191.05	1.00000e-13
1192.02	1.00000e-13
1192.99	1.00000e-13
1193.96	1.00000e-13
1194.93	1.00000e-13
1195.90	1.00000e-13
1196.87	1.00000e-13
1197.84	1.00000e-13
1198.81	1.00000e-13
1199.78	1.00000e-13
1200.75	1.00000e-13
1201.72	1.00000e-13
1202.69	1.00000e-13
1203.66	1.00000e-13
1204.63	1.00000e-13
1205.60	1.00000e-13
1206.57	1.00000e-13
1207.54	1.00000e-13
1208.51	1.00000e-13
1209.48	1.00000e-13
1210.45	1.00000e-13
1211.42	1.00000e-13
1212.39	1.00000e-13
1213.36	1.00000e-13
1214.33	1.00000e-13
1215.30	1.00000e-13
1216.27	1.00000e-13
1217.24	1.00000e-13
1218.21	1.00000e-13
1219.18	1.00000e-13
1220.15	1.00000e-13
1221.12	1.00000e-13
1222.09	1.00000e-13
1223.06	1.00000e-13
1224.03	1.00000e-13
1225.00	1.00000e-13
1225.97	1.00000e-13
1226.94	1.00000e-13
1227.91	1.00000e-13
1228.88	1.00000e-13
1229.85	1.00000e-13
1230.82	1.00000e-13
1231.79	1.00000e-13
1232.76	1.00000e-13
1233.73	1.00000e-13
1234.70	1.00000e-13
1235.67	1.00000e-13
1236.64	1.00000e-13
1237.61	1.00000e-13
1238.58	1.00000e-13
1239.55	1.00000e-13
1240.52	1.00000e-13
1241.49	1.00000e-13
1242.46	1.00000e-13
1243.43	1.00000e-13
1244.40	1.00000e-13
1245.37	1.00000e-13
1246.34	1.00000e-13
1247.31	1.00000e-13
1248.28	1.00000e-13
1249.25	1.00000e-13
1250.22	1.00000e-13
1251.19	1.00000e-13
1252.16	1.00000e-13
1253.13	1.00000e-13
1254.09	1.00000e-13
1255.06	1.00000e-13
1256.04	1.00000e-13
1257.00	1.00000e-13
1257.97	1.00000e-13
1258.95	1.00000e-13
1259.92	1.00000e-13
1260.89	1.00000e-13
1261.85	1.00000e-13
1262.83	1.00000e-13
1263.80	1.00000e-13
1264.76	1.00000e-13
1265.74	1.00000e-13
1266.71	1.00000e-13
1267.67	1.00000e-13
1268.65	1.00000e-13
1269.61	1.00000e-13
1270.58	1.50610e-6
1271.55	2.44451e-5
1272.52	1.31146e-4
1273.49	5.17054e-4
1274.47	1.08868e-3
1275.44	2.42806e-3
1276.41	4.26827e-3
1277.38	7.77979e-3
1278.34	0.0136251
1279.31	0.0195998
1280.28	0.0210353
1281.25	0.0142602
1282.23	7.58157e-3
1283.19	3.72295e-3
1284.17	1.79619e-3
1285.13	1.04685e-3
1286.10	5.54822e-4
1287.07	3.13152e-4
1288.04	1.70768e-4
1289.01	8.24877e-5
1289.98	6.39511e-5
1290.95	3.35975e-5
1291.92	1.00000e-13
1292.89	3.69573e-5
1293.86	1.00000e-13
1294.83	1.26280e-5
1295.80	1.00000e-13
1296.77	1.50610e-6
1297.74	1.00000e-13
1298.71	1.00000e-13
1299.68	1.00000e-13
1300.65	1.00000e-13
1301.62	1.15853e-6
1302.59	1.00000e-13
1303.56	1.00000e-13
1304.53	1.00000e-13
1305.50	1.00000e-13
1306.47	6.37194e-6
1307.44	1.00000e-13
1308.41	1.00000e-13
1309.38	1.00000e-13
1310.35	1.00000e-13
1311.32	1.00000e-13
1312.29	1.00000e-13
1313.26	1.00000e-13
1314.23	1.00000e-13