File: data/TGA/005d-L_M/F4.txt
Filename	F4
Instrument name
Operator	Gwenael
rundate	2025-02-10
Sample name	F4
[step]
Step 1
Time	Temperature	Weight	Weight	Deriv. Weight
min	°C	mg	%	% / °C
0,02	26,46	2,685	100,023	6,99510e-4
0,96	27,69	2,689	100,201	6,02219e-5
1,96	29,49	2,691	100,264	-3,25084e-4
2,96	32,76	2,690	100,239	-5,86132e-4
3,96	37,22	2,691	100,258	-7,82326e-4
4,96	42,25	2,690	100,221	-9,46434e-4
5,96	47,33	2,690	100,242	-1,13595e-3
6,96	52,26	2,690	100,208	-1,36066e-3
7,96	57,03	2,690	100,209	-1,63389e-3
8,96	61,72	2,689	100,200	-2,37304e-3
9,96	66,45	2,689	100,178	-3,19806e-3
10,96	71,27	2,689	100,176	-4,01941e-3
11,96	76,19	2,688	100,166	-4,92373e-3
12,96	81,20	2,689	100,168	-5,85039e-3
13,96	86,25	2,688	100,145	-6,86350e-3
14,96	91,32	2,687	100,097	-8,02063e-3
15,96	96,34	2,686	100,090	-9,36314e-3
16,96	100,21	2,684	100,011	-0,0109288
17,96	102,30	2,682	99,923	-0,0127699
18,96	103,01	2,682	99,910	-0,0149137
19,96	102,91	2,679	99,829	-0,0170111
20,96	102,40	2,679	99,822	-0,0180423
21,96	101,75	2,678	99,759	-0,0157473
22,96	101,09	2,677	99,729	-0,0107557
23,96	100,51	2,676	99,718	-6,48928e-3
24,96	100,06	2,676	99,714	-4,12985e-3
25,96	100,68	2,676	99,717	-2,98228e-3
26,96	103,45	2,677	99,737	-2,33934e-3
27,96	107,71	2,678	99,783	-1,88724e-3
28,96	112,50	2,677	99,731	-1,55643e-3
29,96	117,30	2,676	99,717	-1,33957e-3
30,96	122,03	2,676	99,703	-1,28447e-3
31,96	126,79	2,676	99,701	-1,29264e-3
32,96	131,62	2,676	99,684	-1,37964e-3
33,96	136,55	2,675	99,679	-1,52757e-3
34,96	141,55	2,675	99,673	-1,61724e-3
35,96	146,59	2,675	99,662	-1,62408e-3
36,96	151,65	2,675	99,662	-1,52186e-3
37,96	156,72	2,675	99,663	-1,53186e-3
38,96	161,78	2,675	99,646	-1,52309e-3
39,96	166,82	2,674	99,636	-1,56293e-3
40,96	171,84	2,674	99,630	-1,59084e-3
41,96	176,84	2,674	99,616	-1,66395e-3
42,96	181,85	2,674	99,614	-1,69164e-3
43,96	186,86	2,673	99,601	-1,71614e-3
44,96	191,86	2,673	99,594	-1,74845e-3
45,96	196,87	2,673	99,582	-1,74342e-3
46,96	201,86	2,672	99,560	-1,71688e-3
47,96	206,86	2,673	99,572	-1,73048e-3
48,96	211,86	2,672	99,564	-1,75732e-3
49,96	216,86	2,672	99,555	-1,77864e-3
50,96	221,87	2,672	99,537	-1,81119e-3
51,96	226,87	2,671	99,534	-1,72778e-3
52,96	231,89	2,671	99,518	-1,67042e-3
53,96	236,90	2,671	99,511	-1,72018e-3
54,96	241,90	2,671	99,518	-1,91937e-3
55,96	246,91	2,671	99,507	-2,16641e-3
56,96	251,92	2,670	99,493	-2,58259e-3
57,96	256,94	2,670	99,472	-3,10726e-3
58,96	261,94	2,669	99,455	-3,82559e-3
59,96	266,95	2,670	99,474	-4,64855e-3
60,96	271,96	2,670	99,460	-5,61862e-3
61,96	276,97	2,669	99,438	-6,74883e-3
62,96	281,97	2,668	99,387	-8,03733e-3
63,96	286,98	2,667	99,367	-9,54209e-3
64,96	292,00	2,665	99,305	-0,0113135
65,96	296,76	2,664	99,246	-0,0134420
66,96	299,69	2,662	99,175	-0,0160697
67,96	301,11	2,660	99,106	-0,0191980
68,96	301,80	2,659	99,061	-0,0227384
69,96	301,89	2,657	98,987	-0,0271346
70,96	301,57	2,655	98,934	-0,0328130
71,96	301,05	2,653	98,849	-0,0398591
72,96	300,51	2,652	98,825	-0,0416267
73,96	300,08	2,651	98,773	0,0182369
74,96	299,80	2,650	98,719	0,204945
75,96	299,67	2,648	98,666	0,257392
76,96	299,66	2,647	98,626	0,249082
77,96	299,74	2,645	98,558	0,247180
78,96	299,84	2,644	98,512	0,250630
79,96	299,94	2,643	98,466	0,196901
80,96	300,02	2,641	98,406	-0,175841
81,96	300,06	2,640	98,357	-1,03487
82,96	300,08	2,638	98,304	-1,31345
83,96	300,07	2,637	98,259	-1,26443
84,96	300,05	2,636	98,198	-1,23826
85,96	300,03	2,634	98,143	-1,13994
86,96	300,01	2,633	98,094	-0,340960
87,96	300,00	2,631	98,041	2,87551
88,96	299,99	2,630	97,989	6,05284
89,96	299,99	2,629	97,933	6,28665
90,96	299,99	2,627	97,879	6,12711
91,96	299,99	2,626	97,827	6,18279
92,96	299,99	2,624	97,767	5,43427
93,96	300,00	2,623	97,733	0,265731
94,96	300,00	2,621	97,668	-17,8093
95,96	300,00	2,620	97,632	-30,2943
96,96	300,00	2,618	97,555	-29,9028
97,96	300,00	2,617	97,508	-28,7676
98,96	300,00	2,616	97,455	-25,4306
99,96	300,00	2,614	97,393	-15,5516
100,96	300,00	2,613	97,364	12,3359
101,96	300,00	2,611	97,298	59,2533
102,96	300,00	2,609	97,207	75,5874
103,96	300,00	2,608	97,177	79,7550
104,96	300,00	2,607	97,132	70,7354
105,96	300,00	2,606	97,084	64,4091
106,96	300,00	2,604	97,018	57,2399
107,96	300,00	2,602	96,963	42,4630
108,96	300,00	2,601	96,920	22,5516
109,96	300,00	2,600	96,861	-3,51166
110,96	300,00	2,598	96,802	20,4303
111,96	300,00	2,597	96,747	-16,6773
112,96	300,00	2,596	96,706	-17,4348
113,96	300,00	2,594	96,643	-36,5102
114,96	300,00	2,593	96,594	-72,3463
115,96	300,00	2,591	96,541	-50,8804
116,96	300,00	2,590	96,486	-39,3747
117,96	300,00	2,588	96,423	-40,4354
118,96	300,00	2,587	96,372	-48,6809
119,96	300,00	2,586	96,333	-40,1588
120,96	300,00	2,584	96,271	-4,49511
121,96	300,00	2,582	96,218	4,60730
122,96	300,00	2,581	96,174	25,6256
123,96	300,00	2,580	96,117	70,7695
124,96	300,00	2,578	96,062	112,197
125,96	300,00	2,576	95,994	126,911
126,96	300,00	2,576	95,959	112,131
127,96	300,00	2,574	95,899	43,9384
128,96	300,00	2,573	95,853	5,34967
129,96	300,00	2,571	95,801	-18,3220
130,96	300,00	2,570	95,742	-26,1212
131,96	300,00	2,568	95,697	-67,6040
132,96	300,00	2,567	95,646	-43,0736
133,96	300,00	2,566	95,592	-26,0057
134,96	300,00	2,565	95,553	-9,90801
135,96	300,00	2,563	95,475	-28,9747
136,96	300,00	2,561	95,428	-42,2543
137,96	300,00	2,560	95,394	-54,7780
138,96	300,00	2,558	95,319	-56,4189
139,96	300,00	2,557	95,278	-58,8594
140,96	300,00	2,556	95,224	-41,7651
141,96	300,00	2,555	95,200	-2,47041
142,96	300,00	2,553	95,124	12,8656
143,96	300,00	2,553	95,112	23,5924
144,96	300,00	2,551	95,033	20,4906
145,96	300,00	2,549	94,982	26,3544
146,96	300,00	2,548	94,932	32,2171
147,96	300,00	2,546	94,870	29,0803
148,96	300,00	2,546	94,848	12,0719
149,96	300,00	2,544	94,793	32,2791
150,96	300,00	2,543	94,745	55,0241
151,96	300,00	2,541	94,686	77,6801
152,96	300,00	2,540	94,645	82,7229
153,96	300,00	2,539	94,586	75,4504
154,96	300,00	2,537	94,538	67,7257
155,96	300,00	2,536	94,488	44,1494
156,96	300,00	2,535	94,437	2,13668
157,96	300,00	2,534	94,397	-34,6706
158,96	300,00	2,532	94,342	-18,7937
159,96	300,00	2,531	94,314	7,50821
160,96	300,00	2,529	94,237	-5,91096
161,96	300,00	2,528	94,191	-10,5396
162,96	300,00	2,527	94,151	26,5863
163,96	300,00	2,526	94,096	23,6299
164,96	300,00	2,525	94,087	-10,7783
165,96	300,00	2,524	94,032	-53,5210
166,96	300,00	2,522	93,981	-75,2949
167,96	300,00	2,519	93,860	-87,0545
168,96	300,00	2,519	93,861	-68,9221
169,96	300,00	2,518	93,815	-72,6100
170,96	300,00	2,516	93,747	-48,6507
171,96	300,00	2,516	93,734	-20,4644
172,96	300,00	2,515	93,686	-5,81212
173,96	300,00	2,513	93,620	11,5441
174,96	300,00	2,512	93,589	-6,60279
175,96	300,00	2,510	93,531	2,88328
176,96	300,00	2,510	93,503	15,3767
177,96	300,00	2,508	93,454	0,0538707
178,96	300,00	2,507	93,405	10,4746
179,96	300,00	2,506	93,362	13,1158
180,96	300,00	2,505	93,315	25,1123
181,96	300,00	2,503	93,265	57,2841
182,96	300,00	2,502	93,213	65,3490
183,96	300,00	2,501	93,171	39,7201
184,96	300,00	2,499	93,120	21,4499
185,96	300,00	2,499	93,091	12,4873
186,96	300,00	2,497	93,045	-35,8361
187,96	300,00	2,496	93,001	-27,1178
188,96	300,00	2,495	92,954	-47,9877
189,96	300,00	2,493	92,897	-46,3355
190,96	300,00	2,492	92,860	-30,3326
191,96	300,00	2,491	92,809	-52,0077
192,96	300,00	2,490	92,781	-23,2082
193,96	300,00	2,489	92,733	-6,87421
194,96	300,00	2,487	92,676	0,208683
195,96	300,00	2,487	92,652	-8,93882
196,96	300,00	2,486	92,607	-38,3364
197,96	300,00	2,484	92,554	-23,7792
198,96	300,00	2,483	92,520	60,0490
199,96	300,00	2,482	92,485	70,2671
200,96	300,00	2,481	92,429	100,747
201,96	300,00	2,480	92,388	108,852
202,96	300,00	2,479	92,348	118,673
203,96	300,00	2,477	92,302	115,106
204,96	300,00	2,476	92,256	108,106
205,96	300,00	2,475	92,220	71,7798
206,96	300,00	2,474	92,174	9,63994
207,96	300,00	2,473	92,128	-30,2106
208,96	300,00	2,472	92,091	-44,0006
209,96	300,00	2,471	92,061	-35,4705
210,96	300,00	2,470	92,013	-14,0268
211,96	300,00	2,468	91,966	-9,01435
212,96	300,00	2,467	91,925	-25,9303
213,96	300,00	2,466	91,878	-33,5055
214,96	300,00	2,465	91,834	-22,2690
215,96	300,00	2,464	91,799	8,41086
216,96	300,00	2,463	91,770	3,19715
217,96	300,00	2,462	91,712	-19,8988
218,96	300,00	2,461	91,680	-38,9871
219,96	300,00	2,460	91,637	-36,0427
220,96	300,00	2,459	91,605	-28,3694
221,96	300,00	2,457	91,561	-6,52007
222,96	300,00	2,457	91,529	-14,8074
223,96	300,00	2,455	91,485	-40,8971
224,96	300,00	2,454	91,449	-66,2671
225,96	300,00	2,453	91,409	-82,3374
226,96	300,00	2,453	91,377	-77,5060
227,96	300,00	2,451	91,333	-68,2904
228,96	300,00	2,450	91,297	-63,8683
229,96	300,00	2,449	91,257	-66,5992
230,96	300,00	2,448	91,213	-61,9651
231,96	300,00	2,447	91,187	-56,2999
232,96	300,00	2,446	91,142	-42,9655
233,96	300,00	2,445	91,107	-35,7014
234,96	300,00	2,445	91,078	-43,2423
235,96	300,00	2,443	91,039	-35,4381
236,96	300,00	2,443	91,005	-58,2802
237,96	300,00	2,442	90,969	-62,5025
238,96	300,00	2,441	90,929	-56,0029
239,96	300,00	2,439	90,870	-52,9569
240,96	300,00	2,439	90,870	-54,7897
241,96	300,00	2,438	90,817	-24,4285
242,96	300,00	2,437	90,794	23,6548
243,96	300,00	2,436	90,742	35,9851
244,96	300,00	2,435	90,716	56,6051
245,96	300,00	2,434	90,676	64,1382
246,96	300,00	2,433	90,635	60,4935
247,96	300,00	2,431	90,584	57,6364
248,96	300,00	2,431	90,557	56,0304
249,96	300,00	2,430	90,552	51,2902
250,96	300,00	2,429	90,501	33,3666
251,96	300,00	2,428	90,478	23,6140
252,96	300,00	2,428	90,449	22,1230
253,96	300,00	2,427	90,411	-2,84184
254,96	300,00	2,426	90,389	-28,2720
255,96	300,00	2,425	90,355	-45,3491
256,96	300,00	2,424	90,306	-63,8356
257,96	300,00	2,423	90,282	-69,5854
258,96	300,00	2,423	90,257	-64,0528
259,96	300,00	2,421	90,209	-53,8954
260,96	300,00	2,421	90,187	-48,2008
261,96	300,00	2,420	90,175	-28,9700
262,96	300,00	2,419	90,134	-17,2835
263,96	300,00	2,418	90,092	7,49915
264,96	300,00	2,417	90,066	25,4406
265,96	300,00	2,417	90,044	44,2701
266,96	300,00	2,416	90,031	50,6560
267,96	300,00	2,415	89,996	52,3814
268,96	300,00	2,414	89,949	45,1773
269,96	300,00	2,413	89,917	41,2962
270,96	300,00	2,413	89,893	42,6807
271,96	300,00	2,413	89,891	39,3337
272,96	300,00	2,411	89,827	38,8199
273,96	300,00	2,410	89,801	27,1070
274,96	300,00	2,410	89,784	-8,61841
275,96	300,00	2,409	89,754	-7,22053
276,96	300,00	2,408	89,720	13,9377
277,96	300,00	2,408	89,700	28,7143
278,96	300,00	2,407	89,675	37,8815
279,96	300,00	2,406	89,641	41,9773
280,96	300,00	2,406	89,630	56,0066
281,96	300,00	2,404	89,566	60,1279
282,96	300,00	2,404	89,555	54,0167
283,96	300,00	2,403	89,519	54,5556
284,96	300,00	2,402	89,493	57,4195
285,96	300,00	2,402	89,483	51,5626
286,96	300,00	2,400	89,432	45,1648
287,96	300,00	2,400	89,413	18,7178
288,96	300,00	2,399	89,380	4,28436
289,96	300,00	2,398	89,362	2,41821
290,96	300,00	2,397	89,313	-13,9198
291,96	300,00	2,396	89,251	-46,5501
292,96	300,00	2,396	89,279	-52,2904
293,96	300,00	2,395	89,246	-49,3935
294,96	300,00	2,395	89,222	-49,8296
295,96	300,00	2,394	89,179	-50,2572
296,96	300,00	2,393	89,172	-33,0306
297,96	300,00	2,392	89,127	-15,6912
298,96	300,00	2,392	89,104	-16,4915
299,96	300,00	2,391	89,071	-23,8666
300,96	300,00	2,390	89,043	-24,5033
301,96	300,00	2,389	89,011	-10,5783
302,96	300,00	2,388	88,971	1,53737
303,96	300,00	2,387	88,945	15,9481
304,96	300,00	2,387	88,923	-6,94101
305,96	300,00	2,387	88,921	-15,6883
306,96	300,00	2,386	88,889	-22,3407
307,96	300,00	2,385	88,843	-35,5426
308,96	300,00	2,384	88,820	-38,5202
309,96	300,00	2,384	88,809	-38,5573
310,96	300,00	2,383	88,775	-23,6641
311,96	300,00	2,381	88,729	-9,95995
312,96	300,00	2,381	88,704	-6,03782
313,96	300,00	2,380	88,663	15,6127
314,96	300,00	2,379	88,648	33,1240
315,96	300,00	2,379	88,621	33,9189
316,96	300,00	2,378	88,593	26,3500
317,96	300,00	2,377	88,577	20,5817
318,96	300,00	2,377	88,563	28,0345
319,96	300,00	2,376	88,526	35,2341
320,96	300,00	2,375	88,497	32,9307
321,96	300,00	2,375	88,477	26,2610
322,96	300,00	2,374	88,456	22,2304
323,96	300,00	2,373	88,423	14,7016
324,96	300,00	2,372	88,391	11,6198
325,96	300,00	2,372	88,372	-2,05468
326,96	300,00	2,371	88,341	-27,9127
327,96	300,00	2,371	88,323	-31,4629
328,96	300,00	2,370	88,290	-30,2004
329,96	300,00	2,369	88,258	-30,2625
330,96	300,00	2,368	88,225	-30,8592
331,96	300,00	2,368	88,215	-22,5158
332,96	300,00	2,367	88,193	-1,78903
333,96	300,00	2,366	88,157	-4,53274
334,96	300,00	2,365	88,114	-3,02300
335,96	300,00	2,365	88,118	9,76041
336,96	300,00	2,365	88,101	9,03115
337,96	300,00	2,363	88,055	-2,28972
338,96	300,00	2,363	88,024	-11,8116
339,96	300,00	2,362	87,993	-10,8637
340,96	300,00	2,361	87,974	-16,6589
341,96	300,00	2,361	87,960	-1,99619
342,96	300,00	2,360	87,931	12,4098
343,96	300,00	2,359	87,885	10,4133
344,96	300,00	2,359	87,878	-9,82790
345,96	300,00	2,358	87,838	-18,8594
346,96	300,00	2,357	87,831	-20,4657
347,96	300,00	2,356	87,794	-29,3839
348,96	300,00	2,356	87,781	-15,6679
349,96	300,00	2,355	87,756	5,79581
350,96	300,00	2,355	87,741	13,3536
351,96	300,00	2,354	87,705	24,9267
352,96	300,00	2,353	87,681	30,7457
353,96	300,00	2,353	87,655	33,9941
354,96	300,00	2,352	87,619	34,4364
355,96	300,00	2,351	87,585	31,9967
356,96	300,00	2,351	87,580	25,8496
357,96	300,00	2,350	87,551	14,2200
358,96	300,00	2,349	87,532	2,08530
359,96	300,00	2,349	87,505	1,16025
360,96	300,00	2,348	87,497	-9,77780
361,96	300,00	2,347	87,443	-27,4940
362,96	300,00	2,346	87,411	-43,1218
363,96	300,00	2,346	87,409	-43,9478
364,96	300,00	2,345	87,387	-44,8134
365,96	300,00	2,345	87,358	-42,4933
366,96	300,00	2,344	87,337	-40,7121
367,96	300,00	2,343	87,309	-39,1036
368,96	300,00	2,343	87,282	-37,6045
369,96	300,00	2,342	87,256	-36,4941
370,96	300,00	2,341	87,236	-21,9933
371,96	300,00	2,341	87,205	10,2991
372,96	300,00	2,340	87,185	29,9374
373,96	300,00	2,339	87,165	43,3912
374,96	300,00	2,339	87,139	47,6520
375,96	300,00	2,338	87,122	46,1925
376,96	300,00	2,337	87,090	48,0682
377,96	300,00	2,337	87,072	39,1786
378,96	300,00	2,336	87,043	27,4452
379,96	300,00	2,336	87,020	21,2955
380,96	300,00	2,335	86,992	20,8649
381,96	300,00	2,335	86,979	30,3856
382,96	300,00	2,334	86,965	34,4088
383,96	300,00	2,333	86,920	33,8784
384,96	300,00	2,333	86,921	28,3909
385,96	300,00	2,332	86,884	23,2729
386,96	300,00	2,331	86,864	-2,37633
387,96	300,00	2,331	86,856	-15,8757
388,96	300,00	2,330	86,820	-12,9830
389,96	300,00	2,330	86,795	-25,9963
390,96	300,00	2,329	86,769	-25,1428
391,96	300,00	2,328	86,747	-29,3081
392,96	300,00	2,327	86,712	-23,9733
393,96	300,00	2,328	86,719	-12,9379
394,96	300,00	2,326	86,673	-17,2483
395,96	300,00	2,326	86,664	-12,4412
396,96	300,00	2,325	86,636	-11,0266
397,96	300,00	2,325	86,608	-13,1921
398,96	300,00	2,324	86,588	-15,1201
399,96	300,00	2,323	86,563	-20,2342
400,96	300,00	2,323	86,539	-21,8182
401,96	300,00	2,322	86,524	-19,8809
402,96	300,00	2,322	86,505	-17,2251
403,96	300,00	2,321	86,483	-27,9179
404,96	300,00	2,320	86,452	-29,7565
405,96	300,00	2,320	86,427	-26,0820
406,96	300,00	2,319	86,411	-24,3037
407,96	300,00	2,318	86,366	-20,0410
408,96	300,00	2,318	86,372	-10,8612
409,96	300,00	2,318	86,373	-7,19555
410,96	300,00	2,316	86,299	3,93791
411,96	300,00	2,316	86,288	20,3479
412,96	300,00	2,316	86,287	30,7506
413,96	300,00	2,315	86,239	38,2109
414,96	300,00	2,315	86,244	37,3085
415,96	300,00	2,314	86,220	31,8402
416,96	300,00	2,313	86,187	23,5552
417,96	300,00	2,313	86,161	18,6001
418,96	300,00	2,313	86,169	17,0947
419,96	300,00	2,312	86,136	11,9887
420,96	300,00	2,311	86,115	7,58198
421,96	300,00	2,311	86,091	-10,6467
422,96	300,00	2,310	86,071	-21,0600
423,96	300,00	2,310	86,052	-26,7860
424,96	300,00	2,309	86,027	-29,9231
425,96	300,00	2,309	86,011	-28,2404
426,96	300,00	2,308	85,996	-33,7290
427,96	300,00	2,308	85,976	-32,9540
428,96	300,00	2,307	85,942	-22,7712
429,96	300,00	2,306	85,919	-5,31717
430,96	300,00	2,306	85,898	15,4920
431,96	300,00	2,305	85,889	8,99686
432,96	300,00	2,304	85,852	0,533245
433,96	300,00	2,303	85,814	-2,86929
434,96	300,00	2,303	85,819	2,48421
435,96	300,00	2,302	85,775	16,3355
436,96	300,00	2,302	85,770	26,2859
437,96	300,00	2,302	85,764	55,4964
438,96	300,00	2,301	85,722	52,6935
439,96	300,00	2,300	85,703	42,8034
440,96	300,00	2,300	85,685	37,5131
441,96	300,00	2,300	85,676	34,2879
442,96	300,00	2,300	85,683	38,9867
443,96	300,00	2,298	85,622	38,8792
444,96	300,00	2,297	85,597	36,6358
445,96	300,00	2,297	85,574	14,1106
446,96	300,00	2,296	85,552	-10,5695
447,96	300,00	2,296	85,529	-16,3322
448,96	300,00	2,295	85,513	-13,1764
449,96	300,00	2,294	85,488	-5,67002
450,96	300,00	2,293	85,450	3,21782
451,96	300,00	2,293	85,428	-1,14416
452,96	300,00	2,293	85,427	7,72099
453,96	300,00	2,292	85,401	-1,62841
454,96	300,00	2,292	85,378	-0,743680
455,96	300,00	2,291	85,373	-6,80058
456,96	300,00	2,291	85,350	-17,3433
457,96	300,00	2,290	85,316	-28,3564
458,96	300,00	2,289	85,293	-29,0406
459,96	300,00	2,289	85,273	-20,9342
460,96	300,00	2,288	85,239	-9,21660
461,96	300,00	2,288	85,228	-9,52232
462,96	300,00	2,287	85,211	-12,3931
463,96	300,00	2,287	85,190	-17,5058
464,96	300,00	2,286	85,161	-18,8412
465,96	300,00	2,285	85,152	-9,98335
466,96	300,00	2,284	85,115	7,99235
467,96	300,00	2,284	85,110	16,7150
468,96	300,00	2,283	85,077	7,63097
469,96	300,00	2,283	85,054	4,99464
470,96	300,00	2,283	85,042	-1,04394
471,96	300,00	2,282	85,017	1,20636
472,96	300,00	2,281	84,988	-2,86094
473,96	300,00	2,281	84,976	-2,23793
474,96	300,00	2,280	84,962	-11,3190
475,96	300,00	2,280	84,936	-8,35457
476,96	300,00	2,279	84,918	-7,84389
477,96	300,00	2,279	84,892	5,14542
478,96	300,00	2,278	84,868	10,6080
479,96	300,00	2,278	84,858	23,5023
480,96	300,00	2,277	84,832	34,4000
481,96	300,00	2,276	84,816	37,0740
482,96	300,00	2,276	84,804	37,4750
483,96	300,00	2,275	84,749	33,8638
484,96	300,00	2,274	84,732	27,0268
485,96	300,00	2,274	84,708	17,1577
486,96	300,00	2,273	84,692	2,52311
487,96	300,00	2,273	84,689	-9,24327
488,96	300,00	2,272	84,659	-17,3505
489,96	300,00	2,272	84,641	-13,0567
490,96	300,00	2,271	84,623	-1,02062
491,96	300,00	2,271	84,601	-7,65188
492,96	300,00	2,270	84,584	-21,1991
493,96	300,00	2,270	84,557	-32,1758
494,96	300,00	2,269	84,546	-32,3709
495,96	300,00	2,269	84,525	-23,6733
496,96	300,00	2,268	84,503	-7,81329
497,96	300,00	2,267	84,475	3,20798
498,96	300,00	2,267	84,462	8,41712
499,96	300,00	2,266	84,443	13,5655
500,96	300,00	2,266	84,420	9,00585
501,96	300,00	2,265	84,397	-0,263696
502,96	300,00	2,265	84,376	-8,84341
503,96	300,00	2,264	84,362	-9,21908
504,96	300,00	2,264	84,335	-10,6431
505,96	300,00	2,263	84,312	-3,61050
506,96	300,00	2,263	84,298	8,81316
507,96	300,00	2,262	84,276	22,3502
508,96	300,00	2,261	84,253	15,7295
509,96	300,00	2,260	84,214	0,901275
510,96	300,00	2,261	84,235	-22,6599
511,96	300,00	2,260	84,199	-32,1240
512,96	300,00	2,259	84,183	-27,9782
513,96	300,00	2,259	84,161	-19,5935
514,96	300,00	2,258	84,129	-14,6564
515,96	300,00	2,257	84,105	-9,50252
516,96	300,00	2,257	84,099	-4,29194
517,96	300,00	2,257	84,074	-6,67924
518,96	300,00	2,256	84,057	-23,0138
519,96	300,00	2,255	84,027	-20,3037
520,96	300,00	2,255	84,020	-2,68613
521,96	300,00	2,255	83,999	8,61090
522,96	300,00	2,254	83,979	15,2122
523,96	300,00	2,253	83,958	28,2226
524,96	300,00	2,254	83,971	27,8586
525,96	300,00	2,253	83,938	30,2379
526,96	300,00	2,252	83,902	33,2820
527,96	300,00	2,251	83,886	35,9631
528,96	300,00	2,251	83,852	39,5789
529,96	300,00	2,251	83,853	38,1647
530,96	300,00	2,249	83,804	36,3472
531,96	300,00	2,249	83,788	40,1336
532,96	300,00	2,248	83,773	43,3775
533,96	300,00	2,248	83,752	40,2507
534,96	300,00	2,248	83,746	36,4116
535,96	300,00	2,247	83,723	31,9483
536,96	300,00	2,246	83,696	37,6018
537,96	300,00	2,246	83,683	31,8217
538,96	300,00	2,245	83,637	23,1753
539,96	300,00	2,244	83,618	-4,66151
540,96	300,00	2,244	83,607	-33,4750
541,96	300,00	2,244	83,593	-44,2287
542,96	300,00	2,243	83,578	-45,3893
543,96	300,00	2,243	83,552	-46,7097
544,96	300,00	2,242	83,532	-48,7513
545,96	300,00	2,242	83,514	-51,0982
546,96	300,00	2,241	83,490	-53,8515
547,96	300,00	2,240	83,472	-44,0102
548,96	300,00	2,238	83,398	-42,2502
549,96	300,00	2,239	83,412	-39,0014
550,96	300,00	2,239	83,420	-25,8543
551,96	300,00	2,238	83,386	-11,5480
552,96	300,00	2,238	83,366	2,74688
553,96	300,00	2,237	83,350	12,5377
554,96	300,00	2,237	83,337	22,6911
555,96	300,00	2,236	83,303	36,1093
556,96	300,00	2,235	83,285	41,8354
557,96	300,00	2,235	83,282	46,1403
558,96	300,00	2,235	83,254	47,4926
559,96	300,00	2,234	83,235	47,7807
560,96	300,00	2,233	83,205	49,1586
561,96	300,00	2,233	83,178	44,2161
562,96	300,00	2,232	83,169	43,3163
563,96	300,00	2,232	83,152	41,9983
564,96	300,00	2,231	83,141	44,0325
565,96	300,00	2,231	83,105	29,6107
566,96	300,00	2,230	83,091	25,2523
567,96	300,00	2,230	83,072	23,3348
568,96	300,00	2,229	83,053	10,3116
569,96	300,00	2,228	83,026	4,65267
570,96	300,00	2,228	83,022	-17,2640
571,96	300,00	2,228	82,994	-45,2083
572,96	300,00	2,227	82,968	-49,6057
573,96	300,00	2,227	82,976	-52,1818
574,96	300,00	2,226	82,936	-47,9563
575,96	300,00	2,225	82,909	-28,2009
576,96	300,00	2,225	82,900	-14,9989
577,96	300,00	2,224	82,878	-0,894052
578,96	300,00	2,224	82,852	-10,8740
579,96	300,00	2,223	82,829	-7,32660
580,96	300,00	2,223	82,824	-15,0385
581,96	300,00	2,222	82,774	-27,1736
582,96	300,00	2,222	82,770	-42,9096
583,96	300,00	2,221	82,752	-44,7778
584,96	300,00	2,220	82,726	-47,0917
585,96	300,00	2,220	82,714	-48,3462
586,96	300,00	2,219	82,691	-40,5514
587,96	300,00	2,219	82,663	-40,5385
588,96	300,00	2,218	82,645	-30,8229
589,96	300,00	2,218	82,633	-18,6738
590,96	300,00	2,217	82,607	-7,58018
591,96	300,00	2,217	82,592	9,12828
592,96	300,00	2,216	82,574	25,3447
593,96	300,00	2,216	82,549	48,7171
594,96	300,00	2,215	82,522	54,3373
595,96	300,00	2,215	82,511	46,9471
596,96	300,00	2,214	82,481	42,4014
597,96	300,00	2,213	82,464	31,7246
598,96	300,00	2,214	82,471	33,3345
599,96	300,00	2,213	82,433	24,6699
600,96	300,00	2,212	82,411	14,8124
601,96	300,00	2,212	82,400	-2,24588
602,96	300,00	2,211	82,371	-6,56127
603,96	300,00	2,210	82,352	-16,9549
604,96	300,00	2,210	82,326	-13,4035
605,96	300,00	2,209	82,311	4,05871
606,96	300,00	2,209	82,306	14,2721
607,96	300,00	2,209	82,289	31,4078
608,96	300,00	2,208	82,266	39,3352
609,96	300,00	2,207	82,236	33,4653
610,96	300,00	2,207	82,221	48,0448
611,96	300,00	2,206	82,189	41,1629
612,96	300,00	2,206	82,181	25,2236
613,96	300,00	2,205	82,160	4,03886
614,96	300,00	2,205	82,140	-8,42667
615,96	300,00	2,204	82,117	14,5289
616,96	300,00	2,203	82,093	-1,41361
617,96	300,00	2,203	82,079	-17,0542
618,96	300,00	2,203	82,065	-51,3696
619,96	300,00	2,202	82,039	-51,3964
620,96	300,00	2,201	82,020	-63,4314
621,96	300,00	2,201	82,007	-67,2490
622,96	300,00	2,201	81,997	-63,1983
623,96	300,00	2,200	81,968	-63,9505
624,96	300,00	2,199	81,942	-61,1915
625,96	300,00	2,199	81,919	-48,2748
626,96	300,00	2,198	81,885	-50,8893
627,96	300,00	2,198	81,898	-49,9424
628,96	300,00	2,197	81,854	-50,8240
629,96	300,00	2,197	81,842	-30,3234
630,96	300,00	2,196	81,812	-16,9680
631,96	300,00	2,196	81,808	-10,4837
632,96	300,00	2,195	81,792	8,05866
633,96	300,00	2,195	81,777	29,8923
634,96	300,00	2,194	81,747	39,5292
635,96	300,00	2,194	81,736	40,1325
636,96	300,00	2,193	81,717	47,1424
637,96	300,00	2,193	81,711	39,3048
638,96	300,00	2,192	81,668	23,2520
639,96	300,00	2,192	81,655	9,27563
640,96	300,00	2,191	81,635	-6,79424
641,96	300,00	2,191	81,618	-9,69029
642,96	300,00	2,190	81,595	-10,0092
643,96	300,00	2,190	81,579	-18,6270
644,96	300,00	2,189	81,567	-19,7783
645,96	300,00	2,189	81,552	-11,5120
646,96	300,00	2,188	81,521	12,2885
647,96	300,00	2,188	81,509	19,7944
648,96	300,00	2,187	81,486	24,0129
649,96	300,00	2,187	81,470	30,5263
650,96	300,00	2,186	81,464	30,6742
651,96	300,00	2,186	81,432	21,5557
652,96	300,00	2,185	81,422	17,4549
653,96	300,00	2,184	81,387	14,8972
654,96	300,00	2,185	81,391	6,33277
655,96	300,00	2,184	81,361	-8,74983
656,96	300,00	2,183	81,344	-17,2686
657,96	300,00	2,183	81,335	-30,0765
658,96	300,00	2,182	81,301	-36,9045
659,96	300,00	2,182	81,283	-42,4932
660,96	300,00	2,181	81,265	-43,7824
661,96	300,00	2,181	81,256	-43,5485
662,96	300,00	2,180	81,236	-37,6740
663,96	300,00	2,180	81,220	-31,3952
664,96	300,00	2,179	81,198	-21,4436
665,96	300,00	2,179	81,179	0,0248513
666,96	300,00	2,178	81,162	18,6647
667,96	300,00	2,178	81,140	19,9821
668,96	300,00	2,177	81,125	16,9636
669,96	300,00	2,177	81,100	22,6996
670,96	300,00	2,177	81,107	17,6753
671,96	300,00	2,176	81,083	13,9746
672,96	300,00	2,176	81,058	14,1956
673,96	300,00	2,175	81,042	19,4934
674,96	300,00	2,175	81,021	16,9424
675,96	300,00	2,175	81,018	5,90445
676,96	300,00	2,174	80,981	-5,62760
677,96	300,00	2,173	80,974	-2,92988
678,96	300,00	2,172	80,942	-0,866613
679,96	300,00	2,173	80,944	16,4585
680,96	300,00	2,172	80,922	21,6830
681,96	300,00	2,171	80,893	27,1695
682,96	300,00	2,171	80,892	30,5464
683,96	300,00	2,171	80,883	30,8161
684,96	300,00	2,170	80,854	28,3500
685,96	300,00	2,170	80,848	26,6811
686,96	300,00	2,170	80,835	24,3018
687,96	300,00	2,169	80,813	20,0416
688,96	300,00	2,169	80,797	18,6384
689,96	300,00	2,168	80,781	21,0008
690,96	300,00	2,168	80,769	20,9700
691,96	300,00	2,167	80,742	14,5781
692,96	300,00	2,167	80,733	3,96162
693,96	300,00	2,166	80,718	-8,64592
694,96	300,00	2,166	80,687	-16,3102
695,96	300,00	2,166	80,687	-24,4209
696,96	300,00	2,165	80,671	-25,3004
697,96	300,00	2,165	80,648	-23,9369
698,96	300,00	2,164	80,627	-24,3513
699,96	300,00	2,164	80,616	-32,3392
700,96	300,00	2,163	80,592	-36,5496
701,96	300,00	2,163	80,574	-38,4586
702,96	300,00	2,162	80,541	-40,1890
703,96	300,00	2,162	80,549	-36,2111
704,96	300,00	2,162	80,534	-36,9535
705,96	300,00	2,161	80,506	-31,4761
706,96	300,00	2,161	80,503	-18,1198
707,96	300,00	2,160	80,478	-9,26139
708,96	300,00	2,159	80,451	-6,68016
709,96	300,00	2,160	80,458	-0,884613
710,96	300,00	2,159	80,424	3,62524
711,96	300,00	2,158	80,405	14,2745
712,96	300,00	2,158	80,392	22,2807
713,96	300,00	2,157	80,376	20,2169
714,96	300,00	2,157	80,359	23,2525
715,96	300,00	2,156	80,339	24,0835
716,96	300,00	2,156	80,315	13,4443
717,96	300,00	2,155	80,304	-7,79000
718,96	300,00	2,154	80,267	-31,2924
719,96	300,00	2,155	80,279	-41,6375
720,96	300,00	2,154	80,263	-41,1744
721,96	300,00	2,154	80,237	-52,1525
722,96	300,00	2,153	80,227	-45,3285
723,96	300,00	2,153	80,212	-24,1938
724,96	300,00	2,152	80,175	-0,188689
725,96	300,00	2,152	80,181	5,70336
726,96	300,00	2,151	80,153	3,18277
727,96	300,00	2,151	80,140	15,6428
728,96	300,00	2,151	80,123	27,0419
729,96	300,00	2,150	80,095	29,8359
730,96	300,00	2,150	80,109	21,3263
731,96	300,00	2,149	80,081	27,4762
732,96	300,00	2,149	80,065	25,1825
733,96	300,00	2,149	80,056	7,88494
734,96	300,00	2,149	80,052	-2,01118
735,96	300,00	2,148	80,020	6,20933
736,96	300,00	2,147	80,006	6,04776
737,96	300,00	2,147	79,988	4,46701
738,96	300,00	2,146	79,971	9,50912
739,96	300,00	2,146	79,961	13,6733
740,96	300,00	2,146	79,943	16,0094
741,96	300,00	2,145	79,920	16,8330
742,96	300,00	2,145	79,925	14,9328
743,96	300,00	2,144	79,885	13,5309
744,96	300,00	2,144	79,890	16,3834
745,96	300,00	2,144	79,863	14,8427
746,96	300,00	2,143	79,854	11,1507
747,96	300,00	2,143	79,829	5,77856
748,96	300,00	2,142	79,823	0,651902
749,96	300,00	2,142	79,805	-8,71702
750,96	300,00	2,141	79,758	-23,6147
751,96	300,00	2,141	79,769	-33,3772
752,96	300,00	2,140	79,734	-32,9956
753,96	300,00	2,141	79,753	-34,2957
754,96	300,00	2,140	79,724	-34,0823
755,96	300,00	2,139	79,704	-34,6276
756,96	300,00	2,139	79,683	-30,7494
757,96	300,00	2,139	79,676	-17,6302
758,96	300,00	2,138	79,648	-10,2461
759,96	300,00	2,137	79,630	-7,08693
760,96	300,00	2,137	79,614	2,13855
761,96	300,00	2,137	79,603	-2,15760
762,96	300,00	2,136	79,581	-5,47710
763,96	300,00	2,136	79,570	2,59492
764,96	300,00	2,135	79,555	17,8699
765,96	300,00	2,135	79,539	19,0999
766,96	300,00	2,134	79,516	14,7248
767,96	300,00	2,133	79,486	14,1919
768,96	300,00	2,133	79,478	9,04971
769,96	300,00	2,133	79,468	-3,82622
770,96	300,00	2,132	79,441	-13,8262
771,96	300,00	2,132	79,442	-13,6788
772,96	300,00	2,132	79,415	-4,49604
773,96	300,00	2,132	79,430	11,2227
774,96	300,00	2,131	79,414	22,4645
775,96	300,00	2,131	79,407	27,9068
776,96	300,00	2,130	79,358	29,0740
777,96	300,00	2,129	79,335	28,9594
778,96	300,00	2,129	79,314	28,4219
779,96	300,00	2,129	79,310	26,9933
780,96	300,00	2,128	79,295	27,5687
781,96	300,00	2,127	79,263	32,5399
782,96	300,00	2,127	79,253	32,6562
783,96	300,00	2,127	79,247	29,1778
784,96	300,00	2,126	79,225	21,4067
785,96	300,00	2,126	79,213	8,30907
786,96	300,00	2,126	79,200	-9,19639
787,96	300,00	2,125	79,180	-30,5541
788,96	300,00	2,125	79,169	-42,9001
789,96	300,00	2,124	79,148	-46,3354
790,96	300,00	2,124	79,130	-45,7425
791,96	300,00	2,123	79,116	-44,0943
792,96	300,00	2,123	79,099	-45,1040
793,96	300,00	2,122	79,078	-46,2935
794,96	300,00	2,122	79,062	-41,5109
795,96	300,00	2,122	79,047	-30,6735
796,96	300,00	2,121	79,021	-29,7656
797,96	300,00	2,121	79,034	-29,2782
798,96	300,00	2,121	79,018	-30,7144
799,96	300,00	2,120	78,986	-26,8282
800,96	300,00	2,119	78,941	-17,1279
801,96	300,00	2,119	78,939	0,861228
802,96	300,00	2,118	78,926	8,00704
803,96	300,00	2,118	78,909	15,9603
804,96	300,00	2,117	78,890	20,5581
805,96	300,00	2,117	78,880	24,1379
806,96	300,00	2,117	78,878	24,4755
807,96	300,00	2,116	78,849	21,7306
808,96	300,00	2,116	78,833	22,3118
809,96	300,00	2,115	78,807	21,9643
810,96	300,00	2,115	78,797	20,6025
811,96	300,00	2,114	78,776	23,0965
812,96	300,00	2,114	78,759	26,6377
813,96	300,00	2,113	78,744	24,4046
814,96	300,00	2,113	78,731	17,0463
815,96	300,00	2,113	78,718	-1,58473
816,96	300,00	2,112	78,704	-24,8972
817,96	300,00	2,112	78,677	-43,2545
818,96	300,00	2,111	78,658	-38,7291
819,96	300,00	2,111	78,644	-15,3099
820,96	300,00	2,111	78,637	1,42267
821,96	300,00	2,110	78,612	14,4949
822,96	300,00	2,110	78,597	29,0677
823,96	300,00	2,109	78,587	30,0054
824,96	300,00	2,109	78,570	9,26988
825,96	300,00	2,109	78,560	-1,14893
826,96	300,00	2,108	78,532	-7,39683
827,96	300,00	2,108	78,530	-15,6504
828,96	300,00	2,107	78,488	-19,8541
829,96	300,00	2,107	78,488	-22,3900
830,96	300,00	2,106	78,462	-24,3678
831,96	300,00	2,106	78,447	-28,3363
832,96	300,00	2,105	78,431	-30,3422
833,96	300,00	2,105	78,420	-32,6787
834,96	300,00	2,104	78,396	-34,9964
835,96	300,00	2,104	78,376	-34,0178
836,96	300,00	2,103	78,362	-32,3427
837,96	300,00	2,103	78,346	-28,9119
838,96	300,00	2,102	78,327	-19,0637
839,96	300,00	2,102	78,314	9,62963
840,96	300,00	2,101	78,297	29,6049
841,96	300,00	2,101	78,283	28,7036
842,96	300,00	2,101	78,264	44,3246
843,96	300,00	2,100	78,247	46,4254
844,96	300,00	2,100	78,226	46,5546
845,96	300,00	2,099	78,215	50,1720
846,96	300,00	2,099	78,189	50,1033
847,96	300,00	2,099	78,189	49,6597
848,96	300,00	2,098	78,153	45,4702
849,96	300,00	2,098	78,153	23,5168
850,96	300,00	2,097	78,139	0,347133
851,96	300,00	2,096	78,105	-3,38874
852,96	300,00	2,096	78,097	-15,3773
853,96	300,00	2,096	78,085	-16,8643
854,96	300,00	2,096	78,081	-8,19357
855,96	300,00	2,095	78,056	-2,03177
856,96	300,00	2,095	78,037	1,98817
857,96	300,00	2,094	78,029	1,71952
858,96	300,00	2,094	78,014	4,91542
859,96	300,00	2,093	77,992	-1,05203
860,96	300,00	2,093	77,984	-0,983603
861,96	300,00	2,093	77,969	8,96022
862,96	300,00	2,092	77,946	11,6332
863,96	300,00	2,092	77,934	17,6022
864,96	300,00	2,091	77,916	16,8186
865,96	300,00	2,091	77,902	15,2352
866,96	300,00	2,091	77,889	-1,61827
867,96	300,00	2,090	77,871	-16,1818
868,96	300,00	2,090	77,855	-24,8689
869,96	300,00	2,089	77,849	-25,6488
870,96	300,00	2,089	77,838	-17,8261
871,96	300,00	2,088	77,796	-18,0693
872,96	300,00	2,088	77,796	-20,2790
873,96	300,00	2,087	77,761	-15,7256
874,96	300,00	2,087	77,768	-13,4527
875,96	300,00	2,087	77,751	-12,2335
876,96	300,00	2,086	77,733	-20,4806
877,96	300,00	2,086	77,725	-20,7497
878,96	300,00	2,086	77,702	-10,3422
879,96	300,00	2,085	77,697	-2,43596
880,96	300,00	2,085	77,691	9,57113
881,96	300,00	2,084	77,662	16,3990
882,96	300,00	2,084	77,644	23,2774
883,96	300,00	2,083	77,624	22,1452
884,96	300,00	2,083	77,612	20,4193
885,96	300,00	2,083	77,597	22,7491
886,96	300,00	2,082	77,574	31,8937
887,96	300,00	2,082	77,570	35,1851
888,96	300,00	2,081	77,544	30,9014
889,96	300,00	2,081	77,519	26,4134
890,96	300,00	2,081	77,534	30,4843
891,96	300,00	2,080	77,505	26,1469
892,96	300,00	2,080	77,494	21,3866
893,96	300,00	2,080	77,493	10,1823
894,96	300,00	2,079	77,463	-18,4608
895,96	300,00	2,079	77,458	-21,0885
896,96	300,00	2,078	77,431	-20,6619
897,96	300,00	2,078	77,428	-9,11571
898,96	300,00	2,077	77,396	-0,570632
899,96	300,00	2,077	77,380	5,97312
900,96	300,00	2,077	77,371	-10,7816
901,96	300,00	2,076	77,345	-22,0579
902,96	300,00	2,076	77,338	-23,7335
903,96	300,00	2,075	77,311	-10,1672
904,96	300,00	2,075	77,306	-2,29584
905,96	300,00	2,075	77,293	2,35246
906,96	300,00	2,074	77,272	9,81130
907,96	300,00	2,074	77,256	8,28661
908,96	300,00	2,073	77,237	3,10628
909,96	300,00	2,073	77,225	1,03595
910,96	300,00	2,072	77,213	-0,371797
911,96	300,00	2,072	77,196	-6,92731
912,96	300,00	2,072	77,183	-9,89682
913,96	300,00	2,071	77,167	-12,8551
914,96	300,00	2,071	77,144	-13,3884
915,96	300,00	2,070	77,131	-10,6962
916,96	300,00	2,070	77,112	-7,32203
917,96	300,00	2,069	77,092	-7,20901
918,96	300,00	2,069	77,091	-8,94867
919,96	300,00	2,068	77,061	-10,4343
920,96	300,00	2,068	77,061	-9,17533
921,96	300,00	2,068	77,035	-9,98221
922,96	300,00	2,067	77,013	-7,24432
923,96	300,00	2,067	77,007	-2,74703
924,96	300,00	2,066	76,987	-5,36874
925,96	300,00	2,066	76,968	-12,1517
926,96	300,00	2,066	76,957	-14,4142
927,96	300,00	2,065	76,937	-7,84295
928,96	300,00	2,065	76,920	-3,32979
929,96	300,00	2,064	76,914	-5,61866
930,96	300,00	2,064	76,893	-7,00160
931,96	300,00	2,063	76,879	-8,11497
932,96	300,00	2,063	76,856	-2,08736
933,96	300,00	2,063	76,846	3,85949
934,96	300,00	2,062	76,827	-0,238823
935,96	300,00	2,062	76,815	9,17155
936,96	300,00	2,061	76,793	18,0726
937,96	300,00	2,061	76,789	12,3403
938,96	300,00	2,060	76,760	7,38145
939,96	300,00	2,060	76,747	14,6845
940,96	300,00	2,060	76,738	14,9289
941,96	300,00	2,059	76,719	9,41771
942,96	300,00	2,059	76,698	9,75093
943,96	300,00	2,058	76,681	10,6621
944,96	300,00	2,058	76,688	13,0789
945,96	300,00	2,057	76,649	15,3315
946,96	300,00	2,057	76,643	19,2191
947,96	300,00	2,057	76,621	22,1926
948,96	300,00	2,057	76,621	24,4573
949,96	300,00	2,056	76,597	32,1926
950,96	300,00	2,056	76,588	32,7027
951,96	300,00	2,056	76,585	24,3010
952,96	300,00	2,055	76,549	11,3019
953,96	300,00	2,054	76,535	3,97760
954,96	300,00	2,054	76,529	-6,99703
955,96	300,00	2,054	76,509	-6,98921
956,96	300,00	2,053	76,491	12,8328
957,96	300,00	2,053	76,485	10,4068
958,96	300,00	2,052	76,471	6,02098
959,96	300,00	2,052	76,458	10,7867
960,96	300,00	2,051	76,424	18,4570
961,96	300,00	2,052	76,441	5,97904
962,96	300,00	2,052	76,450	8,02022
963,96	300,00	2,051	76,430	16,5359
964,96	300,00	2,050	76,377	7,40587
965,96	300,00	2,049	76,348	-11,6016
966,96	300,00	2,049	76,344	-16,6620
967,96	300,00	2,049	76,330	-22,2836
968,96	300,00	2,048	76,317	-36,0064
969,96	300,00	2,048	76,301	-43,5634
970,96	300,00	2,048	76,286	-41,4756
971,96	300,00	2,047	76,275	-41,7577
972,96	300,00	2,046	76,235	-29,9918
973,96	300,00	2,046	76,219	-23,9179
974,96	300,00	2,046	76,215	-17,6210
975,96	300,00	2,045	76,199	-7,91964
976,96	300,00	2,045	76,191	-5,31040
977,96	300,00	2,044	76,154	4,06021
978,96	300,00	2,044	76,155	5,99161
979,96	300,00	2,044	76,145	12,4396
980,96	300,00	2,043	76,124	12,8776
981,96	300,00	2,043	76,107	10,0403
982,96	300,00	2,042	76,094	3,48987
983,96	300,00	2,042	76,071	0,659438
984,96	300,00	2,041	76,060	1,84514
985,96	300,00	2,041	76,048	-0,109200
986,96	300,00	2,041	76,041	-5,46712
987,96	300,00	2,040	76,011	-16,8332
988,96	300,00	2,040	75,996	-9,15520
989,96	300,00	2,039	75,980	4,14806
990,96	300,00	2,039	75,975	10,3909
991,96	300,00	2,039	75,954	18,1687
992,96	300,00	2,038	75,930	25,8410
993,96	300,00	2,038	75,940	29,2231
994,96	300,00	2,037	75,910	36,0697
995,96	300,00	2,039	75,951	37,3382
996,96	300,00	2,036	75,870	37,1038
997,96	300,00	2,036	75,866	35,0413
998,96	300,00	2,036	75,863	36,1319
999,96	300,00	2,035	75,833	37,7054
1000,96	300,00	2,035	75,830	15,3096
1001,96	300,00	2,036	75,839	-7,42147
1002,96	300,00	2,035	75,805	-14,1484
1003,96	300,00	2,034	75,775	-22,7704
1004,96	300,00	2,033	75,760	-29,6669
1005,96	300,00	2,033	75,745	-32,5386
1006,96	300,00	2,033	75,733	-35,3194
1007,96	300,00	2,032	75,720	-35,7274
1008,96	300,00	2,032	75,704	-39,5045
1009,96	300,00	2,031	75,685	-37,2847
1010,96	300,00	2,031	75,667	-26,9934
1011,96	300,00	2,031	75,679	-21,7170
1012,96	300,00	2,031	75,667	-20,8055
1013,96	300,00	2,030	75,620	-23,5607
1014,96	300,00	2,029	75,606	-23,5984
1015,96	300,00	2,029	75,593	-24,3141
1016,96	300,00	2,029	75,593	-19,0637
1017,96	300,00	2,028	75,555	-25,0384
1018,96	300,00	2,027	75,515	-35,9986
1019,96	300,00	2,027	75,533	-34,9163
1020,96	300,00	2,026	75,483	-30,6157
1021,96	300,00	2,026	75,490	-16,2019
1022,96	300,00	2,026	75,482	-8,62546
1023,96	300,00	2,025	75,465	-5,87709
1024,96	300,00	2,025	75,454	2,92463
1025,96	300,00	2,024	75,428	4,81043
1026,96	300,00	2,024	75,409	8,62208
1027,96	300,00	2,024	75,400	28,9001
1028,96	300,00	2,023	75,386	29,4946
1029,96	300,00	2,023	75,369	24,1318
1030,96	300,00	2,023	75,356	25,6136
1031,96	300,00	2,022	75,345	27,7314
1032,96	300,00	2,022	75,325	26,0240
1033,96	300,00	2,021	75,313	24,7609
1034,96	300,00	2,021	75,304	13,1067
1035,96	300,00	2,021	75,291	2,21495
1036,96	300,00	2,020	75,253	4,59782
1037,96	300,00	2,019	75,241	9,87456
1038,96	300,00	2,019	75,236	11,6635
1039,96	300,00	2,020	75,269	9,64922
1040,96	300,00	2,017	75,148	8,08717
1041,96	300,00	2,017	75,150	1,48968
1042,96	300,00	2,018	75,181	-9,22538
1043,96	300,00	2,017	75,155	-11,9802
1044,96	300,00	2,017	75,147	-7,40963
1045,96	300,00	2,017	75,143	-9,10325
1046,96	300,00	2,015	75,091	-4,39004
1047,96	300,00	2,016	75,110	7,38923
1048,96	300,00	2,016	75,095	11,8255
1049,96	300,00	2,015	75,063	13,4096
1050,96	300,00	2,015	75,065	13,2085
1051,96	300,00	2,014	75,050	5,69590
1052,96	300,00	2,014	75,034	-0,576434
1053,96	300,00	2,013	75,014	2,94228
1054,96	300,00	2,013	75,003	4,89546
1055,96	300,00	2,013	74,987	7,26155
1056,96	300,00	2,012	74,974	9,02037
1057,96	300,00	2,012	74,964	2,44095
1058,96	300,00	2,011	74,943	-15,3143
1059,96	300,00	2,011	74,917	-33,0146
1060,96	300,00	2,010	74,906	-32,0939
1061,96	300,00	2,010	74,897	-33,2467
1062,96	300,00	2,010	74,882	-34,2051
1063,96	300,00	2,009	74,868	-28,1104
1064,96	300,00	2,009	74,834	-15,9410
1065,96	300,00	2,008	74,826	-9,41866
1066,96	300,00	2,008	74,803	1,78473
1067,96	300,00	2,007	74,784	8,95966
1068,96	300,00	2,009	74,834	9,52357
1069,96	300,00	2,006	74,738	10,6936
1070,96	300,00	2,006	74,752	6,50579
1071,96	300,00	2,006	74,742	6,18510
1072,96	300,00	2,005	74,719	13,3652
1073,96	300,00	2,005	74,696	18,5978
1074,96	300,00	2,005	74,691	13,0446
1075,96	300,00	2,004	74,667	3,28067
1076,96	300,00	2,004	74,663	-0,437132
1077,96	300,00	2,003	74,643	-6,53846
1078,96	300,00	2,003	74,632	-27,8765
1079,96	300,00	2,003	74,618	-39,0001
1080,96	300,00	2,002	74,606	-29,4270
1081,96	300,00	2,002	74,588	-27,6354
1082,96	300,00	2,002	74,574	-27,7246
1083,96	300,00	2,001	74,552	-21,1072
1084,96	300,00	2,001	74,536	-8,86949
1085,96	300,00	2,000	74,523	-5,58483
1086,96	300,00	2,000	74,516	-9,87663
1087,96	300,00	2,000	74,505	-11,8221
1088,96	300,00	1,999	74,481	-8,08108
1089,96	300,00	1,999	74,472	11,7799
1090,96	300,00	1,998	74,438	32,2440
1091,96	300,00	1,998	74,442	33,2781
1092,96	300,00	1,997	74,408	34,3773
1093,96	300,00	1,997	74,397	32,2988
1094,96	300,00	1,996	74,371	23,4607
1095,96	300,00	1,996	74,378	14,0424
1096,96	300,00	1,996	74,355	16,9263
1097,96	300,00	1,996	74,351	19,6041
1098,96	300,00	1,995	74,332	19,3332
1099,96	300,00	1,995	74,325	19,8473
1100,96	300,00	1,994	74,310	18,8719
1101,96	300,00	1,994	74,300	13,8058
1102,96	300,00	1,994	74,285	2,19991
1103,96	300,00	1,993	74,267	-10,2967
1104,96	300,00	1,993	74,252	-18,0780
1105,96	300,00	1,993	74,244	-12,7332
1106,96	300,00	1,992	74,231	-5,46955
1107,96	300,00	1,992	74,216	1,83361
1108,96	300,00	1,992	74,201	12,8675
1109,96	300,00	1,991	74,194	23,7986
1110,96	300,00	1,991	74,170	25,7160
1111,96	300,00	1,990	74,158	24,0452
1112,96	300,00	1,990	74,145	24,4241
1113,96	300,00	1,990	74,131	26,4340
1114,96	300,00	1,989	74,114	25,2168
1115,96	300,00	1,988	74,068	19,3420
1116,96	300,00	1,988	74,077	6,97732
1117,96	300,00	1,988	74,067	-3,92898
1118,96	300,00	1,988	74,068	-12,0245
1119,96	300,00	1,988	74,053	-18,0632
1120,96	300,00	1,987	74,032	-24,3672
1121,96	300,00	1,986	74,008	-25,3388
1122,96	300,00	1,986	73,993	-23,9390
1123,96	300,00	1,986	73,978	-23,2279
1124,96	300,00	1,985	73,963	-22,4080
1125,96	300,00	1,985	73,951	-20,4072
1126,96	300,00	1,984	73,933	-17,7524
1127,96	300,00	1,984	73,923	-12,7572
1128,96	300,00	1,984	73,904	-6,29684
1129,96	300,00	1,983	73,883	7,28155
1130,96	300,00	1,983	73,870	30,4015
1131,96	300,00	1,982	73,855	41,8296
1132,96	300,00	1,982	73,850	41,2300
1133,96	300,00	1,982	73,845	36,9301
1134,96	300,00	1,981	73,807	24,6906
1135,96	300,00	1,981	73,794	16,4506
1136,96	300,00	1,980	73,785	6,84279
1137,96	300,00	1,978	73,710	-6,64675
1138,96	300,00	1,978	73,709	-6,07548
1139,96	300,00	1,979	73,749	-0,0961696
1140,96	300,00	1,979	73,748	8,06605
1141,96	300,00	1,977	73,645	3,00859
1142,96	300,00	1,980	73,755	-1,82553
1143,96	300,00	1,978	73,690	-1,84104
1144,96	300,00	1,977	73,662	1,19621
1145,96	300,00	1,977	73,645	-3,15383
1146,96	300,00	1,978	73,688	-4,23662
1147,96	300,00	1,976	73,604	12,9877
1148,96	300,00	1,975	73,581	20,1781
1149,96	300,00	1,975	73,588	14,2633
1150,96	300,00	1,975	73,579	8,74432
1151,96	300,00	1,974	73,565	0,676808
1152,96	300,00	1,974	73,543	1,06727
1153,96	300,00	1,974	73,532	-7,72304
1154,96	300,00	1,973	73,523	-11,8832
1155,96	300,00	1,973	73,505	8,99943
1156,96	300,00	1,973	73,496	18,5866
1157,96	300,00	1,972	73,482	25,6341
1158,96	300,00	1,972	73,468	12,3613
1159,96	300,00	1,971	73,443	9,40411
1160,96	300,00	1,971	73,431	12,9050
1161,96	300,00	1,971	73,432	19,7919
1162,96	300,00	1,970	73,416	18,1522
1163,96	300,00	1,970	73,388	9,34945
1164,96	300,00	1,969	73,376	8,63969
1165,96	300,00	1,969	73,343	-2,35962
1166,96	300,00	1,969	73,343	-11,9020
1167,96	300,00	1,968	73,334	-22,7276
1168,96	300,00	1,968	73,315	-25,0303
1169,96	300,00	1,967	73,305	-16,7855
1170,96	300,00	1,967	73,292	-8,87676
1171,96	300,00	1,966	73,266	4,83212
1172,96	300,00	1,966	73,267	19,8700
1173,96	300,00	1,966	73,247	27,0019
1174,96	300,00	1,966	73,238	28,6970
1175,96	300,00	1,965	73,221	24,6233
1176,96	300,00	1,965	73,210	23,7030
1177,96	300,00	1,965	73,195	24,6369
1178,96	300,00	1,964	73,187	21,6817
1179,96	300,00	1,964	73,170	17,8217
1180,96	300,00	1,964	73,162	12,5899
1181,96	300,00	1,963	73,135	13,4314
1182,96	300,00	1,963	73,135	-1,87692
1183,96	300,00	1,962	73,110	-18,4187
1184,96	300,00	1,962	73,095	-34,3676
1185,96	300,00	1,962	73,082	-45,3568
1186,96	300,00	1,961	73,060	-44,8067
1187,96	300,00	1,961	73,055	-45,4934
1188,96	300,00	1,960	73,044	-42,5912
1189,96	300,00	1,960	73,020	-33,1534
1190,96	300,00	1,959	72,996	-9,10850
1191,96	300,00	1,959	72,997	4,66582
1192,96	300,00	1,958	72,966	13,1294
1193,96	300,00	1,958	72,957	17,2433
1194,96	300,00	1,958	72,952	19,2017
1195,96	300,00	1,958	72,932	19,8132
1196,96	300,00	1,957	72,914	22,7135
1197,96	300,00	1,957	72,902	25,8090
1198,96	300,00	1,956	72,890	25,5153
1199,96	300,00	1,956	72,881	2,35070
1200,96	300,00	1,956	72,867	3,48598
1201,96	300,00	1,955	72,847	7,67312
1202,96	300,00	1,955	72,834	3,32568
1203,96	300,00	1,955	72,823	-4,34757
1204,96	300,00	1,954	72,810	-5,34399
1205,96	300,00	1,954	72,804	-3,68346
1206,96	300,00	1,953	72,769	-3,62735
1207,96	300,00	1,953	72,758	-3,31357
1208,96	300,00	1,953	72,763	0,291850
1209,96	300,00	1,952	72,741	5,12785
1210,96	300,00	1,952	72,740	6,46151
1211,96	300,00	1,952	72,713	8,44255
1212,96	300,00	1,951	72,703	13,1152
1213,96	300,00	1,951	72,692	13,7450
1214,96	300,00	1,950	72,645	14,0835
1215,96	300,00	1,949	72,623	11,3230
1216,96	300,00	1,950	72,653	5,13769
1217,96	300,00	1,949	72,621	9,54078
1218,96	300,00	1,949	72,608	22,0086
1219,96	300,00	1,948	72,590	16,6081
1220,96	299,99	1,948	72,585	9,31235
1221,96	300,00	1,947	72,558	9,67074
1222,96	300,00	1,947	72,541	6,81281
1223,96	300,00	1,947	72,532	-6,68795
1224,96	300,00	1,946	72,521	-28,0722
1225,96	300,00	1,946	72,507	-33,3417
1226,96	300,00	1,946	72,489	-32,9643
1227,96	300,00	1,945	72,464	-31,0906
1228,96	300,00	1,945	72,454	-30,7405
1229,96	300,00	1,944	72,419	-34,0601
1230,96	300,00	1,944	72,420	-34,5694
1231,96	300,00	1,943	72,401	-26,7385
1232,96	300,00	1,943	72,384	-25,7403
1233,96	300,00	1,943	72,381	-23,0751
1234,96	300,00	1,942	72,350	-12,2223
1235,96	300,00	1,942	72,345	-1,75112
1236,96	300,00	1,941	72,335	2,78411
1237,96	300,00	1,941	72,320	9,50015
1238,96	300,00	1,940	72,286	12,9279
1239,96	300,00	1,940	72,285	12,1949
1240,96	300,00	1,939	72,258	6,71480
1241,96	300,00	1,939	72,248	1,58481
1242,96	300,00	1,939	72,232	0,588356
1243,96	300,00	1,938	72,221	-3,63472
1244,96	300,00	1,938	72,213	-8,79920
1245,96	300,00	1,937	72,173	-10,3219
1246,96	300,00	1,937	72,176	-13,1886
1247,96	300,00	1,937	72,153	-12,0883
1248,96	300,00	1,936	72,138	0,334003
1249,96	300,00	1,936	72,123	4,99286
1250,96	300,00	1,935	72,111	10,7955
1251,96	300,00	1,935	72,103	21,8467
1252,96	300,00	1,935	72,085	28,3823
1253,96	300,00	1,934	72,073	31,0652
1254,96	300,00	1,934	72,047	31,1762
1255,96	300,00	1,933	72,030	29,6472
1256,96	300,00	1,933	72,027	-0,218841
1257,96	300,00	1,933	72,012	-0,0216085
1258,96	300,00	1,933	72,003	-9,02891e-3
1259,96	300,00	1,933	72,005	-6,53738e-3
1260,96	300,00	1,932	71,964	-6,46834e-3
1261,96	300,00	1,931	71,943	-7,65889e-3
1262,96	300,00	1,931	71,941	-0,0100461
1263,96	300,00	1,931	71,930	-0,0141772
1264,96	300,11	1,931	71,935	-0,0210495
1265,96	303,63	1,931	71,940	-0,0322328
1266,96	311,43	1,930	71,921	-0,0501438
1267,96	320,43	1,929	71,883	-0,0786312
1268,96	329,68	1,927	71,790	-0,123152
1269,96	339,17	1,923	71,629	-0,189093
1270,96	348,97	1,915	71,350	-0,274685
1271,96	359,01	1,900	70,806	-0,363885
1272,96	369,18	1,873	69,782	-0,441050
1273,96	379,39	1,823	67,903	-0,506008
1274,96	389,57	1,732	64,533	-0,558540
1275,96	399,70	1,573	58,609	-0,595123
1276,96	409,79	1,305	48,630	-0,614566
1277,96	419,84	0,899	33,501	-0,616734
1278,96	429,86	0,423	15,776	-0,601497
1279,96	439,89	0,100	3,735	-0,568667
1280,96	449,90	0,000	-0,010	-0,518518
1281,96	459,91	-0,029	-1,075	-0,452151
1282,96	469,95	-0,042	-1,552	-0,371929
1283,96	479,99	-0,049	-1,837	-0,282108
1284,96	490,03	-0,052	-1,934	-0,189886
1285,96	500,06	-0,052	-1,922	-0,106486
1286,96	510,10	-0,052	-1,951	-0,0458349
1287,96	520,13	-0,053	-1,962	-0,0154972
1288,96	530,15	-0,053	-1,968	-5,67492e-3
1289,96	540,17	-0,052	-1,938	-2,28503e-3
1290,96	550,20	-0,052	-1,943	-6,88456e-4
1291,96	560,23	-0,052	-1,944	5,03254e-5
1292,96	570,25	-0,052	-1,944	3,14070e-4
1293,96	580,27	-0,052	-1,941	4,25222e-4
1294,96	590,30	-0,052	-1,942	5,05851e-4
1295,96	600,31	-0,052	-1,927	6,02038e-4
1296,96	610,33	-0,052	-1,920	7,08766e-4
1297,96	620,35	-0,051	-1,911	8,09114e-4
1298,96	630,37	-0,051	-1,900	9,05563e-4
1299,96	640,39	-0,051	-1,897	9,96409e-4
1300,96	650,41	-0,050	-1,880	1,08354e-3
1301,96	660,43	-0,050	-1,869	1,16349e-3
1302,96	670,45	-0,050	-1,845	1,25041e-3
1303,96	680,46	-0,049	-1,841	1,30428e-3
1304,96	690,48	-0,049	-1,834	1,35388e-3
1305,96	700,49	-0,049	-1,815	1,40697e-3
1306,96	710,51	-0,048	-1,793	1,44445e-3
1307,96	720,52	-0,048	-1,788	1,48236e-3
1308,96	730,54	-0,047	-1,766	1,50386e-3
1309,96	740,55	-0,047	-1,760	1,53006e-3
1310,96	750,57	-0,046	-1,727	1,56645e-3
1311,96	760,57	-0,046	-1,720	1,54790e-3
1312,96	770,59	-0,046	-1,707	1,58380e-3
1313,96	780,60	-0,045	-1,690	1,58847e-3
1314,54	786,44	-0,045	-1,672	1,59948e-3