File: data/TGA/005d-L_M/F4_000002 -temp_104 AMU_XIC
Time	Ion Current
min	mA
0.00	1.91158e-5
0.97	4.15914e-5
1.94	2.20122e-5
2.91	1.00000e-13
3.88	1.00000e-13
4.85	1.00000e-13
5.82	1.00000e-13
6.79	1.00000e-13
7.76	1.00000e-13
8.73	1.00000e-13
9.70	1.00000e-13
10.67	1.00000e-13
11.64	1.00000e-13
12.61	1.00000e-13
13.58	1.00000e-13
14.55	1.00000e-13
15.52	1.00000e-13
16.49	1.00000e-13
17.46	1.00000e-13
18.43	1.00000e-13
19.40	1.00000e-13
20.37	1.00000e-13
21.34	1.00000e-13
22.31	1.00000e-13
23.28	1.00000e-13
24.25	1.00000e-13
25.22	1.00000e-13
26.19	1.00000e-13
27.16	1.00000e-13
28.13	1.00000e-13
29.10	1.00000e-13
30.07	1.00000e-13
31.04	1.00000e-13
32.01	1.00000e-13
32.98	1.00000e-13
33.95	1.00000e-13
34.92	1.00000e-13
35.89	1.00000e-13
36.86	1.00000e-13
37.83	1.00000e-13
38.80	1.00000e-13
39.77	1.00000e-13
40.74	1.00000e-13
41.71	1.00000e-13
42.68	1.00000e-13
43.64	1.00000e-13
44.61	1.00000e-13
45.58	1.00000e-13
46.55	1.00000e-13
47.53	1.00000e-13
48.50	1.00000e-13
49.47	1.00000e-13
50.44	1.00000e-13
51.41	1.00000e-13
52.38	1.00000e-13
53.34	1.00000e-13
54.32	1.00000e-13
55.28	1.00000e-13
56.25	1.00000e-13
57.22	1.00000e-13
58.19	1.00000e-13
59.17	1.00000e-13
60.14	1.00000e-13
61.11	1.00000e-13
62.07	1.00000e-13
63.04	1.00000e-13
64.01	1.00000e-13
64.98	1.00000e-13
65.95	1.00000e-13
66.92	1.00000e-13
67.89	1.00000e-13
68.86	1.00000e-13
69.83	1.00000e-13
70.80	9.61584e-6
71.77	1.00000e-13
72.74	1.00000e-13
73.71	1.00000e-13
74.68	1.00000e-13
75.65	1.00000e-13
76.62	1.00000e-13
77.59	1.00000e-13
78.56	1.00000e-13
79.53	1.87683e-5
80.50	1.00000e-13
81.47	1.00000e-13
82.44	1.00000e-13
83.41	1.00000e-13
84.38	1.00000e-13
85.35	1.00000e-13
86.32	1.00000e-13
87.29	2.01585e-5
88.26	8.92072e-6
89.23	1.00000e-13
90.20	1.00000e-13
91.17	1.00000e-13
92.14	1.88841e-5
93.11	1.00000e-13
94.08	1.00000e-13
95.05	1.00000e-13
96.02	1.00000e-13
96.99	1.00000e-13
97.96	1.00000e-13
98.93	1.00000e-13
99.90	1.00000e-13
100.87	1.00000e-13
101.84	1.00000e-13
102.81	6.95121e-7
103.78	6.95121e-7
104.75	1.00000e-13
105.72	1.00000e-13
106.69	7.53048e-6
107.66	1.00000e-13
108.63	1.28597e-5
109.60	1.00000e-13
110.57	1.00000e-13
111.54	7.18292e-6
112.51	1.18171e-5
113.48	1.00000e-13
114.45	1.00000e-13
115.42	4.40243e-6
116.39	2.54878e-5
117.36	1.00000e-13
118.33	1.00000e-13
119.30	3.82316e-6
120.27	1.00000e-13
121.24	1.00000e-13
122.21	1.00000e-13
123.18	1.00000e-13
124.15	1.00000e-13
125.12	1.15853e-6
126.09	1.00000e-13
127.06	1.00000e-13
128.03	8.22560e-6
129.00	1.00000e-13
129.97	1.00000e-13
130.94	1.00000e-13
131.90	2.62987e-5
132.88	1.00000e-13
133.85	1.00000e-13
134.81	1.00000e-13
135.78	1.00000e-13
136.76	1.00000e-13
137.73	1.00000e-13
138.69	2.32865e-5
139.66	1.00000e-13
140.63	1.00000e-13
141.60	1.00000e-13
142.57	1.00000e-13
143.54	1.00000e-13
144.51	1.00000e-13
145.49	1.00000e-13
146.46	2.43292e-6
147.43	1.00000e-13
148.39	1.00000e-13
149.36	1.62195e-6
150.33	7.41462e-6
151.30	1.00000e-13
152.27	1.00000e-13
153.24	1.01951e-5
154.22	1.00000e-13
155.19	1.00000e-13
156.16	1.00000e-13
157.13	1.00000e-13
158.09	1.00000e-13
159.06	1.00000e-13
160.03	1.00000e-13
161.00	1.00000e-13
161.97	1.79573e-5
162.94	1.00000e-13
163.92	1.00000e-13
164.88	1.00000e-13
165.85	1.00000e-13
166.82	1.00000e-13
167.79	1.00000e-13
168.76	1.00000e-13
169.73	5.79267e-7
170.70	1.00000e-13
171.67	4.86585e-6
172.64	1.00000e-13
173.61	1.00000e-13
174.58	1.00000e-13
175.55	1.43658e-5
176.52	2.07378e-5
177.49	1.00000e-13
178.46	4.66890e-5
179.43	1.00000e-13
180.40	1.00000e-13
181.37	1.00000e-13
182.34	5.13231e-5
183.31	1.00000e-13
184.28	1.00000e-13
185.25	1.00000e-13
186.22	1.00000e-13
187.19	6.83536e-6
188.16	1.00000e-13
189.13	1.00000e-13
190.10	1.00000e-13
191.07	1.00000e-13
192.04	1.93475e-5
193.01	1.00000e-13
193.98	1.00000e-13
194.95	1.00000e-13
195.92	1.00000e-13
196.89	1.00000e-13
197.86	1.00000e-13
198.83	7.41462e-6
199.80	1.00000e-13
200.77	1.00000e-13
201.74	1.00000e-13
202.71	1.00000e-13
203.68	4.34451e-5
204.65	1.00000e-13
205.62	1.00000e-13
206.59	1.00000e-13
207.56	4.51829e-6
208.53	1.00000e-13
209.50	1.00000e-13
210.47	1.00000e-13
211.44	1.00000e-13
212.41	1.00000e-13
213.38	1.00000e-13
214.35	1.00000e-13
215.32	2.31707e-5
216.29	1.00000e-13
217.26	1.80731e-5
218.23	1.00000e-13
219.20	1.00000e-13
220.17	1.00000e-13
221.14	1.00000e-13
222.11	1.00000e-13
223.08	1.00000e-13
224.05	1.00000e-13
225.02	1.00000e-13
225.99	1.00000e-13
226.96	1.00000e-13
227.92	1.00000e-13
228.89	1.00000e-13
229.86	1.00000e-13
230.84	1.00000e-13
231.81	1.00000e-13
232.78	1.00000e-13
233.75	1.00000e-13
234.72	1.00000e-13
235.69	1.00000e-13
236.65	1.00000e-13
237.62	1.00000e-13
238.59	1.00000e-13
239.57	1.00000e-13
240.54	1.00000e-13
241.50	1.00000e-13
242.47	1.00000e-13
243.44	1.00000e-13
244.41	1.00000e-13
245.38	1.00000e-13
246.35	1.00000e-13
247.33	1.00000e-13
248.30	1.00000e-13
249.26	1.00000e-13
250.23	1.00000e-13
251.20	1.00000e-13
252.17	1.00000e-13
253.14	1.00000e-13
254.11	1.00000e-13
255.08	1.00000e-13
256.05	1.00000e-13
257.02	1.00000e-13
257.99	1.00000e-13
258.96	1.00000e-13
259.93	1.00000e-13
260.90	1.00000e-13
261.87	1.00000e-13
262.84	1.61036e-5
263.81	1.00000e-13
264.78	1.00000e-13
265.75	1.00000e-13
266.72	3.24390e-6
267.69	1.00000e-13
268.66	1.00000e-13
269.63	1.00000e-13
270.60	1.00000e-13
271.57	1.00000e-13
272.54	1.00000e-13
273.51	1.04268e-5
274.48	1.00000e-13
275.45	1.00000e-13
276.42	1.00000e-13
277.39	1.00000e-13
278.36	1.00000e-13
279.33	1.00000e-13
280.30	1.00000e-13
281.27	1.00000e-13
282.24	1.00000e-13
283.21	1.00000e-13
284.18	1.00000e-13
285.15	1.00000e-13
286.12	4.86585e-6
287.09	1.00000e-13
288.06	1.00000e-13
289.03	1.00000e-13
290.00	1.00000e-13
290.97	1.00000e-13
291.94	1.00000e-13
292.91	1.42500e-5
293.88	1.00000e-13
294.85	1.00000e-13
295.82	1.00000e-13
296.79	1.00000e-13
297.76	1.00000e-13
298.73	1.00000e-13
299.70	1.00000e-13
300.67	1.00000e-13
301.64	1.00000e-13
302.61	1.00000e-13
303.58	1.00000e-13
304.55	1.00000e-13
305.52	1.76097e-5
306.49	1.00000e-13
307.46	1.00000e-13
308.43	1.00000e-13
309.40	1.00000e-13
310.37	1.00000e-13
311.34	1.00000e-13
312.31	1.00000e-13
313.28	1.00000e-13
314.25	1.00000e-13
315.22	1.00000e-13
316.19	1.00000e-13
317.16	1.00000e-13
318.13	1.00000e-13
319.09	1.00000e-13
320.06	1.00000e-13
321.03	1.00000e-13
322.01	1.00000e-13
322.97	1.04268e-6
323.94	1.00000e-13
324.91	1.00000e-13
325.88	1.00000e-13
326.85	1.00000e-13
327.82	1.00000e-13
328.80	1.00000e-13
329.76	1.00000e-13
330.73	1.00000e-13
331.70	1.00000e-13
332.68	1.00000e-13
333.64	1.00000e-13
334.62	1.00000e-13
335.58	1.00000e-13
336.56	1.00000e-13
337.52	1.00000e-13
338.50	1.00000e-13
339.47	1.27439e-5
340.43	1.00000e-13
341.40	1.00000e-13
342.37	1.00000e-13
343.35	5.56097e-6
344.31	9.15242e-6
345.28	3.01219e-6
346.25	1.00000e-13
347.22	1.00000e-13
348.19	1.00000e-13
349.16	1.00000e-13
350.13	1.00000e-13
351.11	1.00000e-13
352.07	1.70305e-5
353.04	1.00000e-13
354.01	1.00000e-13
354.98	1.00000e-13
355.95	1.00000e-13
356.92	1.00000e-13
357.89	2.16646e-5
358.86	1.00000e-13
359.83	1.00000e-13
360.80	1.00000e-13
361.77	1.00000e-13
362.75	1.00000e-13
363.72	1.00000e-13
364.68	1.00000e-13
365.65	1.00000e-13
366.62	1.00000e-13
367.59	1.00000e-13
368.56	1.00000e-13
369.53	1.00000e-13
370.50	1.00000e-13
371.47	1.00000e-13
372.44	1.00000e-13
373.41	1.00000e-13
374.39	1.00000e-13
375.36	1.00000e-13
376.32	1.00000e-13
377.29	1.00000e-13
378.26	1.00000e-13
379.23	1.00000e-13
380.20	1.00000e-13
381.17	1.00000e-13
382.14	1.00000e-13
383.11	1.00000e-13
384.08	1.00000e-13
385.05	1.00000e-13
386.02	3.24390e-6
387.00	1.00000e-13
387.96	3.18597e-5
388.93	1.00000e-13
389.90	1.00000e-13
390.87	1.00000e-13
391.84	1.00000e-13
392.81	1.00000e-13
393.78	1.00000e-13
394.75	1.00000e-13
395.72	1.00000e-13
396.69	1.00000e-13
397.66	2.78048e-6
398.63	1.00000e-13
399.60	1.00000e-13
400.57	1.00000e-13
401.54	1.00000e-13
402.51	1.00000e-13
403.48	1.00000e-13
404.45	1.00000e-13
405.42	3.70731e-6
406.39	1.00000e-13
407.36	1.00000e-13
408.33	1.00000e-13
409.30	1.00000e-13
410.27	1.00000e-13
411.24	1.00000e-13
412.21	1.00000e-13
413.18	1.00000e-13
414.14	1.00000e-13
415.12	1.00000e-13
416.09	1.00000e-13
417.05	1.00000e-13
418.03	1.00000e-13
418.99	1.00000e-13
419.97	1.00000e-13
420.94	1.00000e-13
421.91	1.19329e-5
422.88	1.00000e-13
423.85	1.00000e-13
424.81	1.00000e-13
425.79	1.00000e-13
426.76	1.00000e-13
427.73	1.00000e-13
428.69	1.00000e-13
429.67	1.00000e-13
430.63	1.00000e-13
431.61	1.00000e-13
432.58	1.00000e-13
433.55	1.00000e-13
434.52	1.00000e-13
435.48	1.00000e-13
436.45	1.00000e-13
437.42	1.00000e-13
438.40	1.00000e-13
439.36	1.00000e-13
440.33	1.00000e-13
441.30	1.00000e-13
442.27	1.00000e-13
443.25	5.32926e-6
444.22	1.00000e-13
445.19	1.00000e-13
446.16	1.00000e-13
447.12	1.00000e-13
448.09	1.00000e-13
449.06	1.00000e-13
450.03	1.00000e-13
451.00	1.00000e-13
451.97	1.00000e-13
452.94	1.00000e-13
453.91	1.00000e-13
454.88	1.00000e-13
455.85	1.00000e-13
456.83	1.00000e-13
457.79	1.00000e-13
458.76	1.00000e-13
459.73	1.00000e-13
460.70	4.17073e-6
461.67	1.00000e-13
462.64	1.00000e-13
463.61	1.00000e-13
464.58	1.00000e-13
465.55	1.00000e-13
466.52	1.00000e-13
467.49	1.00000e-13
468.47	1.00000e-13
469.43	9.03657e-6
470.40	1.00000e-13
471.37	1.00000e-13
472.34	1.00000e-13
473.31	1.00000e-13
474.28	1.00000e-13
475.25	1.00000e-13
476.22	1.00000e-13
477.19	1.00000e-13
478.16	1.00000e-13
479.13	1.00000e-13
480.10	1.22805e-5
481.08	1.00000e-13
482.04	1.00000e-13
483.01	1.00000e-13
483.98	1.00000e-13
484.95	2.66463e-5
485.92	1.00000e-13
486.89	1.00000e-13
487.86	1.00000e-13
488.83	1.00000e-13
489.80	1.00000e-13
490.77	1.00000e-13
491.74	1.00000e-13
492.71	1.00000e-13
493.68	1.00000e-13
494.65	1.00000e-13
495.62	1.00000e-13
496.59	1.00000e-13
497.56	6.25609e-6
498.53	1.00000e-13
499.50	2.78048e-6
500.47	1.00000e-13
501.44	1.00000e-13
502.41	1.00000e-13
503.38	1.00000e-13
504.35	1.00000e-13
505.33	1.00000e-13
506.29	1.00000e-13
507.26	1.00000e-13
508.23	1.00000e-13
509.20	1.00000e-13
510.17	1.00000e-13
511.14	1.00000e-13
512.10	1.00000e-13
513.08	1.00000e-13
514.05	1.00000e-13
515.02	1.00000e-13
515.99	1.00000e-13
516.96	1.00000e-13
517.93	1.00000e-13
518.90	1.00000e-13
519.87	1.00000e-13
520.84	1.00000e-13
521.81	1.00000e-13
522.78	1.00000e-13
523.74	1.00000e-13
524.71	1.00000e-13
525.69	1.00000e-13
526.66	1.00000e-13
527.63	1.00000e-13
528.59	1.00000e-13
529.56	1.12378e-5
530.53	1.00000e-13
531.50	1.00000e-13
532.48	1.00000e-13
533.44	1.00000e-13
534.42	1.00000e-13
535.39	1.00000e-13
536.35	1.00000e-13
537.33	1.00000e-13
538.30	1.00000e-13
539.27	1.00000e-13
540.24	1.00000e-13
541.20	1.00000e-13
542.18	1.00000e-13
543.14	1.00000e-13
544.11	1.00000e-13
545.08	1.00000e-13
546.05	1.00000e-13
547.02	1.00000e-13
547.99	1.00000e-13
548.96	1.00000e-13
549.94	1.00000e-13
550.91	1.00000e-13
551.87	1.00000e-13
552.84	1.00000e-13
553.81	1.00000e-13
554.78	1.00000e-13
555.75	1.00000e-13
556.72	1.00000e-13
557.69	1.00000e-13
558.66	1.00000e-13
559.63	1.00000e-13
560.60	1.00000e-13
561.57	1.00000e-13
562.55	1.00000e-13
563.52	4.51829e-6
564.48	1.00000e-13
565.45	1.00000e-13
566.42	1.00000e-13
567.39	1.00000e-13
568.36	1.00000e-13
569.33	1.00000e-13
570.30	1.00000e-13
571.27	1.00000e-13
572.24	1.00000e-13
573.21	1.00000e-13
574.19	1.00000e-13
575.16	1.00000e-13
576.12	1.00000e-13
577.09	1.00000e-13
578.06	1.00000e-13
579.03	1.00000e-13
580.00	1.00000e-13
580.97	1.00000e-13
581.94	1.00000e-13
582.91	1.40183e-5
583.88	1.00000e-13
584.85	6.02438e-6
585.83	1.00000e-13
586.80	1.00000e-13
587.77	1.00000e-13
588.73	1.00000e-13
589.70	1.00000e-13
590.67	1.00000e-13
591.64	1.00000e-13
592.61	1.00000e-13
593.58	1.00000e-13
594.55	3.59146e-6
595.52	1.00000e-13
596.49	1.00000e-13
597.46	1.00000e-13
598.44	1.00000e-13
599.41	1.00000e-13
600.37	1.00000e-13
601.34	1.00000e-13
602.31	1.00000e-13
603.28	1.00000e-13
604.25	1.00000e-13
605.22	1.00000e-13
606.19	1.00000e-13
607.16	1.00000e-13
608.13	1.00000e-13
609.10	1.00000e-13
610.08	1.00000e-13
611.05	1.00000e-13
612.01	1.00000e-13
612.98	1.00000e-13
613.95	1.00000e-13
614.91	1.00000e-13
615.89	1.00000e-13
616.86	1.00000e-13
617.83	1.00000e-13
618.80	1.00000e-13
619.77	1.00000e-13
620.74	1.00000e-13
621.71	1.00000e-13
622.69	1.33232e-5
623.65	2.36341e-5
624.62	1.00000e-13
625.58	1.00000e-13
626.55	4.40243e-6
627.53	1.10061e-5
628.50	1.00000e-13
629.46	1.00000e-13
630.43	1.00000e-13
631.41	1.00000e-13
632.38	1.00000e-13
633.35	1.00000e-13
634.33	1.00000e-13
635.29	1.00000e-13
636.25	1.00000e-13
637.22	1.00000e-13
638.19	1.00000e-13
639.16	1.00000e-13
640.13	1.00000e-13
641.10	1.00000e-13
642.07	1.00000e-13
643.05	1.00000e-13
644.02	1.00000e-13
644.99	1.00000e-13
645.95	1.00000e-13
646.92	1.00000e-13
647.89	1.00000e-13
648.86	1.00000e-13
649.83	1.00000e-13
650.80	1.00000e-13
651.77	1.00000e-13
652.74	1.00000e-13
653.71	1.00000e-13
654.68	1.00000e-13
655.66	1.00000e-13
656.63	1.00000e-13
657.60	1.00000e-13
658.56	1.00000e-13
659.53	1.00000e-13
660.50	1.00000e-13
661.47	1.71463e-5
662.44	1.00000e-13
663.41	1.00000e-13
664.38	1.00000e-13
665.35	1.00000e-13
666.32	1.00000e-13
667.30	1.00000e-13
668.27	1.00000e-13
669.24	1.00000e-13
670.21	1.00000e-13
671.17	1.00000e-13
672.14	1.01951e-5
673.11	1.00000e-13
674.08	1.00000e-13
675.05	1.00000e-13
676.02	1.00000e-13
676.99	1.00000e-13
677.96	1.00000e-13
678.93	1.00000e-13
679.91	1.00000e-13
680.88	1.00000e-13
681.84	1.00000e-13
682.81	1.00000e-13
683.78	1.00000e-13
684.75	1.00000e-13
685.72	1.00000e-13
686.69	1.00000e-13
687.66	1.00000e-13
688.63	4.28658e-6
689.60	1.00000e-13
690.57	1.00000e-13
691.54	1.00000e-13
692.52	1.00000e-13
693.48	1.00000e-13
694.45	1.00000e-13
695.42	1.00000e-13
696.39	1.00000e-13
697.36	1.00000e-13
698.33	1.00000e-13
699.30	1.00000e-13
700.27	1.00000e-13
701.24	1.00000e-13
702.21	3.10487e-5
703.18	1.00000e-13
704.16	1.00000e-13
705.12	1.00000e-13
706.09	1.00000e-13
707.06	9.03657e-6
708.03	1.00000e-13
709.00	1.00000e-13
709.97	1.00000e-13
710.94	1.00000e-13
711.91	1.00000e-13
712.88	1.00000e-13
713.85	1.00000e-13
714.82	1.00000e-13
715.79	1.00000e-13
716.77	1.00000e-13
717.72	1.00000e-13
718.70	1.00000e-13
719.67	1.00000e-13
720.64	1.00000e-13
721.60	1.00000e-13
722.58	1.00000e-13
723.54	1.00000e-13
724.52	1.00000e-13
725.49	1.00000e-13
726.46	1.00000e-13
727.43	6.60365e-6
728.41	1.00000e-13
729.37	1.00000e-13
730.33	1.00000e-13
731.30	1.00000e-13
732.27	1.00000e-13
733.25	1.00000e-13
734.21	1.00000e-13
735.19	2.65304e-5
736.15	1.00000e-13
737.13	1.00000e-13
738.10	3.47560e-7
739.07	1.00000e-13
740.05	1.00000e-13
741.00	1.00000e-13
741.98	1.00000e-13
742.94	1.00000e-13
743.91	1.00000e-13
744.88	1.00000e-13
745.85	1.00000e-13
746.82	1.00000e-13
747.79	1.00000e-13
748.76	1.87683e-5
749.74	1.00000e-13
750.71	1.00000e-13
751.68	1.00000e-13
752.64	1.00000e-13
753.61	1.00000e-13
754.58	1.00000e-13
755.55	1.00000e-13
756.52	1.00000e-13
757.49	1.00000e-13
758.46	7.87804e-6
759.43	1.00000e-13
760.40	1.00000e-13
761.38	1.00000e-13
762.35	1.00000e-13
763.32	1.00000e-13
764.28	1.00000e-13
765.25	1.00000e-13
766.22	1.00000e-13
767.19	1.00000e-13
768.16	1.00000e-13
769.13	1.00000e-13
770.10	1.00000e-13
771.07	1.00000e-13
772.04	1.00000e-13
773.01	1.00000e-13
773.99	1.00000e-13
774.96	1.00000e-13
775.92	1.00000e-13
776.89	1.51768e-5
777.86	1.00000e-13
778.83	1.00000e-13
779.80	1.00000e-13
780.77	1.00000e-13
781.74	1.00000e-13
782.71	1.00000e-13
783.68	1.00000e-13
784.65	1.00000e-13
785.63	1.00000e-13
786.60	1.00000e-13
787.56	1.00000e-13
788.53	1.00000e-13
789.50	1.00000e-13
790.47	1.00000e-13
791.44	8.22560e-6
792.41	1.00000e-13
793.38	1.00000e-13
794.35	1.00000e-13
795.32	2.31707e-7
796.29	1.00000e-13
797.27	1.00000e-13
798.24	1.00000e-13
799.21	1.00000e-13
800.17	1.00000e-13
801.14	1.00000e-13
802.11	2.61829e-5
803.08	1.00000e-13
804.05	4.98170e-6
805.02	1.00000e-13
805.99	1.00000e-13
806.96	1.00000e-13
807.93	1.00000e-13
808.90	1.00000e-13
809.88	1.00000e-13
810.85	1.00000e-13
811.81	1.00000e-13
812.78	1.00000e-13
813.75	1.00000e-13
814.72	1.00000e-13
815.69	1.00000e-13
816.66	1.00000e-13
817.62	1.00000e-13
818.60	6.02438e-6
819.57	1.00000e-13
820.54	1.00000e-13
821.51	1.00000e-13
822.49	1.00000e-13
823.45	1.00000e-13
824.42	1.00000e-13
825.38	1.00000e-13
826.35	1.00000e-13
827.33	5.09755e-6
828.29	1.00000e-13
829.26	1.00000e-13
830.24	1.00000e-13
831.21	9.73169e-6
832.18	1.00000e-13
833.15	1.00000e-13
834.11	1.00000e-13
835.08	1.00000e-13
836.05	1.00000e-13
837.02	1.00000e-13
837.99	1.00000e-13
838.96	1.00000e-13
839.93	1.00000e-13
840.90	1.00000e-13
841.88	1.00000e-13
842.85	1.00000e-13
843.82	1.00000e-13
844.79	1.00000e-13
845.76	1.00000e-13
846.72	1.00000e-13
847.69	7.29877e-6
848.66	1.00000e-13
849.63	1.00000e-13
850.60	1.00000e-13
851.57	1.00000e-13
852.54	1.00000e-13
853.51	1.00000e-13
854.48	1.00000e-13
855.46	1.00000e-13
856.43	1.00000e-13
857.40	1.00000e-13
858.36	1.00000e-13
859.33	1.00000e-13
860.30	1.00000e-13
861.27	1.00000e-13
862.24	1.00000e-13
863.21	1.00000e-13
864.18	1.00000e-13
865.15	1.00000e-13
866.12	1.00000e-13
867.10	1.00000e-13
868.07	1.00000e-13
869.05	1.00000e-13
870.02	1.00000e-13
870.97	1.00000e-13
871.94	1.00000e-13
872.91	5.79267e-7
873.88	1.00000e-13
874.85	1.00000e-13
875.82	1.00000e-13
876.79	1.00000e-13
877.76	1.00000e-13
878.73	1.00000e-13
879.71	1.00000e-13
880.68	1.00000e-13
881.65	1.00000e-13
882.61	1.00000e-13
883.58	1.00000e-13
884.55	1.00000e-13
885.52	2.31707e-7
886.49	1.00000e-13
887.46	1.00000e-13
888.43	1.00000e-13
889.40	1.00000e-13
890.37	1.00000e-13
891.35	1.00000e-13
892.32	1.00000e-13
893.29	1.00000e-13
894.25	1.00000e-13
895.22	1.00000e-13
896.19	1.00000e-13
897.16	1.00000e-13
898.13	1.00000e-13
899.10	1.00000e-13
900.07	1.00000e-13
901.04	1.00000e-13
902.01	1.00000e-13
902.98	1.00000e-13
903.96	1.00000e-13
904.93	1.00000e-13
905.89	1.00000e-13
906.85	1.00000e-13
907.83	1.00000e-13
908.79	1.00000e-13
909.77	1.00000e-13
910.74	1.00000e-13
911.71	1.00000e-13
912.68	1.00000e-13
913.65	1.00000e-13
914.62	1.00000e-13
915.60	1.00000e-13
916.55	1.00793e-5
917.52	1.00000e-13
918.49	4.63414e-7
919.46	1.00000e-13
920.43	1.00000e-13
921.40	1.00000e-13
922.38	1.00000e-13
923.34	1.00000e-13
924.32	1.00000e-13
925.29	1.00000e-13
926.26	1.00000e-13
927.24	1.00000e-13
928.21	1.00000e-13
929.16	1.00000e-13
930.13	1.00000e-13
931.11	1.00000e-13
932.07	1.00000e-13
933.04	1.00000e-13
934.02	1.00000e-13
934.98	1.00000e-13
935.96	1.00000e-13
936.93	1.00000e-13
937.90	1.00000e-13
938.87	1.00000e-13
939.85	1.00000e-13
940.80	1.00000e-13
941.77	1.00000e-13
942.74	1.00000e-13
943.71	1.00000e-13
944.68	1.00000e-13
945.65	1.00000e-13
946.62	1.00000e-13
947.59	4.43719e-5
948.57	1.00000e-13
949.54	1.00000e-13
950.51	1.00000e-13
951.48	1.00000e-13
952.44	1.00000e-13
953.41	1.00000e-13
954.38	1.00000e-13
955.35	1.00000e-13
956.32	1.00000e-13
957.29	1.00000e-13
958.26	1.00000e-13
959.23	1.00000e-13
960.20	1.00000e-13
961.18	1.00000e-13
962.15	1.00000e-13
963.13	1.00000e-13
964.08	1.00000e-13
965.05	1.00000e-13
966.02	1.00000e-13
966.99	1.00000e-13
967.96	1.00000e-13
968.93	1.00000e-13
969.90	1.00000e-13
970.87	1.00000e-13
971.85	1.00000e-13
972.82	1.00000e-13
973.79	1.00000e-13
974.76	1.00000e-13
975.72	1.00000e-13
976.69	1.00000e-13
977.66	1.00000e-13
978.63	1.00000e-13
979.60	1.00000e-13
980.57	1.00000e-13
981.54	1.00000e-13
982.51	1.00000e-13
983.48	1.00000e-13
984.45	1.00000e-13
985.43	1.00000e-13
986.40	1.00000e-13
987.36	1.00000e-13
988.33	1.00000e-13
989.30	1.00000e-13
990.27	1.00000e-13
991.24	1.00000e-13
992.21	1.00000e-13
993.18	1.00000e-13
994.15	1.00000e-13
995.12	1.00000e-13
996.09	1.00000e-13
997.07	2.71676e-4
998.04	1.00000e-13
999.00	1.00000e-13
999.97	1.00000e-13
1000.94	1.00000e-13
1001.91	1.00000e-13
1002.88	1.00000e-13
1003.85	1.00000e-13
1004.82	1.00000e-13
1005.79	1.00000e-13
1006.76	1.00000e-13
1007.73	1.00000e-13
1008.71	1.89768e-4
1009.68	1.00000e-13
1010.65	1.00000e-13
1011.61	1.00000e-13
1012.58	1.00000e-13
1013.55	1.00000e-13
1014.51	1.00000e-13
1015.49	1.00000e-13
1016.46	1.00000e-13
1017.43	3.47560e-7
1018.40	1.00000e-13
1019.37	1.00000e-13
1020.34	6.95121e-7
1021.32	1.00000e-13
1022.29	1.00000e-13
1023.25	1.00000e-13
1024.21	1.00000e-13
1025.19	1.00000e-13
1026.15	1.00000e-13
1027.12	1.00000e-13
1028.10	1.00000e-13
1029.06	1.00000e-13
1030.04	5.44511e-6
1031.01	1.00000e-13
1031.98	1.00000e-13
1032.95	1.00000e-13
1033.91	1.00000e-13
1034.88	1.00000e-13
1035.85	1.00000e-13
1036.82	1.00000e-13
1037.79	1.00000e-13
1038.76	1.00000e-13
1039.73	1.00000e-13
1040.70	1.00000e-13
1041.68	1.00000e-13
1042.65	1.00000e-13
1043.62	1.00000e-13
1044.59	1.00000e-13
1045.57	1.00000e-13
1046.52	1.00000e-13
1047.49	1.00000e-13
1048.46	1.00000e-13
1049.43	1.00000e-13
1050.40	1.00000e-13
1051.37	1.00000e-13
1052.34	1.00000e-13
1053.31	1.00000e-13
1054.29	1.00000e-13
1055.26	7.18292e-6
1056.23	1.00000e-13
1057.21	1.00000e-13
1058.16	1.00000e-13
1059.13	1.00000e-13
1060.10	1.00000e-13
1061.07	1.00000e-13
1062.04	1.00000e-13
1063.01	1.00000e-13
1063.98	1.00000e-13
1064.95	1.00000e-13
1065.93	1.00000e-13
1066.90	1.00000e-13
1067.87	1.00000e-13
1068.84	2.15487e-5
1069.80	1.74939e-5
1070.77	1.00000e-13
1071.74	1.00000e-13
1072.71	2.43292e-6
1073.68	1.00000e-13
1074.65	1.00000e-13
1075.62	1.00000e-13
1076.59	1.00000e-13
1077.56	1.00000e-13
1078.53	1.00000e-13
1079.51	1.00000e-13
1080.48	1.00000e-13
1081.45	1.00000e-13
1082.41	1.00000e-13
1083.38	1.00000e-13
1084.35	1.00000e-13
1085.32	1.00000e-13
1086.29	1.00000e-13
1087.26	1.00000e-13
1088.23	1.00000e-13
1089.20	1.00000e-13
1090.17	1.00000e-13
1091.15	1.00000e-13
1092.12	1.00000e-13
1093.08	4.05487e-5
1094.05	1.00000e-13
1095.02	1.00000e-13
1095.99	1.00000e-13
1096.96	1.00000e-13
1097.93	1.00000e-13
1098.90	9.26828e-7
1099.87	1.00000e-13
1100.84	1.00000e-13
1101.81	1.00000e-13
1102.79	1.00000e-13
1103.76	3.82316e-6
1104.73	1.00000e-13
1105.69	1.00000e-13
1106.66	1.00000e-13
1107.63	6.25609e-6
1108.60	1.00000e-13
1109.57	1.00000e-13
1110.54	1.00000e-13
1111.51	1.00000e-13
1112.48	4.05487e-6
1113.45	1.00000e-13
1114.42	1.00000e-13
1115.40	1.00000e-13
1116.37	1.00000e-13
1117.32	1.00000e-13
1118.29	1.00000e-13
1119.26	1.00000e-13
1120.23	1.00000e-13
1121.20	5.79267e-7
1122.18	1.00000e-13
1123.15	1.94634e-5
1124.12	1.00000e-13
1125.09	1.00000e-13
1126.06	1.00000e-13
1127.04	1.00000e-13
1127.99	3.35975e-6
1128.98	1.00000e-13
1129.93	1.00000e-13
1130.90	1.00000e-13
1131.87	1.00000e-13
1132.84	1.00000e-13
1133.81	5.56097e-6
1134.78	1.00000e-13
1135.76	1.00000e-13
1136.73	1.00000e-13
1137.70	1.47134e-5
1138.67	1.00000e-13
1139.65	1.12378e-5
1140.60	1.00000e-13
1141.57	1.00000e-13
1142.54	8.34145e-6
1143.51	1.00000e-13
1144.48	1.00000e-13
1145.45	1.00000e-13
1146.42	1.00000e-13
1147.39	1.00000e-13
1148.37	1.00000e-13
1149.34	1.00000e-13
1150.31	1.00000e-13
1151.29	1.00000e-13
1152.24	1.00000e-13
1153.21	1.00000e-13
1154.18	1.00000e-13
1155.15	1.00000e-13
1156.12	1.00000e-13
1157.09	1.00000e-13
1158.06	1.00000e-13
1159.03	1.00000e-13
1160.01	1.00000e-13
1160.98	1.00000e-13
1161.95	1.00000e-13
1162.92	1.00000e-13
1163.89	1.00000e-13
1164.85	1.00000e-13
1165.82	1.00000e-13
1166.79	1.00000e-13
1167.76	1.00000e-13
1168.73	1.00000e-13
1169.70	1.00000e-13
1170.67	1.00000e-13
1171.64	1.00000e-13
1172.62	1.00000e-13
1173.59	1.00000e-13
1174.56	1.00000e-13
1175.54	1.00000e-13
1176.49	1.00000e-13
1177.46	1.85366e-6
1178.43	1.00000e-13
1179.40	1.00000e-13
1180.37	1.00000e-13
1181.34	1.00000e-13
1182.31	1.00000e-13
1183.28	1.00000e-13
1184.26	1.00000e-13
1185.23	1.00000e-13
1186.20	1.00000e-13
1187.16	1.00000e-13
1188.13	1.00000e-13
1189.10	1.00000e-13
1190.07	5.44511e-6
1191.04	1.00000e-13
1192.01	1.00000e-13
1192.98	1.00000e-13
1193.95	1.00000e-13
1194.92	1.00000e-13
1195.90	1.00000e-13
1196.87	1.00000e-13
1197.84	1.00000e-13
1198.81	1.96951e-6
1199.77	1.00000e-13
1200.73	1.00000e-13
1201.70	1.00000e-13
1202.67	1.00000e-13
1203.65	1.00000e-13
1204.62	1.00000e-13
1205.59	1.00000e-13
1206.56	1.00000e-13
1207.53	1.00000e-13
1208.50	1.00000e-13
1209.48	1.00000e-13
1210.43	1.00000e-13
1211.40	4.98170e-6
1212.38	1.00000e-13
1213.34	1.00000e-13
1214.31	2.31707e-6
1215.29	1.00000e-13
1216.25	1.00000e-13
1217.23	1.00000e-13
1218.20	1.00000e-13
1219.17	1.00000e-13
1220.14	1.00000e-13
1221.12	1.00000e-13
1222.07	1.00000e-13
1223.04	1.00000e-13
1224.01	1.00000e-13
1224.98	1.00000e-13
1225.95	1.00000e-13
1226.92	1.00000e-13
1227.89	1.00000e-13
1228.86	1.00000e-13
1229.84	1.00000e-13
1230.81	1.00000e-13
1231.79	1.00000e-13
1232.76	1.00000e-13
1233.73	1.00000e-13
1234.68	1.00000e-13
1235.65	1.00000e-13
1236.62	1.00000e-13
1237.59	1.00000e-13
1238.56	1.00000e-13
1239.53	1.00000e-13
1240.50	1.00000e-13
1241.48	1.00000e-13
1242.45	1.00000e-13
1243.42	1.00000e-13
1244.39	1.00000e-13
1245.37	1.21646e-5
1246.32	1.00000e-13
1247.29	1.00000e-13
1248.26	1.00000e-13
1249.23	1.00000e-13
1250.20	1.00000e-13
1251.17	1.00000e-13
1252.14	1.00000e-13
1253.11	1.00000e-13
1254.09	1.00000e-13
1255.06	1.00000e-13
1256.03	1.00000e-13
1257.00	1.00000e-13
1257.96	1.00000e-13
1258.93	1.00000e-13
1259.90	7.06706e-6
1260.87	1.00000e-13
1261.84	1.00000e-13
1262.81	1.00000e-13
1263.78	1.00000e-13
1264.75	1.00000e-13
1265.73	1.00000e-13
1266.70	1.00000e-13
1267.67	1.00000e-13
1268.64	1.00000e-13
1269.62	1.00000e-13
1270.57	1.00000e-13
1271.54	1.09366e-4
1272.51	1.21067e-4
1273.48	5.14505e-4
1274.45	9.58224e-4
1275.42	1.99604e-3
1276.39	3.97598e-3
1277.36	7.00995e-3
1278.34	0.0117300
1279.31	0.0164854
1280.28	0.0180159
1281.24	0.0130927
1282.21	7.51391e-3
1283.18	4.06947e-3
1284.15	2.14966e-3
1285.12	1.32513e-3
1286.09	8.36810e-4
1287.06	4.37926e-4
1288.03	2.87432e-4
1289.00	2.10506e-4
1289.98	1.67061e-4
1290.95	5.63048e-5
1291.92	1.08902e-5
1292.89	4.77316e-5
1293.85	2.36341e-5
1294.82	4.92377e-5
1295.79	8.22560e-6
1296.76	9.38413e-6
1297.73	2.89634e-6
1298.70	1.19329e-5
1299.67	1.70305e-5
1300.64	1.96951e-5
1301.62	1.00000e-13
1302.59	1.00000e-13
1303.56	1.00000e-13
1304.53	9.26828e-7
1305.48	1.00000e-13
1306.45	6.60365e-6
1307.43	1.00000e-13
1308.40	1.00000e-13
1309.36	1.00000e-13
1310.34	1.07744e-5
1311.30	1.92317e-5
1312.28	1.00000e-13
1313.25	1.00000e-13
1314.23	1.00000e-13