File: data/TGA/005d-L_M/L1.txt
Filename	L1
Instrument name
Operator	Gwenael
rundate	2025-02-10
Sample name	L1
[step]
Step 1
Time	Temperature	Weight	Weight	Deriv. Weight
min	°C	mg	%	% / °C
0,01	26,79	3,760	100,026	4,33190e-4
0,96	27,94	3,765	100,161	-2,17925e-4
1,96	29,74	3,766	100,182	-7,37630e-4
2,96	33,02	3,767	100,201	-1,26036e-3
3,96	37,51	3,766	100,187	-1,82712e-3
4,96	42,54	3,766	100,193	-2,49448e-3
5,96	47,63	3,766	100,182	-3,26269e-3
6,96	52,55	3,766	100,184	-4,17571e-3
7,96	57,31	3,764	100,137	-5,17836e-3
8,96	62,01	3,764	100,129	-6,68842e-3
9,96	66,74	3,763	100,113	-8,45483e-3
10,96	71,55	3,762	100,087	-0,0103328
11,96	76,47	3,761	100,056	-0,0123131
12,96	81,47	3,758	99,981	-0,0144252
13,96	86,53	3,756	99,919	-0,0167104
14,96	91,61	3,752	99,825	-0,0192111
15,96	96,60	3,748	99,708	-0,0219746
16,96	100,37	3,743	99,579	-0,0251938
17,96	102,37	3,739	99,468	-0,0287829
18,96	103,02	3,736	99,376	-0,0330703
19,96	102,88	3,733	99,305	-0,0376492
20,96	102,36	3,730	99,236	-0,0403374
21,96	101,70	3,728	99,178	-0,0372081
22,96	101,04	3,726	99,132	-0,0288361
23,96	100,47	3,725	99,083	-0,0213426
24,96	100,04	3,723	99,040	-0,0170021
25,96	100,78	3,723	99,032	-0,0146616
26,96	103,67	3,722	99,019	-0,0133824
27,96	108,00	3,720	98,975	-0,0126720
28,96	112,81	3,719	98,937	-0,0122812
29,96	117,60	3,717	98,882	-0,0121502
30,96	122,33	3,715	98,837	-0,0122299
31,96	127,09	3,714	98,793	-0,0125508
32,96	131,93	3,712	98,747	-0,0131378
33,96	136,86	3,710	98,693	-0,0139731
34,96	141,86	3,707	98,615	-0,0149612
35,96	146,91	3,703	98,521	-0,0160131
36,96	151,98	3,700	98,442	-0,0171860
37,96	157,04	3,697	98,350	-0,0184441
38,96	162,09	3,694	98,262	-0,0197740
39,96	167,13	3,690	98,163	-0,0211774
40,96	172,14	3,686	98,057	-0,0226201
41,96	177,14	3,682	97,939	-0,0241083
42,96	182,16	3,677	97,819	-0,0256343
43,96	187,17	3,672	97,690	-0,0272291
44,96	192,19	3,667	97,550	-0,0289123
45,96	197,20	3,662	97,408	-0,0306349
46,96	202,19	3,656	97,248	-0,0323656
47,96	207,18	3,649	97,076	-0,0340748
48,96	212,18	3,642	96,900	-0,0357663
49,96	217,18	3,636	96,716	-0,0374209
50,96	222,18	3,628	96,523	-0,0390173
51,96	227,19	3,621	96,321	-0,0405495
52,96	232,19	3,613	96,113	-0,0420233
53,96	237,21	3,605	95,892	-0,0434461
54,96	242,22	3,596	95,662	-0,0447887
55,96	247,23	3,588	95,448	-0,0460942
56,96	252,24	3,579	95,213	-0,0473736
57,96	257,25	3,570	94,969	-0,0486704
58,96	262,26	3,560	94,715	-0,0502510
59,96	267,26	3,551	94,463	-0,0522264
60,96	272,27	3,542	94,214	-0,0546046
61,96	277,28	3,531	93,941	-0,0574537
62,96	282,29	3,521	93,670	-0,0607677
63,96	287,30	3,511	93,396	-0,0646390
64,96	292,32	3,500	93,110	-0,0691471
65,96	297,01	3,489	92,823	-0,0743908
66,96	299,81	3,479	92,543	-0,0806259
67,96	301,17	3,469	92,289	-0,0881833
68,96	301,81	3,461	92,071	-0,0976371
69,96	301,88	3,454	91,880	-0,109791
70,96	301,53	3,447	91,704	-0,125673
71,96	301,01	3,442	91,557	-0,145359
72,96	300,48	3,437	91,421	-0,153392
73,96	300,06	3,432	91,310	7,07727e-3
74,96	299,79	3,428	91,207	0,471265
75,96	299,67	3,424	91,098	0,575836
76,96	299,67	3,421	91,010	0,538914
77,96	299,75	3,418	90,923	0,517047
78,96	299,85	3,415	90,837	0,512200
79,96	299,95	3,412	90,758	0,418234
80,96	300,02	3,408	90,669	-0,241219
81,96	300,06	3,405	90,578	-1,61361
82,96	300,08	3,403	90,518	-1,98431
83,96	300,07	3,400	90,453	-1,87528
84,96	300,05	3,397	90,376	-1,80574
85,96	300,03	3,394	90,287	-1,64257
86,96	300,00	3,392	90,242	-0,471340
87,96	299,99	3,390	90,193	3,73335
88,96	299,98	3,388	90,125	7,05253
89,96	299,99	3,385	90,063	7,11222
90,96	299,99	3,383	90,007	6,88391
91,96	299,99	3,381	89,951	7,01690
92,96	300,00	3,379	89,891	6,46946
93,96	300,00	3,377	89,841	0,142090
94,96	300,00	3,375	89,789	-19,5934
95,96	300,00	3,373	89,741	-28,6542
96,96	300,00	3,371	89,684	-27,4757
97,96	300,00	3,369	89,637	-25,8074
98,96	300,00	3,368	89,587	-21,6770
99,96	300,00	3,366	89,541	-3,42235
100,96	300,00	3,364	89,495	31,1190
101,96	300,00	3,362	89,443	56,7727
102,96	300,00	3,361	89,401	47,0601
103,96	300,00	3,359	89,367	38,0577
104,96	300,00	3,358	89,321	8,34167
105,96	300,00	3,356	89,286	-50,7904
106,96	300,00	3,354	89,231	-95,4542
107,96	300,00	3,353	89,194	-104,442
108,96	300,00	3,351	89,154	-99,1503
109,96	300,00	3,349	89,104	-99,1186
110,96	300,00	3,348	89,066	-93,5501
111,96	300,00	3,346	89,022	-67,2609
112,96	300,00	3,345	88,993	-31,5190
113,96	300,00	3,344	88,958	-5,20836
114,96	300,00	3,343	88,921	17,6959
115,96	300,00	3,341	88,881	35,1574
116,96	300,00	3,340	88,848	40,7656
117,96	300,00	3,338	88,812	34,9007
118,96	300,00	3,337	88,780	35,1082
119,96	300,00	3,336	88,739	37,2946
120,96	300,00	3,335	88,714	46,6313
121,96	300,00	3,334	88,685	48,2913
122,96	300,00	3,332	88,642	51,8918
123,96	300,00	3,331	88,612	50,4970
124,96	300,00	3,330	88,582	47,0367
125,96	300,00	3,329	88,558	39,7076
126,96	300,00	3,327	88,521	19,7410
127,96	300,00	3,327	88,501	-1,67066
128,96	300,00	3,326	88,469	-2,76887
129,96	300,00	3,324	88,430	0,835290
130,96	300,00	3,323	88,404	3,88122
131,96	300,00	3,322	88,373	8,14923
132,96	300,00	3,321	88,351	-7,97178
133,96	300,00	3,320	88,317	-26,8973
134,96	300,00	3,319	88,294	-43,8556
135,96	300,00	3,318	88,258	-36,7626
136,96	300,00	3,317	88,232	-49,5761
137,96	300,00	3,316	88,204	-68,1631
138,96	300,00	3,314	88,174	-79,4301
139,96	300,00	3,313	88,145	-84,1728
140,96	300,00	3,312	88,115	-86,9327
141,96	300,00	3,311	88,091	-87,5322
142,96	300,00	3,310	88,063	-87,1085
143,96	300,00	3,309	88,034	-81,6206
144,96	300,00	3,308	88,008	-77,8741
145,96	300,00	3,307	87,974	-55,0166
146,96	300,00	3,306	87,955	-30,7978
147,96	300,00	3,306	87,938	1,65186
148,96	300,00	3,304	87,904	12,1119
149,96	300,00	3,304	87,884	-7,69288
150,96	300,00	3,302	87,841	12,3169
151,96	300,00	3,302	87,838	36,3224
152,96	300,00	3,301	87,810	51,0793
153,96	300,00	3,299	87,768	54,8540
154,96	300,00	3,299	87,751	51,7105
155,96	300,00	3,298	87,746	51,0257
156,96	300,00	3,297	87,704	50,2964
157,96	300,00	3,296	87,691	48,0804
158,96	300,00	3,295	87,666	43,1112
159,96	300,00	3,294	87,635	34,7231
160,96	300,00	3,294	87,619	19,6365
161,96	300,00	3,293	87,593	2,22170
162,96	300,00	3,292	87,575	-4,64450
163,96	300,00	3,291	87,546	-13,9313
164,96	300,00	3,290	87,523	-25,8791
165,96	300,00	3,289	87,498	-33,2321
166,96	300,00	3,288	87,468	-46,3451
167,96	300,00	3,287	87,454	-49,4984
168,96	300,00	3,286	87,415	-45,9619
169,96	300,00	3,286	87,410	-38,8548
170,96	300,00	3,285	87,380	-31,3458
171,96	300,00	3,284	87,360	-23,2966
172,96	300,00	3,283	87,340	-8,20728
173,96	300,00	3,282	87,321	-4,88548
174,96	300,00	3,281	87,295	-7,00535
175,96	300,00	3,281	87,278	-15,2756
176,96	300,00	3,280	87,255	-10,5771
177,96	300,00	3,279	87,231	6,37754
178,96	300,00	3,278	87,195	15,0862
179,96	300,00	3,277	87,187	15,3514
180,96	300,00	3,276	87,160	15,5498
181,96	300,00	3,276	87,147	15,4079
182,96	300,00	3,275	87,119	14,6150
183,96	300,00	3,274	87,096	13,3119
184,96	300,00	3,273	87,078	9,70124
185,96	300,00	3,273	87,060	5,87258
186,96	299,99	3,272	87,049	3,06728
187,96	299,99	3,271	87,020	1,45413
188,96	299,99	3,270	87,001	-0,323329
189,96	299,99	3,270	86,984	-2,51197
190,96	300,00	3,269	86,965	-4,39012
191,96	300,00	3,268	86,947	-7,30636
192,96	300,00	3,268	86,925	-10,9117
193,96	300,00	3,267	86,911	-14,1082
194,96	300,00	3,266	86,886	-14,4960
195,96	300,00	3,265	86,866	-13,1218
196,96	300,00	3,265	86,851	-11,5403
197,96	300,00	3,264	86,827	-3,95000
198,96	300,00	3,264	86,823	18,6510
199,96	300,00	3,263	86,793	30,3994
200,96	300,00	3,262	86,770	36,3082
201,96	300,00	3,261	86,755	20,8877
202,96	300,00	3,261	86,746	-9,78857
203,96	300,00	3,259	86,700	-30,1921
204,96	300,00	3,259	86,698	-39,5129
205,96	300,00	3,258	86,678	-43,1387
206,96	300,00	3,257	86,659	-44,2173
207,96	300,00	3,257	86,642	-43,4918
208,96	300,00	3,256	86,630	-44,0967
209,96	300,00	3,255	86,603	-42,4504
210,96	300,00	3,254	86,577	-36,6324
211,96	300,00	3,254	86,561	-30,4459
212,96	300,00	3,253	86,542	-19,2120
213,96	300,00	3,252	86,521	-11,1504
214,96	300,00	3,252	86,504	-9,52807
215,96	300,00	3,251	86,484	-4,04593
216,96	300,00	3,250	86,459	8,44405
217,96	300,00	3,250	86,449	16,3964
218,96	300,00	3,248	86,413	4,06433
219,96	300,00	3,248	86,405	-8,50615
220,96	300,00	3,247	86,387	2,66501
221,96	300,00	3,246	86,345	10,0575
222,96	300,00	3,245	86,319	14,6021
223,96	300,00	3,246	86,343	20,9412
224,96	300,00	3,244	86,309	23,4595
225,96	300,00	3,244	86,293	24,1585
226,96	300,00	3,244	86,300	25,1831
227,96	300,00	3,243	86,268	25,7518
228,96	300,00	3,242	86,244	27,2734
229,96	300,00	3,242	86,233	28,3460
230,96	300,00	3,241	86,212	26,2693
231,96	300,00	3,240	86,201	19,5036
232,96	300,00	3,239	86,171	12,7578
233,96	300,00	3,239	86,159	4,18150
234,96	300,00	3,238	86,148	-5,53035
235,96	300,00	3,237	86,123	-17,9367
236,96	300,00	3,237	86,107	-33,8931
237,96	300,00	3,236	86,097	-40,1318
238,96	300,00	3,235	86,068	-40,0117
239,96	300,00	3,235	86,056	-39,9701
240,96	300,00	3,234	86,037	-38,4929
241,96	300,00	3,233	86,018	-38,3510
242,96	300,00	3,233	86,012	-40,5953
243,96	300,00	3,232	85,986	-39,8829
244,96	300,00	3,231	85,965	-36,2058
245,96	300,00	3,231	85,944	-25,7074
246,96	300,00	3,230	85,930	-7,87954
247,96	300,00	3,229	85,910	2,35942
248,96	300,00	3,229	85,898	7,15268
249,96	300,00	3,229	85,888	14,9536
250,96	300,00	3,227	85,855	19,3962
251,96	300,00	3,227	85,839	25,1965
252,96	300,00	3,227	85,837	34,4158
253,96	300,00	3,225	85,802	36,0968
254,96	300,00	3,225	85,784	34,3841
255,96	300,00	3,224	85,765	32,6467
256,96	300,00	3,224	85,758	29,3457
257,96	300,00	3,223	85,740	24,7399
258,96	300,00	3,222	85,720	11,4414
259,96	300,00	3,222	85,703	-5,80402
260,96	300,00	3,221	85,689	-23,3228
261,96	300,00	3,220	85,674	-33,5179
262,96	300,00	3,220	85,653	-26,5657
263,96	300,00	3,219	85,637	-13,5644
264,96	300,00	3,218	85,620	-8,70215
265,96	300,00	3,218	85,608	-1,48008
266,96	300,00	3,217	85,588	1,74062
267,96	300,00	3,216	85,567	11,2525
268,96	300,00	3,216	85,555	24,7911
269,96	300,00	3,215	85,535	25,0216
270,96	300,00	3,215	85,529	23,9053
271,96	300,00	3,214	85,512	23,3745
272,96	300,00	3,213	85,477	17,8642
273,96	300,00	3,213	85,469	7,89184
274,96	300,00	3,212	85,454	-1,40479
275,96	300,00	3,212	85,445	-18,4698
276,96	300,00	3,211	85,429	-42,6774
277,96	300,00	3,210	85,403	-48,5012
278,96	300,00	3,210	85,386	-52,3827
279,96	300,00	3,209	85,368	-46,7102
280,96	300,00	3,209	85,364	-41,4147
281,96	300,00	3,208	85,354	-26,7657
282,96	300,00	3,207	85,318	-3,01377
283,96	300,00	3,207	85,306	-2,23616
284,96	300,00	3,206	85,282	-0,576137
285,96	300,00	3,205	85,266	-0,146843
286,96	300,00	3,205	85,252	2,20127
287,96	300,00	3,204	85,239	14,0547
288,96	300,00	3,204	85,228	19,5086
289,96	300,00	3,203	85,205	17,9451
290,96	300,00	3,202	85,188	24,5940
291,96	300,00	3,202	85,184	16,2177
292,96	300,00	3,201	85,147	19,2832
293,96	300,00	3,200	85,141	23,3955
294,96	300,00	3,200	85,123	27,7116
295,96	300,00	3,199	85,115	31,3695
296,96	300,00	3,199	85,090	21,1859
297,96	300,00	3,198	85,084	12,1565
298,96	300,00	3,197	85,049	7,40484
299,96	300,00	3,196	85,032	8,26998
300,96	300,00	3,196	85,015	4,13604
301,96	300,00	3,196	85,015	-4,92691
302,96	300,00	3,195	84,994	-5,61765
303,96	300,00	3,194	84,973	-5,56237
304,96	300,00	3,194	84,959	-9,03011
305,96	300,00	3,192	84,927	-16,3809
306,96	300,00	3,192	84,925	-22,4944
307,96	300,00	3,192	84,908	-28,0401
308,96	300,00	3,191	84,886	-35,2003
309,96	300,00	3,190	84,869	-35,8002
310,96	300,00	3,190	84,856	-34,2651
311,96	300,00	3,189	84,842	-28,1072
312,96	300,00	3,188	84,818	-12,6899
313,96	300,00	3,188	84,808	-14,1290
314,96	300,00	3,188	84,813	-15,8994
315,96	300,00	3,186	84,767	-31,1886
316,96	300,00	3,186	84,760	-22,9257
317,96	300,00	3,185	84,739	-12,3160
318,96	300,00	3,185	84,722	-26,1061
319,96	300,00	3,184	84,694	-6,13856
320,96	300,00	3,183	84,680	8,75125
321,96	300,00	3,183	84,669	19,2401
322,96	300,00	3,182	84,640	28,3396
323,96	300,00	3,181	84,634	40,1672
324,96	300,00	3,181	84,626	42,3926
325,96	300,00	3,181	84,612	42,3345
326,96	300,00	3,180	84,592	41,7864
327,96	300,00	3,179	84,583	33,5896
328,96	300,00	3,179	84,563	33,1821
329,96	300,00	3,178	84,544	33,9261
330,96	300,00	3,178	84,551	26,0715
331,96	300,00	3,177	84,513	20,7083
332,96	300,00	3,176	84,500	1,19639
333,96	300,00	3,176	84,483	-8,80370
334,96	300,00	3,175	84,471	-15,0220
335,96	300,00	3,175	84,452	-28,2711
336,96	300,00	3,174	84,439	-19,3886
337,96	300,00	3,173	84,422	-15,5463
338,96	300,00	3,173	84,401	-13,8453
339,96	300,00	3,172	84,391	0,825221
340,96	300,00	3,172	84,372	11,1416
341,96	300,00	3,171	84,362	17,8263
342,96	300,00	3,171	84,346	18,4375
343,96	300,00	3,170	84,333	5,10563
344,96	300,00	3,170	84,322	-9,68179
345,96	300,00	3,169	84,297	-8,78635
346,96	300,00	3,168	84,290	-14,4805
347,96	300,00	3,168	84,272	-14,3299
348,96	300,00	3,167	84,251	-13,5573
349,96	300,00	3,166	84,231	-16,0974
350,96	300,00	3,166	84,219	-17,0845
351,96	300,00	3,165	84,202	-12,2402
352,96	300,00	3,165	84,188	-13,9292
353,96	300,00	3,164	84,162	-6,25436
354,96	300,00	3,163	84,157	4,87406
355,96	300,00	3,163	84,140	13,0578
356,96	300,00	3,162	84,126	28,2124
357,96	300,00	3,162	84,113	38,9625
358,96	300,00	3,161	84,097	40,2043
359,96	300,00	3,160	84,075	39,7746
360,96	300,00	3,160	84,059	34,4827
361,96	300,00	3,159	84,049	25,8311
362,96	300,00	3,159	84,033	25,4618
363,96	300,00	3,159	84,035	-1,32392
364,96	300,00	3,158	84,002	-23,9142
365,96	300,00	3,157	83,987	-25,2646
366,96	300,00	3,157	83,977	-14,1623
367,96	300,00	3,156	83,947	-9,54451
368,96	300,00	3,155	83,943	-0,500183
369,96	300,00	3,155	83,933	-1,84591
370,96	300,00	3,154	83,910	-1,05016
371,96	300,00	3,154	83,905	13,2968
372,96	300,00	3,153	83,885	20,3853
373,96	300,00	3,152	83,859	29,0004
374,96	300,00	3,152	83,841	33,2872
375,96	300,00	3,151	83,837	32,2470
376,96	300,00	3,151	83,817	19,9007
377,96	300,00	3,151	83,818	2,28347
378,96	300,00	3,150	83,793	0,0587234
379,96	300,00	3,149	83,776	2,63606
380,96	300,00	3,148	83,757	-8,81953
381,96	300,00	3,148	83,745	-24,4575
382,96	300,00	3,148	83,734	-23,9128
383,96	300,00	3,147	83,716	-12,7395
384,96	300,00	3,146	83,700	-4,51211
385,96	300,00	3,146	83,681	6,28510
386,96	300,00	3,145	83,663	10,4134
387,96	300,00	3,145	83,656	2,91965
388,96	300,00	3,143	83,622	1,83038
389,96	300,00	3,143	83,623	3,59841
390,96	300,00	3,143	83,609	-0,189323
391,96	300,00	3,142	83,591	-0,438671
392,96	300,00	3,142	83,574	-1,46800
393,96	300,00	3,141	83,567	-8,89174
394,96	300,00	3,139	83,517	-13,5391
395,96	300,00	3,140	83,520	-10,9808
396,96	300,00	3,137	83,453	-9,07403
397,96	300,00	3,139	83,495	-16,0319
398,96	300,00	3,137	83,465	-13,2698
399,96	300,00	3,137	83,456	-3,62705
400,96	300,00	3,137	83,443	8,83271
401,96	300,00	3,136	83,431	23,5133
402,96	300,00	3,135	83,404	33,8012
403,96	300,00	3,135	83,392	35,2547
404,96	300,00	3,134	83,381	31,9781
405,96	300,00	3,134	83,365	29,6342
406,96	300,00	3,133	83,349	27,9663
407,96	300,00	3,132	83,331	21,5871
408,96	300,00	3,132	83,314	10,2901
409,96	300,00	3,131	83,301	-1,41092
410,96	300,00	3,131	83,284	-7,42127
411,96	300,00	3,130	83,272	-17,0065
412,96	300,00	3,129	83,247	-16,4752
413,96	300,00	3,129	83,235	-14,8881
414,96	300,00	3,128	83,214	-27,4901
415,96	300,00	3,127	83,195	-30,7682
416,96	300,00	3,127	83,179	-26,5491
417,96	300,00	3,127	83,174	-16,9545
418,96	300,00	3,125	83,141	5,81174
419,96	300,00	3,124	83,119	0,0596125
420,96	300,00	3,125	83,125	2,13152
421,96	300,00	3,124	83,099	-0,289111
422,96	300,00	3,123	83,073	10,0496
423,96	300,00	3,123	83,072	-4,13649
424,96	300,00	3,122	83,050	-22,4330
425,96	300,00	3,121	83,030	-33,6451
426,96	300,00	3,121	83,022	-34,9276
427,96	300,00	3,121	83,017	-24,4159
428,96	300,00	3,120	82,989	-18,9149
429,96	300,00	3,119	82,979	-14,2575
430,96	300,00	3,118	82,956	-3,86032
431,96	300,00	3,117	82,933	3,53959
432,96	300,00	3,117	82,918	5,51538
433,96	300,00	3,116	82,903	4,14041
434,96	300,00	3,116	82,884	3,93183
435,96	300,00	3,115	82,868	2,27390
436,96	300,00	3,114	82,836	-1,06157
437,96	300,00	3,113	82,822	8,45967
438,96	300,00	3,113	82,814	10,9009
439,96	300,00	3,112	82,801	22,9015
440,96	300,00	3,112	82,780	19,4881
441,96	300,00	3,111	82,763	8,38675
442,96	300,00	3,111	82,752	-4,63712
443,96	300,00	3,110	82,731	-20,0268
444,96	300,00	3,109	82,716	-7,17172
445,96	300,00	3,108	82,686	9,88529
446,96	300,00	3,108	82,685	14,1189
447,96	300,00	3,107	82,666	27,3647
448,96	300,00	3,107	82,653	23,6185
449,96	300,00	3,106	82,633	14,2781
450,96	300,00	3,106	82,624	11,7709
451,96	300,00	3,105	82,608	-5,95207
452,96	300,00	3,105	82,594	-22,8633
453,96	300,00	3,104	82,571	-29,9108
454,96	300,00	3,103	82,555	-21,6469
455,96	300,00	3,103	82,540	-21,2945
456,96	300,00	3,102	82,522	-0,880132
457,96	300,00	3,102	82,510	5,57260
458,96	300,00	3,101	82,490	7,42620
459,96	300,00	3,100	82,474	-0,456986
460,96	300,00	3,099	82,453	-10,0055
461,96	300,00	3,099	82,445	-6,37915
462,96	300,00	3,099	82,432	-6,33011
463,96	300,00	3,098	82,418	3,48654
464,96	300,00	3,097	82,395	12,8527
465,96	300,00	3,097	82,377	11,4384
466,96	300,00	3,096	82,367	8,97084
467,96	300,00	3,095	82,334	9,67930
468,96	300,00	3,095	82,331	-4,59442
469,96	300,00	3,095	82,332	-8,58174
470,96	300,00	3,093	82,289	-13,4782
471,96	300,00	3,093	82,295	-15,5082
472,96	300,00	3,093	82,273	-14,8496
473,96	300,00	3,092	82,257	5,90502
474,96	300,00	3,092	82,245	23,8385
475,96	300,00	3,091	82,231	29,3567
476,96	300,00	3,090	82,209	28,8905
477,96	300,00	3,090	82,197	31,2530
478,96	300,00	3,089	82,175	27,9751
479,96	300,00	3,089	82,165	3,31768
480,96	300,00	3,088	82,148	-9,64683
481,96	300,00	3,087	82,131	-14,3012
482,96	300,00	3,087	82,118	-15,6547
483,96	300,00	3,086	82,107	-11,4152
484,96	300,00	3,086	82,085	-5,99040
485,96	300,00	3,086	82,085	-5,19687
486,96	300,00	3,085	82,068	4,10034
487,96	300,00	3,084	82,042	3,40887
488,96	300,00	3,083	82,021	-0,235132
489,96	300,00	3,082	81,983	-2,18238
490,96	300,00	3,083	82,010	-2,24525
491,96	300,00	3,081	81,971	-5,69087
492,96	300,00	3,081	81,961	-5,53948
493,96	300,00	3,081	81,955	-1,24718
494,96	300,00	3,080	81,948	9,73557
495,96	300,00	3,080	81,924	19,4678
496,96	300,00	3,079	81,902	18,8617
497,96	300,00	3,078	81,891	17,9199
498,96	300,00	3,078	81,873	14,4645
499,96	300,00	3,077	81,868	13,0779
500,96	300,00	3,076	81,839	3,66891
501,96	300,00	3,076	81,827	-6,42081
502,96	300,00	3,075	81,807	-5,76808
503,96	300,00	3,075	81,797	2,57450
504,96	300,00	3,074	81,782	16,1100
505,96	300,00	3,073	81,763	22,7750
506,96	300,00	3,073	81,744	23,6341
507,96	300,00	3,072	81,730	13,4459
508,96	300,00	3,072	81,712	-1,30128
509,96	300,00	3,071	81,704	-10,4042
510,96	300,00	3,071	81,687	-19,2968
511,96	300,00	3,070	81,669	-21,2605
512,96	300,00	3,069	81,653	-19,3278
513,96	300,00	3,069	81,631	-18,7138
514,96	300,00	3,068	81,623	-10,8328
515,96	300,00	3,067	81,596	-6,92286
516,96	300,00	3,067	81,599	1,34469
517,96	300,00	3,067	81,578	-1,05262
518,96	300,00	3,066	81,552	-16,0041
519,96	300,00	3,065	81,546	-17,2193
520,96	300,00	3,065	81,535	-9,06799
521,96	300,00	3,064	81,517	3,61545
522,96	300,00	3,063	81,495	16,9044
523,96	300,00	3,063	81,479	20,5501
524,96	300,00	3,062	81,466	6,99588
525,96	300,00	3,061	81,443	-0,598892
526,96	300,00	3,061	81,431	-14,2121
527,96	300,00	3,060	81,416	-29,8428
528,96	300,00	3,060	81,402	-28,2320
529,96	300,00	3,059	81,387	-23,0877
530,96	300,00	3,059	81,374	-21,5171
531,96	300,00	3,058	81,354	-15,9841
532,96	300,00	3,057	81,336	-8,99916
533,96	300,00	3,057	81,321	1,51023
534,96	300,00	3,056	81,308	8,64409
535,96	300,00	3,056	81,295	5,58403
536,96	300,00	3,055	81,282	10,4438
537,96	300,00	3,055	81,267	26,2182
538,96	300,00	3,054	81,243	33,3774
539,96	300,00	3,053	81,222	38,1594
540,96	300,00	3,053	81,210	25,7377
541,96	300,00	3,052	81,199	17,5642
542,96	300,00	3,052	81,184	13,7342
543,96	300,00	3,051	81,164	8,84196
544,96	300,00	3,051	81,157	-8,46342
545,96	300,00	3,050	81,145	-16,1463
546,96	300,00	3,050	81,128	-13,8974
547,96	300,00	3,049	81,119	-21,0331
548,96	300,00	3,048	81,098	-27,7154
549,96	300,00	3,048	81,080	-33,2539
550,96	300,00	3,047	81,069	-36,5331
551,96	300,00	3,047	81,052	-39,7782
552,96	300,00	3,046	81,041	-41,1448
553,96	300,00	3,046	81,026	-40,0778
554,96	300,00	3,045	81,007	-37,8669
555,96	300,00	3,045	80,996	-27,8602
556,96	300,00	3,044	80,982	-23,0609
557,96	300,00	3,043	80,963	-26,6181
558,96	300,00	3,043	80,959	-33,6524
559,96	300,00	3,042	80,937	-35,5197
560,96	300,00	3,042	80,924	-34,2706
561,96	300,00	3,042	80,914	-27,8931
562,96	300,00	3,041	80,903	-20,1336
563,96	300,00	3,040	80,884	-15,9461
564,96	300,00	3,040	80,875	-17,7538
565,96	300,00	3,039	80,849	-24,8383
566,96	300,00	3,038	80,832	-27,6154
567,96	300,00	3,038	80,828	-31,3945
568,96	300,00	3,038	80,824	-34,7764
569,96	300,00	3,038	80,807	-32,1913
570,96	300,00	3,037	80,790	-28,1740
571,96	300,00	3,036	80,777	-22,8428
572,96	300,00	3,036	80,770	-19,2035
573,96	300,00	3,036	80,758	-17,1809
574,96	300,00	3,035	80,738	-14,9867
575,96	300,00	3,035	80,728	-19,3731
576,96	300,00	3,034	80,717	-23,2591
577,96	300,00	3,034	80,701	-22,4875
578,96	300,00	3,033	80,690	-10,7368
579,96	300,00	3,033	80,681	6,01581
580,96	300,00	3,032	80,668	14,5885
581,96	300,00	3,032	80,657	18,9053
582,96	300,00	3,032	80,647	18,3400
583,96	300,00	3,031	80,636	17,6294
584,96	300,00	3,031	80,620	13,9378
585,96	300,00	3,030	80,615	9,62041
586,96	300,00	3,030	80,596	8,57774
587,96	300,00	3,030	80,598	10,2517
588,96	300,00	3,029	80,576	11,4578
589,96	300,00	3,029	80,571	12,6206
590,96	300,00	3,028	80,547	13,5768
591,96	300,00	3,028	80,563	13,5775
592,96	300,00	3,028	80,555	13,3151
593,96	300,00	3,027	80,537	13,0741
594,96	300,00	3,027	80,521	12,8929
595,96	300,00	3,026	80,507	11,5457
596,96	300,00	3,026	80,503	12,1150
597,96	300,00	3,026	80,504	15,4841
598,96	300,00	3,025	80,479	17,5388
599,96	300,00	3,025	80,476	18,3107
600,96	300,00	3,025	80,465	16,9623
601,96	300,00	3,024	80,449	13,0934
602,96	300,00	3,024	80,439	4,75861
603,96	300,00	3,023	80,429	-8,94273
604,96	300,00	3,023	80,425	-19,9660
605,96	300,00	3,022	80,405	-26,5382
606,96	300,00	3,023	80,414	-28,7682
607,96	300,00	3,022	80,386	-28,4016
608,96	300,00	3,021	80,374	-26,5305
609,96	300,00	3,021	80,362	-25,4523
610,96	300,00	3,021	80,356	-25,1672
611,96	300,00	3,021	80,357	-25,5158
612,96	300,00	3,020	80,344	-30,2175
613,96	300,00	3,019	80,324	-31,8071
614,96	300,00	3,019	80,302	-32,3509
615,96	300,00	3,018	80,295	-32,8473
616,96	300,00	3,017	80,270	-34,5450
617,96	300,00	3,018	80,281	-28,0747
618,96	300,00	3,017	80,261	-18,9983
619,96	300,00	3,016	80,243	-1,53445
620,96	300,00	3,016	80,221	-1,93378
621,96	300,00	3,016	80,236	-2,66073
622,96	300,00	3,015	80,207	2,84738
623,96	300,00	3,015	80,195	0,254920
624,96	300,00	3,014	80,184	-2,71742
625,96	300,00	3,014	80,168	-0,114412
626,96	300,00	3,013	80,162	3,04786
627,96	300,00	3,013	80,151	4,70109
628,96	300,00	3,012	80,140	6,56719
629,96	300,00	3,012	80,126	6,07975
630,96	300,00	3,012	80,120	12,0730
631,96	300,00	3,011	80,100	14,8597
632,96	300,00	3,011	80,093	15,2077
633,96	300,00	3,010	80,082	16,5919
634,96	300,00	3,010	80,077	18,8203
635,96	300,00	3,009	80,054	20,1955
636,96	300,00	3,009	80,054	22,3166
637,96	300,00	3,010	80,064	22,7313
638,96	300,00	3,009	80,037	22,6622
639,96	300,00	3,008	80,019	21,4102
640,96	300,00	3,008	80,019	18,8061
641,96	300,00	3,007	79,985	12,5305
642,96	300,00	3,007	79,985	1,82120
643,96	300,00	3,006	79,979	-6,84436
644,96	300,00	3,006	79,965	-13,7207
645,96	300,00	3,005	79,944	-18,3286
646,96	300,00	3,005	79,942	-22,0474
647,96	300,00	3,004	79,926	-22,9777
648,96	300,00	3,004	79,912	-23,5671
649,96	300,00	3,003	79,897	-23,5633
650,96	300,00	3,003	79,883	-23,5460
651,96	300,00	3,003	79,876	-23,9949
652,96	300,00	3,002	79,856	-25,5193
653,96	300,00	3,001	79,846	-26,4768
654,96	300,00	3,001	79,830	-23,0801
655,96	300,00	3,000	79,821	-4,23720
656,96	300,00	3,000	79,804	14,2201
657,96	300,00	3,000	79,797	26,8686
658,96	300,00	2,999	79,782	28,2777
659,96	300,00	2,998	79,768	22,0779
660,96	300,00	2,998	79,754	10,9620
661,96	300,00	2,998	79,750	5,13190
662,96	300,00	2,997	79,725	6,41267
663,96	300,00	2,997	79,728	14,3729
664,96	300,00	2,996	79,711	14,4052
665,96	300,00	2,996	79,695	14,7687
666,96	300,00	2,995	79,676	13,8670
667,96	300,00	2,995	79,673	9,73477
668,96	300,00	2,995	79,662	2,55718
669,96	300,00	2,994	79,655	-2,57840
670,96	300,00	2,993	79,621	-9,17984
671,96	300,00	2,993	79,616	-7,96132
672,96	300,00	2,992	79,608	0,823656
673,96	300,00	2,992	79,596	16,1568
674,96	300,00	2,992	79,585	25,4510
675,96	300,00	2,991	79,578	29,7292
676,96	300,00	2,991	79,561	26,0204
677,96	300,00	2,990	79,549	21,6007
678,96	300,00	2,990	79,539	20,5024
679,96	300,00	2,990	79,532	17,4604
680,96	300,00	2,989	79,523	8,88062
681,96	300,00	2,989	79,504	-3,04169
682,96	300,00	2,988	79,496	-8,00702
683,96	300,00	2,988	79,483	-12,4434
684,96	300,00	2,987	79,473	-18,6818
685,96	300,00	2,987	79,470	-18,4559
686,96	300,00	2,986	79,444	-9,13016
687,96	300,00	2,987	79,453	-6,55418
688,96	300,00	2,986	79,428	-1,10735
689,96	300,00	2,985	79,402	-1,85566
690,96	300,00	2,985	79,401	4,90650
691,96	300,00	2,984	79,390	11,0130
692,96	300,00	2,984	79,378	18,9035
693,96	300,00	2,983	79,367	15,3968
694,96	300,00	2,983	79,359	9,86844
695,96	300,00	2,983	79,348	10,4643
696,96	300,00	2,982	79,329	8,96759
697,96	300,00	2,982	79,319	3,38904
698,96	300,00	2,981	79,309	-1,66347
699,96	300,00	2,981	79,301	-3,25025
700,96	300,00	2,980	79,288	-8,32580
701,96	300,00	2,980	79,274	-11,1737
702,96	300,00	2,979	79,254	-13,6594
703,96	300,00	2,980	79,264	-12,8713
704,96	300,00	2,978	79,230	-9,73634
705,96	300,00	2,978	79,232	-5,51413
706,96	300,00	2,978	79,216	-0,133213
707,96	300,00	2,977	79,202	12,5478
708,96	300,00	2,977	79,195	20,5154
709,96	300,00	2,977	79,187	22,6758
710,96	300,00	2,976	79,174	22,8035
711,96	300,00	2,976	79,165	22,8964
712,96	300,00	2,974	79,129	17,1833
713,96	300,00	2,975	79,149	8,97073
714,96	300,00	2,974	79,108	1,83954
715,96	300,00	2,974	79,108	-1,41611
716,96	299,99	2,973	79,095	-3,67964
717,96	300,00	2,973	79,084	-5,89616
718,96	300,00	2,972	79,069	-6,79383
719,96	300,00	2,972	79,060	-11,2227
720,96	300,00	2,971	79,045	-14,2368
721,96	300,00	2,971	79,026	-16,3364
722,96	300,00	2,970	79,016	-18,3723
723,96	300,00	2,970	79,006	-18,2483
724,96	300,00	2,969	78,991	-15,9771
725,96	300,00	2,969	78,978	-13,5550
726,96	300,00	2,968	78,960	-0,732206
727,96	300,00	2,968	78,953	20,1633
728,96	300,00	2,967	78,930	32,7420
729,96	300,00	2,967	78,935	32,6202
730,96	300,00	2,966	78,910	30,2408
731,96	300,00	2,966	78,896	16,6491
732,96	300,00	2,965	78,888	9,59960
733,96	300,00	2,965	78,867	1,28779
734,96	300,00	2,964	78,863	-6,71036
735,96	300,00	2,964	78,839	-6,33862
736,96	300,00	2,963	78,834	-10,7291
737,96	300,00	2,963	78,817	-10,2532
738,96	300,00	2,962	78,795	-13,4397
739,96	300,00	2,962	78,786	-16,2027
740,96	300,00	2,961	78,774	-13,5757
741,96	300,00	2,961	78,763	-9,51381
742,96	300,00	2,960	78,757	-9,03141
743,96	300,00	2,960	78,732	-2,57151
744,96	300,00	2,959	78,726	8,10799
745,96	300,00	2,959	78,713	12,6030
746,96	300,00	2,958	78,695	20,9331
747,96	300,00	2,958	78,686	27,4600
748,96	300,00	2,957	78,670	24,8493
749,96	300,00	2,957	78,655	26,8907
750,96	300,00	2,956	78,647	29,0362
751,96	300,00	2,956	78,632	19,8028
752,96	300,00	2,956	78,625	12,3902
753,96	300,00	2,955	78,602	-3,93268
754,96	300,00	2,954	78,592	-3,42361
755,96	300,00	2,954	78,578	-2,68386
756,96	300,00	2,954	78,573	0,476100
757,96	300,00	2,953	78,556	12,4793
758,96	300,00	2,952	78,537	20,3560
759,96	300,00	2,952	78,529	23,2794
760,96	300,00	2,951	78,515	23,9721
761,96	300,00	2,951	78,516	24,0980
762,96	300,00	2,951	78,502	23,4496
763,96	300,00	2,950	78,489	22,9053
764,96	300,00	2,950	78,471	23,0880
765,96	300,00	2,949	78,452	20,3748
766,96	300,00	2,949	78,443	18,7378
767,96	300,00	2,948	78,421	14,1486
768,96	300,00	2,948	78,424	6,39706
769,96	300,00	2,947	78,396	-2,20474
770,96	300,00	2,947	78,386	-18,1212
771,96	300,00	2,946	78,373	-25,6779
772,96	300,00	2,945	78,356	-27,0108
773,96	300,00	2,945	78,348	-28,7303
774,96	300,00	2,945	78,333	-27,9953
775,96	300,00	2,944	78,315	-27,4318
776,96	300,00	2,943	78,293	-26,9981
777,96	300,00	2,943	78,291	-27,6020
778,96	300,00	2,942	78,273	-27,9291
779,96	300,00	2,942	78,258	-26,1269
780,96	300,00	2,941	78,244	-21,5401
781,96	300,00	2,941	78,230	-13,8785
782,96	300,00	2,940	78,223	-5,38107
783,96	300,00	2,940	78,219	0,738464
784,96	300,00	2,939	78,185	1,74195
785,96	300,00	2,939	78,188	14,8526
786,96	300,00	2,938	78,156	27,9228
787,96	300,00	2,937	78,136	26,0311
788,96	300,00	2,937	78,134	23,2402
789,96	300,00	2,936	78,117	18,6232
790,96	300,00	2,936	78,100	19,2767
791,96	300,00	2,936	78,094	22,8793
792,96	300,00	2,935	78,083	34,5275
793,96	300,00	2,934	78,056	28,6985
794,96	300,00	2,934	78,049	26,8620
795,96	300,00	2,933	78,030	13,5670
796,96	300,00	2,933	78,021	10,3452
797,96	300,00	2,932	78,007	10,4874
798,96	300,00	2,932	77,996	19,0813
799,96	300,00	2,931	77,979	20,0543
800,96	300,00	2,931	77,972	22,5791
801,96	300,00	2,930	77,958	24,6168
802,96	300,00	2,929	77,932	33,1084
803,96	300,00	2,929	77,929	32,5224
804,96	300,00	2,929	77,920	32,1708
805,96	300,00	2,929	77,909	31,6396
806,96	300,00	2,928	77,893	26,3626
807,96	300,00	2,927	77,865	16,8642
808,96	300,00	2,926	77,853	7,67550
809,96	300,00	2,927	77,860	-0,141311
810,96	300,00	2,926	77,851	-7,75558
811,96	300,00	2,926	77,830	-13,3458
812,96	300,00	2,925	77,810	-19,1267
813,96	300,00	2,924	77,793	-22,2769
814,96	300,00	2,924	77,783	-24,4251
815,96	300,00	2,924	77,794	-21,4492
816,96	300,00	2,922	77,732	-19,3501
817,96	300,00	2,922	77,736	-17,1481
818,96	300,00	2,922	77,727	-14,2696
819,96	300,00	2,921	77,716	-11,0248
820,96	300,00	2,921	77,702	-5,52244
821,96	300,00	2,920	77,690	3,57750
822,96	300,00	2,920	77,678	6,87908
823,96	300,00	2,919	77,662	8,33190
824,96	300,00	2,919	77,646	9,10007
825,96	300,00	2,918	77,637	10,5001
826,96	300,00	2,918	77,617	14,2326
827,96	300,00	2,917	77,608	15,4401
828,96	300,00	2,917	77,594	12,4590
829,96	300,00	2,916	77,580	8,04871
830,96	300,00	2,915	77,560	8,96285
831,96	300,00	2,915	77,556	6,96486
832,96	300,00	2,914	77,531	6,54267
833,96	300,00	2,915	77,535	12,5073
834,96	300,00	2,913	77,507	16,0985
835,96	300,00	2,914	77,519	14,6414
836,96	300,00	2,912	77,469	13,3635
837,96	300,00	2,912	77,473	11,1841
838,96	300,00	2,912	77,459	9,40437
839,96	300,00	2,912	77,456	6,64152
840,96	300,00	2,911	77,435	1,70296
841,96	300,00	2,911	77,437	-1,23288
842,96	300,00	2,910	77,413	-2,68043
843,96	300,00	2,909	77,398	-1,28276
844,96	300,00	2,909	77,384	5,15114
845,96	300,00	2,908	77,367	6,27334
846,96	300,00	2,908	77,351	10,0804
847,96	300,00	2,908	77,348	14,1617
848,96	300,00	2,907	77,347	2,61349
849,96	300,00	2,905	77,290	-3,70994
850,96	300,00	2,906	77,306	1,32448
851,96	300,00	2,906	77,306	1,40452
852,96	300,00	2,905	77,287	-0,181580
853,96	300,00	2,905	77,269	5,47890
854,96	300,00	2,904	77,266	6,34470
855,96	300,00	2,903	77,237	3,71206
856,96	300,00	2,903	77,227	-1,04087
857,96	300,00	2,903	77,215	-2,39287
858,96	300,00	2,902	77,193	-3,46162
859,96	300,00	2,902	77,193	-6,36747
860,96	300,00	2,901	77,186	-16,4817
861,96	300,00	2,901	77,168	-8,42074
862,96	300,00	2,900	77,159	-3,81756
863,96	300,00	2,900	77,145	8,49338
864,96	300,00	2,900	77,140	8,98456
865,96	300,00	2,899	77,110	8,61001
866,96	300,00	2,898	77,100	11,4145
867,96	300,00	2,898	77,090	13,6704
868,96	300,00	2,897	77,079	15,1853
869,96	300,00	2,897	77,065	13,0061
870,96	300,00	2,897	77,056	10,6504
871,96	300,00	2,896	77,039	7,80949
872,96	300,00	2,896	77,031	-2,10527
873,96	300,00	2,895	77,012	-12,6816
874,96	300,00	2,895	77,004	-18,1661
875,96	300,00	2,894	76,989	-24,1498
876,96	300,00	2,894	76,979	-28,6740
877,96	300,00	2,893	76,966	-35,7174
878,96	300,00	2,892	76,946	-35,5241
879,96	300,00	2,892	76,938	-34,0515
880,96	300,00	2,892	76,931	-26,5415
881,96	300,00	2,891	76,908	-10,3952
882,96	300,00	2,890	76,893	12,1313
883,96	300,00	2,889	76,866	23,5466
884,96	300,00	2,890	76,884	29,0132
885,96	300,00	2,889	76,856	38,4801
886,96	300,00	2,889	76,847	31,2797
887,96	300,00	2,888	76,834	25,9454
888,96	300,00	2,889	76,844	28,2119
889,96	300,00	2,888	76,817	22,0497
890,96	300,00	2,887	76,808	13,0583
891,96	300,00	2,886	76,787	5,21663
892,96	300,00	2,886	76,769	-2,57589
893,96	300,00	2,885	76,758	-4,38933
894,96	300,00	2,885	76,744	-3,81839
895,96	300,00	2,884	76,734	-10,0047
896,96	300,00	2,884	76,719	-10,8282
897,96	300,00	2,884	76,711	-9,92773
898,96	300,00	2,883	76,695	-4,19271
899,96	300,00	2,882	76,667	5,68868
900,96	300,00	2,882	76,666	10,2730
901,96	300,00	2,881	76,656	11,5958
902,96	300,00	2,881	76,641	13,8496
903,96	300,00	2,880	76,629	9,03619
904,96	300,00	2,880	76,618	16,9646
905,96	300,00	2,880	76,609	35,9541
906,96	300,00	2,879	76,594	39,0710
907,96	300,00	2,879	76,577	38,9746
908,96	300,00	2,878	76,570	18,3445
909,96	300,00	2,878	76,575	2,06545
910,96	300,00	2,877	76,539	-3,93516
911,96	300,00	2,877	76,525	-11,9316
912,96	300,00	2,876	76,517	-15,3266
913,96	300,00	2,876	76,497	-16,2909
914,96	300,00	2,875	76,485	-19,7674
915,96	300,00	2,875	76,472	-23,6298
916,96	300,00	2,874	76,465	-19,1133
917,96	300,00	2,874	76,444	-15,1783
918,96	300,00	2,873	76,437	-17,1838
919,96	300,00	2,873	76,424	-18,3664
920,96	300,00	2,872	76,408	-13,6968
921,96	300,00	2,872	76,397	3,72255
922,96	300,00	2,871	76,388	12,7903
923,96	300,00	2,871	76,377	22,2010
924,96	300,00	2,871	76,379	28,4974
925,96	300,00	2,870	76,343	25,4231
926,96	300,00	2,869	76,330	12,3644
927,96	300,00	2,869	76,321	11,9370
928,96	300,00	2,868	76,299	1,77688
929,96	300,00	2,868	76,286	6,98188
930,96	300,00	2,868	76,292	6,31726
931,96	300,00	2,867	76,258	-8,76700
932,96	300,00	2,867	76,269	-16,7303
933,96	300,00	2,866	76,250	-11,9344
934,96	300,00	2,865	76,228	-7,86705
935,96	300,00	2,865	76,210	-7,70258
936,96	300,00	2,864	76,202	-5,89293
937,96	300,00	2,864	76,198	4,86600
938,96	300,00	2,863	76,161	21,9058
939,96	300,00	2,863	76,164	25,9878
940,96	300,00	2,862	76,149	20,1831
941,96	300,00	2,862	76,133	21,4627
942,96	300,00	2,861	76,122	15,0265
943,96	300,00	2,861	76,106	-1,90965
944,96	300,00	2,860	76,095	-4,50361
945,96	300,00	2,860	76,077	-12,8240
946,96	300,00	2,859	76,070	-16,9690
947,96	300,00	2,859	76,048	-18,6101
948,96	300,00	2,858	76,044	-34,1375
949,96	300,00	2,858	76,032	-37,1467
950,96	300,00	2,858	76,018	-24,0395
951,96	300,00	2,857	76,001	-9,65204
952,96	300,00	2,856	75,984	-2,75984
953,96	300,00	2,856	75,974	6,68749
954,96	300,00	2,855	75,956	8,93574
955,96	300,00	2,855	75,956	10,6421
956,96	300,00	2,855	75,938	14,1578
957,96	300,00	2,854	75,920	18,6785
958,96	300,00	2,854	75,919	24,5506
959,96	300,00	2,853	75,900	25,3332
960,96	300,00	2,853	75,885	20,6548
961,96	300,00	2,852	75,867	17,4913
962,96	300,00	2,852	75,871	12,9725
963,96	300,00	2,851	75,849	4,82098
964,96	300,00	2,851	75,835	-5,22226
965,96	300,00	2,850	75,821	-16,1886
966,96	300,00	2,850	75,807	-22,5260
967,96	300,00	2,849	75,794	-20,4868
968,96	300,00	2,849	75,785	-11,4501
969,96	300,00	2,848	75,772	-6,53523
970,96	300,00	2,848	75,758	-3,25831
971,96	300,00	2,847	75,743	-14,1187
972,96	300,00	2,846	75,721	-22,1230
973,96	300,00	2,846	75,712	-21,1250
974,96	300,00	2,846	75,702	-10,7095
975,96	300,00	2,845	75,687	-1,69129
976,96	300,00	2,845	75,684	-0,345031
977,96	300,00	2,844	75,667	-20,2145
978,96	300,00	2,843	75,639	-22,4564
979,96	300,00	2,843	75,634	-10,0523
980,96	300,00	2,843	75,621	10,7036
981,96	300,00	2,842	75,611	13,4255
982,96	300,00	2,842	75,602	14,2444
983,96	300,00	2,841	75,587	17,2748
984,96	300,00	2,841	75,569	13,4059
985,96	300,00	2,840	75,559	12,9244
986,96	300,00	2,840	75,549	16,5168
987,96	300,00	2,840	75,552	22,4075
988,96	300,00	2,839	75,517	19,0951
989,96	300,00	2,838	75,506	13,4441
990,96	300,00	2,838	75,491	8,65963
991,96	300,00	2,837	75,481	4,49798
992,96	300,00	2,837	75,464	-1,69337
993,96	300,00	2,836	75,449	-6,65495
994,96	300,00	2,836	75,444	-15,1518
995,96	300,00	2,835	75,429	-19,4280
996,96	300,00	2,835	75,417	-19,6081
997,96	300,00	2,835	75,407	-16,4501
998,96	300,00	2,834	75,385	-15,1869
999,96	300,00	2,833	75,374	-11,4239
1000,96	300,00	2,832	75,352	2,35333
1001,96	300,00	2,832	75,351	1,68363
1002,96	300,00	2,832	75,339	-3,43982
1003,96	300,00	2,832	75,328	5,11576
1004,96	300,00	2,831	75,318	28,0921
1005,96	300,00	2,831	75,305	32,4151
1006,96	300,00	2,830	75,283	24,8044
1007,96	300,00	2,829	75,268	10,7542
1008,96	300,00	2,829	75,257	3,46960
1009,96	300,00	2,828	75,242	-9,73701
1010,96	300,00	2,828	75,223	-20,8154
1011,96	300,00	2,827	75,211	-26,6185
1012,96	300,00	2,827	75,202	-25,8113
1013,96	300,00	2,826	75,189	-31,8859
1014,96	300,00	2,826	75,174	-19,8909
1015,96	300,00	2,825	75,161	-20,3757
1016,96	300,00	2,825	75,149	-20,2191
1017,96	300,00	2,824	75,134	-4,08594
1018,96	300,00	2,824	75,124	7,46080
1019,96	300,00	2,823	75,105	12,9487
1020,96	300,00	2,823	75,099	18,7482
1021,96	300,00	2,823	75,090	17,9874
1022,96	300,00	2,822	75,072	15,7267
1023,96	300,00	2,821	75,058	5,88981
1024,96	300,00	2,820	75,029	8,24312
1025,96	300,00	2,820	75,026	15,8249
1026,96	300,00	2,820	75,012	18,0385
1027,96	300,00	2,819	75,007	18,9794
1028,96	300,00	2,819	74,995	18,9068
1029,96	300,00	2,819	74,983	17,1409
1030,96	300,00	2,818	74,955	15,2537
1031,96	300,00	2,818	74,957	13,5781
1032,96	300,00	2,817	74,940	2,97452
1033,96	300,00	2,816	74,924	-4,51563
1034,96	300,00	2,816	74,905	-9,28790
1035,96	300,00	2,815	74,891	-8,16878
1036,96	300,00	2,815	74,882	-8,07691
1037,96	300,00	2,814	74,873	-6,86113
1038,96	300,00	2,814	74,858	-8,04321
1039,96	300,00	2,814	74,847	-10,8076
1040,96	300,00	2,813	74,836	-18,7892
1041,96	300,00	2,813	74,824	-18,2896
1042,96	300,00	2,812	74,801	-15,3445
1043,96	300,00	2,812	74,796	-9,49702
1044,96	300,00	2,811	74,789	1,51028
1045,96	300,00	2,811	74,778	20,2011
1046,96	300,00	2,810	74,754	30,6928
1047,96	300,00	2,809	74,739	37,2467
1048,96	300,00	2,809	74,725	30,7695
1049,96	300,00	2,808	74,713	25,6876
1050,96	300,00	2,808	74,713	12,1892
1051,96	300,00	2,808	74,689	-3,22129
1052,96	300,00	2,807	74,662	-9,29027
1053,96	300,00	2,806	74,658	-5,34620
1054,96	300,00	2,806	74,641	-0,700928
1055,96	300,00	2,805	74,625	8,55697
1056,96	300,00	2,805	74,620	18,2706
1057,96	300,00	2,804	74,606	-0,523425
1058,96	300,00	2,804	74,584	2,94529
1059,96	300,00	2,803	74,578	-4,15382
1060,96	300,00	2,803	74,567	-9,90074
1061,96	300,00	2,802	74,552	-6,60312
1062,96	300,00	2,802	74,536	2,09216
1063,96	300,00	2,801	74,527	1,60802
1064,96	300,00	2,801	74,511	-0,930104
1065,96	300,00	2,801	74,504	-2,66160
1066,96	300,00	2,800	74,491	5,89258
1067,96	300,00	2,799	74,472	10,0202
1068,96	300,00	2,799	74,463	9,69228
1069,96	300,00	2,799	74,458	14,7507
1070,96	300,00	2,798	74,437	18,9715
1071,96	300,00	2,797	74,419	16,4357
1072,96	300,00	2,797	74,406	17,6732
1073,96	300,00	2,796	74,391	17,3089
1074,96	300,00	2,796	74,388	11,3466
1075,96	300,00	2,795	74,362	12,0850
1076,96	300,00	2,796	74,369	2,63467
1077,96	300,00	2,794	74,332	-3,45767
1078,96	300,00	2,794	74,327	4,18383
1079,96	300,00	2,793	74,297	5,28808
1080,96	300,00	2,793	74,298	-2,44052
1081,96	300,00	2,792	74,287	-0,270857
1082,96	300,00	2,792	74,273	-4,42084
1083,96	300,00	2,792	74,280	-1,38161
1084,96	300,00	2,790	74,223	-0,905158
1085,96	300,00	2,790	74,228	-3,03014
1086,96	300,00	2,790	74,219	-7,68726
1087,96	300,00	2,790	74,210	-11,3300
1088,96	300,00	2,789	74,193	-22,3073
1089,96	300,00	2,788	74,175	-22,9757
1090,96	300,00	2,788	74,160	-18,4904
1091,96	300,00	2,787	74,149	-18,2403
1092,96	300,00	2,787	74,134	-10,8155
1093,96	300,00	2,786	74,114	-15,3023
1094,96	300,00	2,785	74,097	-13,3419
1095,96	300,00	2,785	74,090	-14,1690
1096,96	300,00	2,784	74,075	-18,5727
1097,96	300,00	2,783	74,049	-15,3286
1098,96	300,00	2,783	74,024	-4,04353
1099,96	300,00	2,783	74,045	-6,43633
1100,96	300,00	2,783	74,041	-14,9583
1101,96	300,00	2,782	74,015	-20,0398
1102,96	300,00	2,782	74,012	-25,9739
1103,96	300,00	2,781	73,974	-32,4394
1104,96	300,00	2,780	73,968	-32,6034
1105,96	300,00	2,780	73,948	-32,8839
1106,96	300,00	2,779	73,931	-26,3043
1107,96	300,00	2,778	73,913	-14,5816
1108,96	300,00	2,778	73,894	-0,865050
1109,96	300,00	2,778	73,911	24,2372
1110,96	300,00	2,777	73,879	36,4131
1111,96	300,00	2,777	73,868	34,5192
1112,96	300,00	2,776	73,850	23,9519
1113,96	300,00	2,776	73,840	13,4518
1114,96	300,00	2,775	73,828	6,06900
1115,96	300,00	2,775	73,810	15,5103
1116,96	300,00	2,774	73,794	4,32101
1117,96	300,00	2,773	73,780	-7,38072
1118,96	300,00	2,773	73,756	-10,4500
1119,96	300,00	2,773	73,759	-5,94959
1120,96	300,00	2,772	73,745	2,63354
1121,96	300,00	2,771	73,728	8,29866
1122,96	300,00	2,771	73,726	13,0774
1123,96	300,00	2,770	73,701	10,8422
1124,96	300,00	2,770	73,689	8,90338
1125,96	300,00	2,769	73,669	4,29526
1126,96	300,00	2,770	73,680	0,0239278
1127,96	300,00	2,769	73,668	4,66356
1128,96	300,00	2,768	73,649	3,84100
1129,96	300,00	2,768	73,625	4,65841
1130,96	300,00	2,767	73,614	7,45324
1131,96	300,00	2,767	73,604	5,26678
1132,96	300,00	2,766	73,590	8,12372
1133,96	300,00	2,765	73,551	3,49205
1134,96	300,00	2,765	73,563	-0,161589
1135,96	300,00	2,765	73,548	-2,24061
1136,96	300,00	2,764	73,537	2,12762
1137,96	300,00	2,764	73,524	4,90780
1138,96	300,00	2,763	73,509	8,11844
1139,96	300,00	2,763	73,496	14,0281
1140,96	300,00	2,762	73,482	12,2079
1141,96	300,00	2,762	73,485	7,03072
1142,96	300,00	2,761	73,456	-1,08936
1143,96	300,00	2,761	73,444	-15,9548
1144,96	300,00	2,760	73,428	-24,1726
1145,96	300,00	2,760	73,416	-6,88189
1146,96	300,00	2,759	73,407	3,29131
1147,96	300,00	2,758	73,379	18,4384
1148,96	300,00	2,757	73,356	16,5359
1149,96	300,00	2,758	73,374	7,83688
1150,96	300,00	2,757	73,355	1,08090
1151,96	300,00	2,757	73,341	-7,87066
1152,96	300,00	2,756	73,324	-10,1425
1153,96	300,00	2,755	73,304	-7,43188
1154,96	300,00	2,755	73,292	-6,39447
1155,96	300,00	2,755	73,278	-0,0364701
1156,96	300,00	2,754	73,269	-1,21720
1157,96	300,00	2,754	73,252	-1,79759
1158,96	300,00	2,753	73,239	-3,06290
1159,96	300,00	2,753	73,226	-3,36390
1160,96	300,00	2,752	73,216	-8,35207
1161,96	300,00	2,752	73,202	-9,28082
1162,96	300,00	2,751	73,188	-8,96939
1163,96	300,00	2,751	73,174	-7,71553
1164,96	300,00	2,750	73,158	-5,85956
1165,96	300,00	2,750	73,148	-7,18280
1166,96	300,00	2,749	73,137	-13,8788
1167,96	300,00	2,748	73,098	-18,6052
1168,96	300,00	2,748	73,107	-20,1907
1169,96	300,00	2,748	73,096	-19,1355
1170,96	300,00	2,747	73,072	-10,3356
1171,96	300,00	2,746	73,051	-2,72785
1172,96	300,00	2,746	73,063	12,2717
1173,96	300,00	2,746	73,050	15,1138
1174,96	300,00	2,745	73,031	15,8810
1175,96	300,00	2,745	73,017	22,2139
1176,96	300,00	2,745	73,013	26,9482
1177,96	300,00	2,744	72,991	27,0383
1178,96	300,00	2,743	72,980	24,8630
1179,96	300,00	2,743	72,968	19,8343
1180,96	300,00	2,742	72,948	7,35415
1181,96	300,00	2,742	72,953	-4,84430
1182,96	300,00	2,742	72,933	-12,3388
1183,96	300,00	2,741	72,919	-14,4510
1184,96	300,00	2,740	72,904	-6,35540
1185,96	300,00	2,740	72,891	0,892450
1186,96	300,00	2,740	72,881	7,38325
1187,96	300,00	2,739	72,870	16,0299
1188,96	300,00	2,739	72,856	11,5547
1189,96	300,00	2,738	72,843	7,36967
1190,96	300,00	2,738	72,850	2,88920
1191,96	300,00	2,737	72,800	0,670575
1192,96	300,00	2,737	72,808	5,37720
1193,96	300,00	2,736	72,797	13,0566
1194,96	300,00	2,736	72,782	13,1650
1195,96	300,00	2,735	72,767	15,9199
1196,96	300,00	2,735	72,749	12,2956
1197,96	300,00	2,735	72,748	1,73561
1198,96	300,00	2,734	72,740	-15,2001
1199,96	300,00	2,734	72,725	-24,2984
1200,96	300,00	2,733	72,719	-25,3821
1201,96	300,00	2,732	72,690	-24,2022
1202,96	300,00	2,732	72,675	-12,0777
1203,96	300,00	2,731	72,664	-0,305073
1204,96	300,00	2,731	72,660	5,85164
1205,96	300,00	2,730	72,638	2,49377
1206,96	300,00	2,730	72,631	-7,36469
1207,96	300,00	2,729	72,612	-9,14246
1208,96	300,00	2,729	72,597	-6,93964
1209,96	300,00	2,728	72,586	-8,01105
1210,96	300,00	2,728	72,571	3,86979
1211,96	300,00	2,728	72,560	11,9082
1212,96	300,00	2,727	72,544	11,0538
1213,96	300,00	2,726	72,530	8,54279
1214,96	300,00	2,726	72,517	-5,16201
1215,96	300,00	2,726	72,509	-16,6293
1216,96	300,00	2,725	72,489	-23,6556
1217,96	300,00	2,725	72,480	-31,5135
1218,96	300,00	2,724	72,469	-29,5252
1219,96	300,00	2,723	72,452	-17,5058
1220,96	300,00	2,723	72,436	-10,2998
1221,96	300,00	2,723	72,435	3,52084
1222,96	300,00	2,722	72,425	6,59089
1223,96	300,00	2,721	72,394	4,46827
1224,96	300,00	2,720	72,371	1,01149
1225,96	300,00	2,721	72,388	3,27302
1226,96	300,00	2,720	72,361	7,50685
1227,96	300,00	2,719	72,345	19,5280
1228,96	300,00	2,719	72,331	26,4026
1229,96	300,00	2,718	72,315	27,5510
1230,96	300,00	2,718	72,309	28,1367
1231,96	300,00	2,718	72,294	24,6569
1232,96	300,00	2,717	72,279	25,8679
1233,96	300,00	2,717	72,270	23,3172
1234,96	300,00	2,716	72,258	17,5650
1235,96	300,00	2,716	72,246	11,1722
1236,96	300,00	2,715	72,227	10,9568
1237,96	300,00	2,715	72,215	5,10392
1238,96	300,00	2,714	72,205	10,6231
1239,96	300,00	2,714	72,192	12,3656
1240,96	300,00	2,713	72,166	0,885687
1241,96	300,00	2,713	72,167	-12,0708
1242,96	300,00	2,712	72,150	-15,2885
1243,96	300,00	2,712	72,142	-12,5497
1244,96	300,00	2,711	72,125	-4,39466
1245,96	300,00	2,711	72,111	4,99893
1246,96	300,00	2,710	72,087	-0,985785
1247,96	300,00	2,709	72,075	-7,95308
1248,96	300,00	2,709	72,075	-15,9204
1249,96	300,00	2,709	72,062	-15,5517
1250,96	300,00	2,708	72,047	-17,8692
1251,96	300,00	2,708	72,034	-22,3406
1252,96	300,00	2,707	72,016	-27,1384
1253,96	300,00	2,706	71,997	-29,5375
1254,96	300,00	2,706	72,000	-32,5170
1255,96	300,00	2,705	71,970	-31,1255
1256,96	300,00	2,705	71,961	-0,181915
1257,96	300,00	2,704	71,947	-0,0201585
1258,96	300,00	2,704	71,934	-8,66079e-3
1259,96	300,00	2,703	71,919	-6,18118e-3
1260,96	300,00	2,703	71,906	-5,76940e-3
1261,96	300,00	2,702	71,891	-6,33261e-3
1262,96	300,00	2,702	71,876	-7,95438e-3
1263,96	300,00	2,701	71,858	-0,0107793
1264,96	300,17	2,702	71,872	-0,0155954
1265,96	304,02	2,702	71,874	-0,0234083
1266,96	311,97	2,701	71,859	-0,0360174
1267,96	321,00	2,700	71,823	-0,0560416
1268,96	330,27	2,697	71,758	-0,0870860
1269,96	339,78	2,693	71,636	-0,133237
1270,96	349,59	2,685	71,430	-0,196156
1271,96	359,64	2,670	71,026	-0,270706
1272,96	369,82	2,642	70,281	-0,348071
1273,96	380,03	2,592	68,965	-0,422022
1274,96	390,21	2,502	66,555	-0,486540
1275,96	400,34	2,344	62,363	-0,535995
1276,96	410,41	2,083	55,402	-0,568704
1277,96	420,46	1,681	44,729	-0,584635
1278,96	430,48	1,160	30,871	-0,583718
1279,96	440,51	0,660	17,550	-0,565756
1280,96	450,54	0,310	8,234	-0,530791
1281,96	460,56	0,127	3,381	-0,479584
1282,96	470,58	0,053	1,415	-0,413750
1283,96	480,61	0,033	0,881	-0,336365
1284,96	490,66	0,030	0,807	-0,252447
1285,96	500,70	0,030	0,801	-0,169748
1286,96	510,73	0,030	0,797	-0,0985312
1287,96	520,75	0,030	0,789	-0,0478531
1288,96	530,78	0,030	0,785	-0,0189841
1289,96	540,80	0,029	0,778	-5,96907e-3
1290,96	550,83	0,030	0,785	-1,38904e-3
1291,96	560,85	0,029	0,778	-2,61287e-4
1292,96	570,88	0,029	0,767	-6,25572e-5
1293,96	580,90	0,029	0,773	9,33404e-6
1294,96	590,93	0,029	0,779	7,91165e-5
1295,96	600,94	0,029	0,783	1,43505e-4
1296,96	610,96	0,029	0,778	1,97383e-4
1297,96	620,98	0,029	0,778	2,53709e-4
1298,96	631,00	0,029	0,785	2,87559e-4
1299,96	641,02	0,030	0,791	3,38077e-4
1300,96	651,04	0,030	0,800	3,87046e-4
1301,96	661,06	0,030	0,806	4,41735e-4
1302,96	671,07	0,030	0,804	4,90752e-4
1303,96	681,09	0,030	0,809	5,35406e-4
1304,96	691,11	0,031	0,812	5,84251e-4
1305,96	701,12	0,031	0,819	6,37345e-4
1306,96	711,14	0,031	0,825	6,57823e-4
1307,96	721,15	0,031	0,824	6,84428e-4
1308,96	731,17	0,032	0,844	7,02856e-4
1309,96	741,18	0,032	0,853	7,35853e-4
1310,96	751,19	0,032	0,854	7,70780e-4
1311,96	761,21	0,033	0,875	8,25432e-4
1312,96	771,22	0,033	0,877	8,94952e-4
1313,96	781,23	0,033	0,890	9,12732e-4
1314,54	787,07	0,034	0,905	9,37188e-4