File: data/TGA/005d-L_M/L1_000001 -temp_104 AMU_XIC
Time	Ion Current
min	mA
0.00	6.96279e-5
0.97	4.41402e-5
1.94	1.00000e-13
2.91	1.00000e-13
3.88	1.00000e-13
4.85	1.00000e-13
5.82	1.00000e-13
6.79	2.08536e-6
7.76	1.00000e-13
8.73	1.00000e-13
9.70	1.00000e-13
10.67	1.00000e-13
11.64	1.00000e-13
12.61	1.00000e-13
13.58	3.93902e-6
14.55	1.00000e-13
15.52	1.00000e-13
16.49	1.00000e-13
17.46	1.00000e-13
18.43	1.00000e-13
19.40	1.00000e-13
20.37	1.00000e-13
21.34	1.00000e-13
22.31	1.00000e-13
23.28	1.00000e-13
24.25	1.00000e-13
25.22	1.00000e-13
26.19	1.15853e-6
27.16	1.00000e-13
28.13	1.00000e-13
29.10	1.00000e-13
30.07	1.00000e-13
31.04	1.00000e-13
32.01	8.10974e-6
32.98	1.00000e-13
33.95	1.00000e-13
34.92	1.00000e-13
35.89	1.00000e-13
36.86	1.00000e-13
37.83	1.00000e-13
38.80	1.00000e-13
39.77	1.00000e-13
40.74	1.00000e-13
41.71	1.00000e-13
42.67	1.00000e-13
43.64	1.00000e-13
44.61	1.00000e-13
45.58	9.84755e-6
46.55	1.00000e-13
47.53	1.00000e-13
48.49	1.00000e-13
49.46	1.00000e-13
50.44	1.00000e-13
51.41	1.00000e-13
52.37	1.00000e-13
53.34	1.00000e-13
54.31	1.00000e-13
55.28	1.00000e-13
56.25	1.00000e-13
57.22	1.00000e-13
58.19	1.00000e-13
59.16	1.00000e-13
60.14	1.00000e-13
61.10	1.00000e-13
62.07	1.00000e-13
63.05	1.00000e-13
64.01	1.00000e-13
64.98	1.00000e-13
65.95	1.00000e-13
66.92	1.00000e-13
67.90	1.00000e-13
68.86	1.00000e-13
69.83	1.00000e-13
70.80	1.00000e-13
71.77	1.00000e-13
72.74	1.00000e-13
73.71	1.00000e-13
74.68	1.00000e-13
75.65	1.00000e-13
76.62	1.00000e-13
77.59	1.00000e-13
78.56	1.00000e-13
79.53	3.24390e-5
80.50	1.00000e-13
81.47	1.00000e-13
82.44	1.00000e-13
83.41	1.00000e-13
84.38	1.00000e-13
85.35	1.00000e-13
86.32	1.00000e-13
87.29	1.00000e-13
88.26	1.00000e-13
89.23	1.00000e-13
90.20	5.56097e-6
91.17	1.00000e-13
92.14	3.82316e-6
93.11	1.00000e-13
94.08	5.56097e-6
95.05	1.00000e-13
96.02	1.00000e-13
96.99	1.00000e-13
97.96	1.00000e-13
98.93	1.00000e-13
99.90	1.00000e-13
100.87	1.00000e-13
101.84	1.00000e-13
102.81	1.00000e-13
103.78	2.31707e-6
104.75	1.00000e-13
105.72	1.00000e-13
106.69	1.00000e-13
107.66	1.00000e-13
108.63	1.00000e-13
109.60	1.00000e-13
110.57	1.00000e-13
111.54	1.00000e-13
112.51	1.00000e-13
113.48	1.00000e-13
114.45	1.00000e-13
115.42	1.00000e-13
116.39	1.00000e-13
117.36	1.00000e-13
118.33	1.00000e-13
119.30	1.00000e-13
120.27	1.00000e-13
121.24	1.00000e-13
122.21	1.00000e-13
123.18	1.00000e-13
124.15	1.04268e-5
125.12	1.00000e-13
126.09	1.15853e-7
127.06	1.01951e-5
128.03	1.00000e-13
129.00	1.00000e-13
129.97	1.00000e-13
130.94	1.00000e-13
131.91	1.00000e-13
132.88	1.00000e-13
133.85	1.00000e-13
134.82	1.00000e-13
135.79	1.00000e-13
136.76	1.00000e-13
137.73	1.00000e-13
138.70	1.00000e-13
139.67	1.00000e-13
140.64	1.00000e-13
141.61	1.00000e-13
142.58	1.00000e-13
143.55	7.06706e-6
144.51	1.00000e-13
145.49	1.00000e-13
146.46	1.00000e-13
147.43	1.00000e-13
148.39	1.00000e-13
149.36	1.00000e-13
150.34	1.00000e-13
151.30	1.52927e-5
152.27	1.93475e-5
153.25	1.00000e-13
154.22	1.00000e-13
155.19	1.00000e-13
156.16	1.00000e-13
157.13	1.00000e-13
158.09	1.00000e-13
159.06	1.00000e-13
160.03	1.00000e-13
161.00	1.00000e-13
161.97	1.00000e-13
162.95	1.00000e-13
163.91	1.00000e-13
164.88	1.00000e-13
165.85	1.00000e-13
166.82	1.00000e-13
167.79	1.00000e-13
168.76	1.00000e-13
169.74	1.00000e-13
170.70	1.00000e-13
171.67	1.00000e-13
172.64	1.00000e-13
173.62	1.00000e-13
174.58	1.00000e-13
175.55	1.00000e-13
176.52	1.00000e-13
177.49	1.00000e-13
178.46	1.00000e-13
179.43	1.00000e-13
180.40	1.00000e-13
181.37	1.00000e-13
182.35	1.00000e-13
183.31	1.00000e-13
184.28	1.00000e-13
185.25	1.00000e-13
186.22	1.00000e-13
187.19	1.00000e-13
188.16	1.00000e-13
189.13	1.00000e-13
190.10	1.00000e-13
191.07	1.00000e-13
192.04	1.00000e-13
193.01	1.62195e-6
193.98	1.00000e-13
194.95	1.00000e-13
195.92	1.00000e-13
196.89	1.00000e-13
197.86	1.00000e-13
198.83	1.00000e-13
199.80	1.00000e-13
200.77	1.00000e-13
201.74	1.00000e-13
202.71	1.00000e-13
203.68	1.00000e-13
204.65	1.00000e-13
205.62	1.00000e-13
206.59	1.00000e-13
207.56	1.00000e-13
208.53	1.00000e-13
209.50	1.00000e-13
210.47	1.00000e-13
211.44	1.00000e-13
212.41	1.00000e-13
213.38	1.76097e-5
214.35	1.00000e-13
215.32	1.00000e-13
216.29	1.00000e-13
217.26	1.00000e-13
218.23	1.00000e-13
219.20	1.00000e-13
220.17	1.00000e-13
221.14	1.00000e-13
222.11	1.00000e-13
223.08	1.00000e-13
224.05	1.00000e-13
225.02	1.00000e-13
225.99	1.00000e-13
226.96	1.00000e-13
227.93	1.00000e-13
228.90	1.00000e-13
229.87	1.00000e-13
230.84	1.00000e-13
231.81	1.00000e-13
232.78	1.00000e-13
233.75	1.00000e-13
234.72	1.00000e-13
235.69	1.00000e-13
236.66	1.00000e-13
237.63	1.00000e-13
238.60	1.00000e-13
239.57	1.00000e-13
240.54	1.00000e-13
241.51	1.00000e-13
242.48	1.00000e-13
243.45	1.00000e-13
244.42	1.00000e-13
245.39	1.00000e-13
246.36	1.00000e-13
247.33	1.00000e-13
248.30	4.51829e-6
249.27	1.00000e-13
250.24	1.00000e-13
251.21	2.38658e-5
252.18	1.00000e-13
253.15	1.00000e-13
254.11	1.00000e-13
255.08	1.00000e-13
256.06	1.00000e-13
257.03	1.00000e-13
258.00	3.93902e-6
258.97	1.00000e-13
259.94	1.00000e-13
260.90	1.00000e-13
261.87	1.00000e-13
262.85	2.89634e-6
263.82	5.79267e-6
264.79	1.00000e-13
265.76	1.00000e-13
266.72	1.00000e-13
267.69	1.00000e-13
268.66	1.00000e-13
269.63	1.00000e-13
270.61	1.00000e-13
271.57	1.00000e-13
272.55	1.00000e-13
273.51	1.00000e-13
274.49	1.00000e-13
275.45	1.00000e-13
276.42	1.00000e-13
277.39	1.00000e-13
278.36	1.00000e-13
279.33	1.00000e-13
280.30	1.00000e-13
281.27	1.00000e-13
282.24	1.00000e-13
283.21	1.00000e-13
284.18	2.89634e-6
285.15	1.00000e-13
286.12	1.00000e-13
287.09	6.83536e-6
288.06	1.00000e-13
289.03	1.00000e-13
290.00	1.00000e-13
290.97	1.00000e-13
291.94	1.00000e-13
292.91	1.00000e-13
293.88	1.00000e-13
294.85	1.00000e-13
295.82	1.00000e-13
296.79	1.00000e-13
297.76	1.00000e-13
298.73	1.00000e-13
299.70	1.00000e-13
300.67	1.00000e-13
301.64	1.00000e-13
302.61	1.00000e-13
303.58	1.00000e-13
304.55	1.00000e-13
305.52	1.00000e-13
306.49	1.00000e-13
307.46	1.00000e-13
308.43	1.00000e-13
309.40	1.00000e-13
310.37	1.00000e-13
311.34	1.00000e-13
312.31	1.00000e-13
313.28	1.00000e-13
314.25	1.00000e-13
315.22	1.00000e-13
316.19	1.00000e-13
317.16	1.00000e-13
318.13	1.00000e-13
319.10	1.00000e-13
320.07	1.00000e-13
321.04	1.00000e-13
322.01	1.00000e-13
322.98	1.00000e-13
323.95	1.00000e-13
324.92	1.00000e-13
325.89	1.00000e-13
326.86	1.00000e-13
327.83	1.00000e-13
328.80	1.00000e-13
329.77	1.00000e-13
330.74	1.00000e-13
331.71	1.00000e-13
332.68	1.00000e-13
333.65	1.00000e-13
334.62	1.00000e-13
335.59	1.00000e-13
336.56	1.00000e-13
337.53	1.00000e-13
338.50	1.00000e-13
339.47	1.00000e-13
340.44	1.00000e-13
341.41	1.00000e-13
342.38	1.00000e-13
343.35	1.00000e-13
344.32	1.00000e-13
345.29	1.00000e-13
346.26	1.00000e-13
347.23	1.00000e-13
348.20	1.00000e-13
349.17	1.00000e-13
350.14	1.00000e-13
351.11	1.00000e-13
352.08	1.00000e-13
353.05	6.60365e-6
354.02	1.00000e-13
354.99	1.00000e-13
355.95	1.00000e-13
356.92	1.00000e-13
357.90	1.00000e-13
358.87	1.00000e-13
359.83	1.00000e-13
360.80	1.00000e-13
361.77	1.00000e-13
362.75	1.00000e-13
363.71	1.00000e-13
364.69	1.00000e-13
365.66	1.00000e-13
366.63	1.00000e-13
367.60	1.00000e-13
368.57	1.00000e-13
369.54	1.00000e-13
370.50	1.00000e-13
371.48	1.00000e-13
372.44	1.00000e-13
373.42	1.00000e-13
374.38	1.00000e-13
375.35	1.00000e-13
376.32	1.00000e-13
377.30	1.00000e-13
378.26	1.00000e-13
379.23	1.00000e-13
380.20	1.00000e-13
381.18	1.00000e-13
382.14	1.00000e-13
383.11	1.00000e-13
384.09	1.00000e-13
385.05	1.00000e-13
386.02	1.00000e-13
386.99	1.00000e-13
387.96	1.00000e-13
388.94	1.00000e-13
389.90	1.00000e-13
390.87	1.00000e-13
391.84	1.00000e-13
392.81	1.00000e-13
393.78	1.00000e-13
394.75	2.50244e-5
395.72	1.00000e-13
396.69	1.00000e-13
397.66	1.00000e-13
398.63	1.00000e-13
399.60	1.00000e-13
400.57	1.00000e-13
401.54	1.00000e-13
402.51	1.00000e-13
403.48	1.00000e-13
404.45	1.00000e-13
405.42	1.00000e-13
406.39	1.00000e-13
407.36	1.00000e-13
408.33	1.00000e-13
409.30	2.03902e-5
410.27	1.00000e-13
411.24	1.00000e-13
412.21	1.00000e-13
413.18	1.00000e-13
414.15	2.54878e-5
415.12	1.00000e-13
416.09	1.00000e-13
417.06	1.00000e-13
418.03	9.26828e-7
419.00	1.00000e-13
419.97	1.00000e-13
420.94	1.00000e-13
421.91	1.00000e-13
422.88	1.00000e-13
423.85	1.00000e-13
424.82	1.00000e-13
425.79	1.00000e-13
426.76	1.00000e-13
427.73	1.00000e-13
428.70	1.00000e-13
429.67	1.00000e-13
430.64	1.00000e-13
431.61	1.00000e-13
432.58	1.00000e-13
433.55	1.00000e-13
434.52	1.00000e-13
435.49	1.00000e-13
436.46	1.00000e-13
437.43	1.00000e-13
438.40	1.00000e-13
439.37	1.00000e-13
440.34	1.15853e-7
441.31	1.00000e-13
442.28	1.00000e-13
443.25	1.00000e-13
444.22	1.00000e-13
445.19	1.00000e-13
446.16	1.00000e-13
447.13	1.00000e-13
448.10	1.00000e-13
449.07	1.00000e-13
450.04	1.00000e-13
451.01	1.00000e-13
451.98	1.00000e-13
452.95	1.00000e-13
453.92	1.00000e-13
454.89	1.00000e-13
455.86	1.00000e-13
456.83	1.00000e-13
457.80	1.00000e-13
458.77	1.00000e-13
459.74	1.00000e-13
460.71	1.00000e-13
461.68	1.00000e-13
462.65	1.65670e-5
463.62	1.00000e-13
464.59	1.00000e-13
465.56	1.00000e-13
466.53	1.00000e-13
467.50	1.00000e-13
468.47	1.00000e-13
469.44	1.00000e-13
470.41	1.00000e-13
471.38	1.00000e-13
472.35	1.00000e-13
473.32	1.00000e-13
474.28	1.00000e-13
475.26	1.00000e-13
476.23	1.00000e-13
477.19	1.00000e-13
478.16	1.00000e-13
479.13	1.00000e-13
480.11	1.00000e-13
481.07	1.00000e-13
482.04	1.00000e-13
483.01	1.00000e-13
483.99	1.00000e-13
484.96	3.24390e-6
485.92	1.00000e-13
486.89	1.00000e-13
487.86	1.00000e-13
488.84	1.00000e-13
489.80	1.00000e-13
490.78	1.00000e-13
491.75	1.00000e-13
492.71	1.00000e-13
493.68	1.00000e-13
494.65	4.05487e-6
495.62	1.00000e-13
496.59	1.00000e-13
497.57	1.00000e-13
498.54	1.00000e-13
499.51	1.00000e-13
500.48	1.00000e-13
501.44	1.00000e-13
502.41	1.00000e-13
503.39	1.00000e-13
504.35	1.00000e-13
505.32	1.00000e-13
506.29	1.00000e-13
507.26	1.72622e-5
508.23	1.00000e-13
509.20	1.50610e-5
510.17	1.00000e-13
511.14	1.00000e-13
512.11	1.00000e-13
513.08	1.00000e-13
514.05	1.00000e-13
515.03	1.00000e-13
515.99	1.00000e-13
516.96	1.00000e-13
517.93	1.00000e-13
518.90	1.00000e-13
519.87	1.00000e-13
520.84	1.00000e-13
521.81	1.00000e-13
522.78	1.00000e-13
523.75	1.00000e-13
524.72	1.00000e-13
525.69	1.00000e-13
526.66	1.00000e-13
527.63	1.00000e-13
528.60	1.00000e-13
529.57	1.00000e-13
530.54	1.00000e-13
531.51	1.00000e-13
532.48	1.00000e-13
533.45	1.00000e-13
534.42	1.00000e-13
535.39	1.00000e-13
536.36	1.00000e-13
537.33	1.00000e-13
538.30	1.00000e-13
539.27	1.00000e-13
540.24	1.00000e-13
541.21	1.00000e-13
542.18	1.00000e-13
543.15	1.00000e-13
544.12	1.00000e-13
545.09	1.00000e-13
546.06	1.00000e-13
547.03	1.00000e-13
548.00	1.00000e-13
548.97	1.00000e-13
549.94	1.00000e-13
550.91	1.00000e-13
551.88	1.00000e-13
552.85	1.00000e-13
553.82	1.00000e-13
554.79	1.00000e-13
555.76	1.00000e-13
556.73	1.00000e-13
557.70	1.00000e-13
558.67	1.00000e-13
559.64	1.00000e-13
560.61	1.00000e-13
561.58	1.00000e-13
562.55	1.00000e-13
563.52	1.00000e-13
564.49	1.00000e-13
565.46	1.00000e-13
566.43	1.00000e-13
567.40	1.00000e-13
568.37	1.00000e-13
569.34	1.00000e-13
570.31	1.00000e-13
571.28	1.00000e-13
572.25	1.00000e-13
573.22	1.00000e-13
574.19	1.00000e-13
575.16	1.00000e-13
576.13	1.00000e-13
577.10	1.00000e-13
578.07	1.00000e-13
579.04	1.00000e-13
580.01	1.00000e-13
580.98	1.00000e-13
581.95	1.00000e-13
582.91	1.00000e-13
583.88	1.00000e-13
584.86	1.00000e-13
585.83	1.00000e-13
586.80	1.00000e-13
587.76	1.00000e-13
588.73	1.39024e-5
589.70	1.00000e-13
590.67	1.00000e-13
591.64	1.00000e-13
592.62	1.00000e-13
593.58	1.00000e-13
594.55	1.00000e-13
595.52	1.00000e-13
596.49	1.00000e-13
597.46	1.00000e-13
598.43	1.00000e-13
599.40	1.00000e-13
600.37	1.00000e-13
601.34	1.00000e-13
602.31	1.00000e-13
603.29	1.00000e-13
604.25	1.00000e-13
605.22	1.00000e-13
606.19	1.00000e-13
607.16	1.00000e-13
608.13	1.00000e-13
609.10	1.00000e-13
610.07	1.00000e-13
611.04	1.00000e-13
612.01	1.00000e-13
612.98	1.00000e-13
613.95	1.00000e-13
614.92	6.25609e-6
615.89	1.00000e-13
616.86	1.00000e-13
617.83	1.00000e-13
618.80	1.00000e-13
619.77	1.00000e-13
620.74	1.00000e-13
621.71	1.00000e-13
622.68	1.00000e-13
623.65	1.00000e-13
624.62	1.00000e-13
625.59	1.22805e-5
626.56	1.00000e-13
627.53	1.00000e-13
628.50	1.00000e-13
629.47	1.00000e-13
630.44	1.00000e-13
631.41	1.00000e-13
632.38	1.00000e-13
633.35	1.00000e-13
634.32	1.00000e-13
635.29	1.00000e-13
636.26	1.00000e-13
637.23	4.28658e-6
638.20	1.00000e-13
639.17	1.00000e-13
640.14	1.00000e-13
641.11	1.00000e-13
642.08	1.00000e-13
643.05	1.00000e-13
644.02	1.00000e-13
644.99	1.00000e-13
645.96	1.00000e-13
646.93	1.00000e-13
647.90	1.00000e-13
648.87	1.00000e-13
649.84	1.00000e-13
650.81	1.00000e-13
651.78	1.00000e-13
652.75	1.00000e-13
653.72	1.00000e-13
654.69	1.00000e-13
655.66	1.00000e-13
656.63	1.00000e-13
657.60	1.00000e-13
658.57	1.00000e-13
659.54	1.00000e-13
660.51	1.00000e-13
661.48	1.00000e-13
662.45	1.00000e-13
663.42	1.00000e-13
664.39	1.00000e-13
665.36	1.00000e-13
666.33	1.00000e-13
667.30	1.00000e-13
668.27	1.00000e-13
669.24	1.00000e-13
670.21	1.00000e-13
671.18	1.00000e-13
672.15	1.00000e-13
673.12	4.74999e-6
674.09	1.00000e-13
675.06	1.00000e-13
676.03	1.00000e-13
677.00	1.00000e-13
677.97	1.00000e-13
678.94	1.00000e-13
679.91	1.00000e-13
680.88	1.00000e-13
681.85	1.00000e-13
682.82	1.00000e-13
683.79	1.00000e-13
684.76	1.00000e-13
685.73	1.00000e-13
686.70	1.00000e-13
687.67	1.00000e-13
688.64	1.00000e-13
689.61	1.00000e-13
690.58	1.00000e-13
691.54	1.00000e-13
692.51	1.00000e-13
693.48	1.00000e-13
694.46	1.00000e-13
695.43	1.00000e-13
696.40	1.00000e-13
697.36	1.00000e-13
698.34	2.08536e-6
699.30	1.00000e-13
700.27	1.00000e-13
701.24	5.21341e-6
702.21	1.00000e-13
703.19	1.00000e-13
704.16	1.00000e-13
705.12	1.00000e-13
706.09	1.00000e-13
707.06	1.04268e-5
708.03	1.00000e-13
709.00	1.00000e-13
709.98	1.00000e-13
710.94	1.00000e-13
711.92	1.00000e-13
712.88	1.00000e-13
713.86	1.00000e-13
714.82	1.39024e-6
715.79	1.29756e-5
716.76	1.00000e-13
717.73	1.00000e-13
718.70	1.00000e-13
719.67	1.00000e-13
720.64	2.36341e-5
721.61	1.00000e-13
722.59	1.00000e-13
723.55	1.00000e-13
724.52	1.00000e-13
725.49	1.00000e-13
726.46	1.00000e-13
727.43	1.00000e-13
728.40	1.00000e-13
729.37	1.00000e-13
730.34	1.00000e-13
731.31	1.00000e-13
732.28	1.00000e-13
733.25	1.00000e-13
734.22	1.00000e-13
735.19	1.00000e-13
736.16	1.00000e-13
737.13	1.00000e-13
738.10	1.00000e-13
739.07	1.00000e-13
740.04	1.00000e-13
741.01	1.00000e-13
741.98	1.00000e-13
742.95	1.00000e-13
743.92	1.00000e-13
744.89	1.00000e-13
745.86	1.00000e-13
746.83	1.00000e-13
747.80	1.00000e-13
748.77	1.00000e-13
749.74	1.00000e-13
750.71	1.06585e-5
751.68	1.00000e-13
752.65	1.00000e-13
753.62	1.00000e-13
754.59	1.00000e-13
755.56	1.00000e-13
756.53	1.00000e-13
757.50	1.00000e-13
758.47	1.00000e-13
759.44	1.00000e-13
760.41	1.00000e-13
761.38	1.00000e-13
762.35	1.00000e-13
763.32	1.00000e-13
764.29	1.00000e-13
765.26	1.00000e-13
766.23	1.00000e-13
767.20	1.00000e-13
768.17	1.00000e-13
769.14	1.00000e-13
770.11	1.00000e-13
771.08	1.00000e-13
772.05	1.00000e-13
773.02	1.00000e-13
773.99	1.00000e-13
774.96	1.00000e-13
775.93	1.00000e-13
776.90	1.00000e-13
777.87	1.00000e-13
778.84	1.00000e-13
779.81	1.00000e-13
780.78	1.00000e-13
781.75	1.00000e-13
782.72	1.00000e-13
783.69	1.00000e-13
784.66	1.00000e-13
785.63	1.00000e-13
786.60	1.00000e-13
787.57	1.00000e-13
788.54	1.00000e-13
789.51	1.00000e-13
790.48	1.00000e-13
791.45	1.00000e-13
792.42	1.00000e-13
793.39	1.00000e-13
794.36	1.00000e-13
795.33	1.00000e-13
796.30	1.00000e-13
797.27	1.00000e-13
798.24	1.00000e-13
799.21	1.00000e-13
800.18	1.00000e-13
801.15	1.00000e-13
802.12	1.00000e-13
803.09	1.00000e-13
804.05	1.00000e-13
805.02	1.00000e-13
806.00	1.00000e-13
806.97	1.00000e-13
807.93	1.00000e-13
808.90	1.83048e-5
809.88	1.00000e-13
810.85	1.00000e-13
811.81	1.00000e-13
812.78	1.00000e-13
813.76	1.00000e-13
814.73	1.00000e-13
815.69	1.00000e-13
816.66	1.00000e-13
817.64	1.00000e-13
818.61	1.00000e-13
819.57	1.00000e-13
820.54	1.00000e-13
821.51	1.00000e-13
822.48	2.05061e-5
823.45	1.00000e-13
824.43	1.00000e-13
825.40	1.00000e-13
826.37	1.00000e-13
827.33	1.00000e-13
828.30	1.00000e-13
829.27	1.67988e-5
830.24	1.00000e-13
831.21	1.00000e-13
832.18	1.00000e-13
833.15	1.00000e-13
834.12	1.00000e-13
835.09	1.00000e-13
836.06	1.00000e-13
837.03	1.00000e-13
838.00	1.00000e-13
838.97	1.00000e-13
839.94	1.00000e-13
840.91	1.00000e-13
841.88	1.00000e-13
842.85	1.00000e-13
843.82	1.00000e-13
844.79	1.00000e-13
845.76	1.00000e-13
846.73	1.00000e-13
847.70	1.00000e-13
848.67	1.00000e-13
849.64	1.00000e-13
850.61	1.00000e-13
851.58	1.00000e-13
852.55	1.00000e-13
853.52	1.00000e-13
854.49	1.00000e-13
855.46	1.00000e-13
856.43	1.00000e-13
857.40	1.00000e-13
858.37	1.00000e-13
859.34	1.00000e-13
860.31	3.38292e-5
861.28	1.00000e-13
862.25	1.00000e-13
863.22	1.00000e-13
864.19	1.00000e-13
865.16	1.00000e-13
866.13	1.00000e-13
867.10	1.00000e-13
868.07	1.00000e-13
869.04	1.00000e-13
870.01	1.00000e-13
870.98	1.00000e-13
871.95	1.00000e-13
872.92	1.00000e-13
873.89	1.00000e-13
874.86	1.00000e-13
875.83	1.00000e-13
876.80	1.00000e-13
877.77	1.00000e-13
878.74	1.00000e-13
879.71	1.00000e-13
880.68	1.00000e-13
881.65	1.00000e-13
882.62	1.00000e-13
883.59	1.00000e-13
884.56	1.00000e-13
885.53	1.00000e-13
886.50	1.00000e-13
887.47	1.00000e-13
888.44	1.00000e-13
889.41	1.00000e-13
890.38	1.00000e-13
891.35	1.00000e-13
892.32	1.00000e-13
893.29	1.00000e-13
894.26	1.00000e-13
895.23	1.00000e-13
896.20	1.08902e-5
897.17	1.00000e-13
898.14	1.00000e-13
899.11	1.00000e-13
900.08	1.00000e-13
901.05	1.00000e-13
902.02	1.00000e-13
902.99	1.00000e-13
903.96	1.00000e-13
904.93	1.00000e-13
905.90	1.00000e-13
906.87	1.00000e-13
907.84	1.00000e-13
908.81	1.00000e-13
909.78	1.00000e-13
910.75	1.00000e-13
911.71	1.00000e-13
912.68	1.00000e-13
913.65	1.00000e-13
914.62	1.00000e-13
915.60	1.00000e-13
916.56	1.00000e-13
917.54	1.00000e-13
918.50	1.00000e-13
919.47	1.00000e-13
920.44	1.00000e-13
921.42	1.00000e-13
922.38	1.00000e-13
923.36	1.00000e-13
924.33	1.00000e-13
925.29	1.00000e-13
926.27	1.51768e-5
927.23	1.00000e-13
928.20	1.00000e-13
929.17	1.00000e-13
930.15	7.18292e-6
931.11	1.00000e-13
932.08	1.00000e-13
933.05	1.00000e-13
934.02	1.00000e-13
934.99	1.00000e-13
935.96	1.00000e-13
936.93	1.00000e-13
937.90	1.00000e-13
938.87	1.00000e-13
939.85	2.54878e-6
940.81	1.00000e-13
941.78	1.00000e-13
942.76	1.00000e-13
943.72	1.00000e-13
944.69	1.00000e-13
945.66	1.00000e-13
946.63	1.00000e-13
947.60	1.00000e-13
948.57	1.00000e-13
949.54	1.00000e-13
950.51	1.00000e-13
951.48	1.00000e-13
952.45	5.09755e-6
953.42	1.00000e-13
954.39	1.00000e-13
955.36	1.00000e-13
956.33	1.00000e-13
957.30	1.00000e-13
958.27	1.00000e-13
959.24	1.00000e-13
960.21	1.00000e-13
961.18	1.00000e-13
962.15	1.00000e-13
963.12	1.00000e-13
964.09	1.00000e-13
965.06	1.00000e-13
966.03	1.00000e-13
967.00	1.00000e-13
967.97	1.00000e-13
968.94	1.00000e-13
969.91	1.00000e-13
970.88	1.00000e-13
971.85	1.00000e-13
972.82	1.00000e-13
973.79	1.00000e-13
974.76	1.00000e-13
975.73	1.00000e-13
976.70	1.00000e-13
977.67	1.27439e-6
978.64	1.00000e-13
979.61	1.00000e-13
980.58	1.00000e-13
981.55	1.00000e-13
982.52	1.00000e-13
983.49	1.00000e-13
984.46	1.00000e-13
985.43	1.00000e-13
986.40	1.00000e-13
987.37	1.00000e-13
988.34	1.00000e-13
989.31	1.00000e-13
990.28	1.00000e-13
991.25	1.00000e-13
992.22	1.00000e-13
993.19	1.00000e-13
994.16	1.00000e-13
995.13	1.00000e-13
996.10	1.00000e-13
997.07	1.00000e-13
998.04	1.00000e-13
999.01	1.00000e-13
999.98	1.00000e-13
1000.95	3.59146e-6
1001.92	1.00000e-13
1002.89	1.00000e-13
1003.86	1.00000e-13
1004.83	1.00000e-13
1005.80	1.00000e-13
1006.77	1.00000e-13
1007.74	1.00000e-13
1008.71	1.00000e-13
1009.68	1.00000e-13
1010.65	1.00000e-13
1011.62	1.00000e-13
1012.59	1.00000e-13
1013.56	1.00000e-13
1014.53	1.00000e-13
1015.50	1.00000e-13
1016.47	1.00000e-13
1017.44	1.00000e-13
1018.41	1.00000e-13
1019.38	1.00000e-13
1020.35	1.00000e-13
1021.32	1.73780e-6
1022.29	1.00000e-13
1023.26	1.00000e-13
1024.23	1.00000e-13
1025.20	1.00000e-13
1026.17	1.00000e-13
1027.14	1.00000e-13
1028.11	1.00000e-13
1029.07	1.00000e-13
1030.04	1.00000e-13
1031.01	1.00000e-13
1031.98	1.00000e-13
1032.95	1.00000e-13
1033.93	1.00000e-13
1034.89	1.00000e-13
1035.86	1.00000e-13
1036.83	1.00000e-13
1037.80	1.00000e-13
1038.77	1.00000e-13
1039.74	1.00000e-13
1040.71	1.00000e-13
1041.68	1.00000e-13
1042.66	1.00000e-13
1043.62	1.00000e-13
1044.59	1.00000e-13
1045.56	1.00000e-13
1046.53	1.00000e-13
1047.50	1.00000e-13
1048.47	1.20488e-5
1049.44	2.58353e-5
1050.42	1.00000e-13
1051.39	1.00000e-13
1052.35	1.00000e-13
1053.32	1.00000e-13
1054.29	1.00000e-13
1055.26	1.00000e-13
1056.23	1.00000e-13
1057.20	1.00000e-13
1058.17	1.00000e-13
1059.14	1.00000e-13
1060.11	1.00000e-13
1061.08	6.95121e-6
1062.05	1.00000e-13
1063.02	1.00000e-13
1063.99	1.00000e-13
1064.96	1.00000e-13
1065.93	1.00000e-13
1066.90	1.00000e-13
1067.87	1.00000e-13
1068.84	1.00000e-13
1069.81	1.00000e-13
1070.78	1.00000e-13
1071.75	1.00000e-13
1072.72	1.00000e-13
1073.69	1.00000e-13
1074.66	3.47560e-7
1075.63	1.00000e-13
1076.60	1.00000e-13
1077.57	1.00000e-13
1078.54	1.00000e-13
1079.51	1.00000e-13
1080.48	1.00000e-13
1081.45	1.00000e-13
1082.42	1.00000e-13
1083.39	1.00000e-13
1084.36	1.00000e-13
1085.33	1.00000e-13
1086.30	1.00000e-13
1087.27	1.00000e-13
1088.24	1.00000e-13
1089.21	1.00000e-13
1090.18	1.00000e-13
1091.15	1.00000e-13
1092.12	1.00000e-13
1093.09	1.00000e-13
1094.06	1.00000e-13
1095.03	1.00000e-13
1096.00	1.00000e-13
1096.97	1.00000e-13
1097.94	2.96585e-5
1098.91	1.00000e-13
1099.88	1.00000e-13
1100.85	1.00000e-13
1101.82	1.00000e-13
1102.79	1.00000e-13
1103.76	1.00000e-13
1104.73	1.00000e-13
1105.70	1.00000e-13
1106.67	1.00000e-13
1107.64	1.00000e-13
1108.61	1.00000e-13
1109.58	1.00000e-13
1110.55	1.00000e-13
1111.52	1.00000e-13
1112.49	1.00000e-13
1113.46	1.00000e-13
1114.43	1.00000e-13
1115.40	1.00000e-13
1116.37	1.00000e-13
1117.34	1.00000e-13
1118.31	1.00000e-13
1119.28	1.00000e-13
1120.25	1.00000e-13
1121.22	1.00000e-13
1122.19	1.00000e-13
1123.16	1.00000e-13
1124.13	1.00000e-13
1125.10	1.00000e-13
1126.07	1.00000e-13
1127.04	1.00000e-13
1128.01	1.00000e-13
1128.98	1.00000e-13
1129.95	1.00000e-13
1130.92	7.33352e-5
1131.88	1.00000e-13
1132.86	1.00000e-13
1133.82	1.00000e-13
1134.80	1.00000e-13
1135.76	1.00000e-13
1136.74	1.00000e-13
1137.70	1.00000e-13
1138.67	4.63414e-7
1139.64	1.00000e-13
1140.62	1.00000e-13
1141.59	1.00000e-13
1142.55	1.00000e-13
1143.53	1.00000e-13
1144.49	1.00000e-13
1145.47	1.00000e-13
1146.44	1.00000e-13
1147.40	1.00000e-13
1148.37	2.43292e-6
1149.34	1.00000e-13
1150.32	1.00000e-13
1151.29	1.00000e-13
1152.26	1.00000e-13
1153.22	1.00000e-13
1154.19	1.00000e-13
1155.16	1.00000e-13
1156.14	1.00000e-13
1157.10	1.00000e-13
1158.07	1.00000e-13
1159.05	1.00000e-13
1160.02	1.00000e-13
1160.99	1.00000e-13
1161.96	1.00000e-13
1162.93	1.00000e-13
1163.90	1.00000e-13
1164.86	1.00000e-13
1165.83	1.00000e-13
1166.80	1.00000e-13
1167.77	1.00000e-13
1168.74	1.00000e-13
1169.71	1.00000e-13
1170.68	8.45730e-6
1171.65	1.00000e-13
1172.62	1.00000e-13
1173.59	1.00000e-13
1174.56	1.00000e-13
1175.53	1.00000e-13
1176.50	1.00000e-13
1177.47	1.00000e-13
1178.44	1.00000e-13
1179.41	1.00000e-13
1180.38	1.00000e-13
1181.35	1.00000e-13
1182.32	1.00000e-13
1183.29	1.00000e-13
1184.26	1.00000e-13
1185.23	1.00000e-13
1186.20	1.00000e-13
1187.17	1.00000e-13
1188.14	1.00000e-13
1189.11	1.00000e-13
1190.08	1.00000e-13
1191.05	1.00000e-13
1192.02	1.00000e-13
1192.99	1.00000e-13
1193.96	1.00000e-13
1194.93	1.00000e-13
1195.90	1.00000e-13
1196.87	1.00000e-13
1197.84	1.00000e-13
1198.81	1.00000e-13
1199.78	1.00000e-13
1200.75	1.00000e-13
1201.72	1.00000e-13
1202.69	1.00000e-13
1203.66	1.00000e-13
1204.63	1.00000e-13
1205.60	1.00000e-13
1206.57	1.00000e-13
1207.54	2.58353e-5
1208.51	1.00000e-13
1209.48	1.00000e-13
1210.45	1.00000e-13
1211.42	1.00000e-13
1212.39	1.00000e-13
1213.36	1.00000e-13
1214.33	1.00000e-13
1215.30	1.00000e-13
1216.27	1.00000e-13
1217.24	3.47560e-6
1218.21	1.00000e-13
1219.18	1.00000e-13
1220.15	1.00000e-13
1221.12	1.00000e-13
1222.09	1.00000e-13
1223.06	1.00000e-13
1224.03	1.00000e-13
1225.00	1.00000e-13
1225.97	1.00000e-13
1226.94	1.00000e-13
1227.91	1.00000e-13
1228.88	1.00000e-13
1229.85	1.00000e-13
1230.82	1.00000e-13
1231.79	1.00000e-13
1232.76	1.00000e-13
1233.73	1.00000e-13
1234.70	1.00000e-13
1235.67	1.00000e-13
1236.64	1.00000e-13
1237.61	1.00000e-13
1238.58	1.00000e-13
1239.55	1.00000e-13
1240.52	1.00000e-13
1241.49	1.00000e-13
1242.46	1.00000e-13
1243.42	1.00000e-13
1244.39	1.00000e-13
1245.37	1.00000e-13
1246.34	1.00000e-13
1247.31	1.00000e-13
1248.27	1.00000e-13
1249.24	1.00000e-13
1250.22	1.00000e-13
1251.18	1.00000e-13
1252.15	1.00000e-13
1253.13	1.00000e-13
1254.10	1.00000e-13
1255.07	1.00000e-13
1256.03	1.00000e-13
1257.01	1.00000e-13
1257.97	1.00000e-13
1258.94	1.00000e-13
1259.91	1.00000e-13
1260.88	1.00000e-13
1261.86	1.00000e-13
1262.83	1.00000e-13
1263.79	1.00000e-13
1264.76	1.00000e-13
1265.73	1.00000e-13
1266.70	1.00000e-13
1267.68	1.00000e-13
1268.64	1.00000e-13
1269.62	1.00000e-13
1270.58	1.00000e-13
1271.56	2.50244e-5
1272.52	1.84439e-4
1273.49	5.69304e-4
1274.46	1.08752e-3
1275.43	2.23308e-3
1276.40	3.93288e-3
1277.37	7.36527e-3
1278.34	0.0119285
1279.31	0.0169038
1280.28	0.0204686
1281.25	0.0201305
1282.22	0.0158459
1283.19	0.0111417
1284.16	6.63006e-3
1285.13	3.61254e-3
1286.10	2.15603e-3
1287.07	1.10652e-3
1288.04	7.85950e-4
1289.01	3.81969e-4
1289.98	3.64707e-4
1290.95	1.57213e-4
1291.92	1.79225e-4
1292.89	8.20243e-5
1293.86	5.20182e-5
1294.83	7.85487e-5
1295.80	3.00061e-5
1296.77	1.45975e-5
1297.74	1.00000e-13
1298.71	1.00000e-13
1299.68	3.35975e-6
1300.65	1.00000e-13
1301.62	1.00000e-13
1302.59	1.00000e-13
1303.56	1.00000e-13
1304.53	1.00000e-13
1305.50	1.00000e-13
1306.47	2.82682e-5
1307.44	1.00000e-13
1308.41	1.00000e-13
1309.38	1.00000e-13
1310.35	9.26828e-7
1311.32	3.93902e-6
1312.29	1.00000e-13
1313.26	1.00000e-13
1314.23	1.00000e-13