File: data/TGA/005d-L_M/L2-corrected.txt
Filename	L2
Instrument name
Operator	Galyna
-correctrundate	2025-02-24
Sample name	L2
[step]
Step 1
Time	Temperature	Weight	Weight	Deriv. Weight
min	°C	mg	%	% / °C
0.02	27.06	1.563	100	-1.56652E-05
0.96	27.82	1.563	100	-1.90957E-05
1.96	29.59	1.561	99.872	-2.00472E-05
2.96	33.01	1.566	100.192	-1.97035E-05
3.96	37.67	1.561	99.872	-2.06136E-05
4.96	42.83	1.563	100	-0.00002118
5.96	47.96	1.562	99.936	-2.38194E-05
6.96	52.86	1.561	99.872	-0.000025134
7.96	57.55	1.561	99.872	-2.78885E-05
8.96	62.17	1.561	99.872	-3.21079E-05
9.96	66.84	1.562	99.936	-3.99614E-05
10.96	71.63	1.564	100.064	-4.98251E-05
11.96	76.56	1.562	99.936	-5.88261E-05
12.96	81.58	1.556	99.5521	-6.71579E-05
13.96	86.66	1.56	99.8081	-7.73392E-05
14.96	91.77	1.561	99.872	-8.84416E-05
15.96	96.77	1.554	99.4242	-0.0001021
16.96	100.53	1.549	99.1043	-0.000117972
17.96	102.47	1.548	99.0403	-0.000137236
18.96	103.04	1.545	98.8484	-0.000161991
19.96	102.83	1.544	98.7844	-0.000178088
20.96	102.26	1.543	98.7204	-0.000187766
21.96	101.6	1.54	98.5285	-0.000171082
22.96	100.96	1.541	98.5925	-0.000131412
23.96	100.4	1.538	98.4005	-8.76707E-05
24.96	100	1.537	98.3365	-6.67564E-05
25.96	100.8	1.539	98.4645	-5.81527E-05
26.96	103.76	1.539	98.4645	-5.60065E-05
27.96	108.18	1.538	98.4005	-5.61713E-05
28.96	113.05	1.539	98.4645	-0.000053887
29.96	117.86	1.537	98.3365	-5.36736E-05
30.96	122.58	1.535	98.2086	-5.52886E-05
31.96	127.31	1.535	98.2086	-5.79758E-05
32.96	132.12	1.533	98.0806	-6.26708E-05
33.96	137.05	1.532	98.0166	-6.70625E-05
34.96	142.05	1.531	97.9527	-7.16159E-05
35.96	147.1	1.526	97.6328	-7.52634E-05
36.96	152.17	1.527	97.6967	-7.87255E-05
37.96	157.23	1.526	97.6328	-8.23577E-05
38.96	162.29	1.524	97.5048	-8.59711E-05
39.96	167.33	1.522	97.3768	-9.02095E-05
40.96	172.35	1.519	97.1849	-9.26421E-05
41.96	177.36	1.518	97.1209	-9.67087E-05
42.96	182.37	1.515	96.929	-0.000100397
43.96	187.38	1.513	96.801	-0.000103976
44.96	192.38	1.511	96.6731	-0.000108242
45.96	197.38	1.508	96.4811	-0.000110271
46.96	202.37	1.506	96.3532	-0.000113241
47.96	207.37	1.503	96.1612	-0.000116696
48.96	212.37	1.501	96.0333	-0.000120371
49.96	217.37	1.497	95.7774	-0.000122023
50.96	222.38	1.495	95.6494	-0.000124691
51.96	227.39	1.493	95.5214	-0.000126423
52.96	232.4	1.489	95.2655	-0.00012887
53.96	237.41	1.487	95.1376	-0.000130603
54.96	242.42	1.484	94.9456	-0.000132045
55.96	247.43	1.48	94.6897	-0.00013344
56.96	252.44	1.481	94.7537	-0.000135706
57.96	257.45	1.475	94.3698	-0.000137686
58.96	262.45	1.47	94.0499	-0.000141275
59.96	267.46	1.47	94.0499	-0.000146513
60.96	272.47	1.467	93.858	-0.000152807
61.96	277.48	1.464	93.666	-0.000160845
62.96	282.49	1.461	93.4741	-0.000169692
63.96	287.5	1.455	93.0902	-0.0001807
64.96	292.53	1.453	92.9623	-0.000194628
65.96	297.17	1.45	92.7703	-0.000209529
66.96	299.91	1.447	92.5784	-0.000226718
67.96	301.21	1.442	92.2585	-0.000247594
68.96	301.81	1.44	92.1305	-0.000275431
69.96	301.85	1.438	92.0026	-0.000312641
70.96	301.5	1.435	91.8106	-0.00035927
71.96	300.97	1.435	91.8106	-0.000414165
72.96	300.45	1.433	91.6827	-0.000440768
73.96	300.03	1.431	91.5547	0.000052758
74.96	299.77	1.43	91.4907	0.00137725
75.96	299.66	1.429	91.4267	0.00162921
76.96	299.67	1.427	91.2988	0.00152337
77.96	299.75	1.426	91.2348	0.00145637
78.96	299.86	1.428	91.3628	0.00144241
79.96	299.96	1.421	90.9149	0.00107502
80.96	300.03	1.422	90.9789	-0.00127712
81.96	300.07	1.419	90.7869	-0.00507421
82.96	300.08	1.422	90.9789	-0.00586178
83.96	300.07	1.419	90.7869	-0.00558992
84.96	300.05	1.419	90.7869	-0.00543459
85.96	300.02	1.419	90.7869	-0.00510095
86.96	300	1.418	90.723	-0.00116955
87.96	299.99	1.417	90.659	0.0119314
88.96	299.99	1.418	90.723	0.0210846
89.96	299.99	1.416	90.595	0.0206967
90.96	299.99	1.415	90.531	0.0199008
91.96	299.99	1.414	90.4671	0.0204925
92.96	300	1.413	90.4031	0.0182841
93.96	300	1.413	90.4031	-0.00552086
94.96	300.01	1.412	90.3391	-0.0640044
95.96	300.01	1.411	90.2751	-0.0830032
96.96	300	1.411	90.2751	-0.0786555
97.96	300	1.413	90.4031	-0.0656361
98.96	300	1.408	90.0832	-0.0295506
99.96	300	1.41	90.2111	0.0677615
100.96	300	1.408	90.0832	0.203089
101.96	300	1.408	90.0832	0.226413
102.96	300	1.408	90.0832	0.227314
103.96	300	1.411	90.2751	0.235457
104.96	300	1.407	90.0192	0.246892
105.96	300	1.406	89.9552	0.247696
106.96	300	1.41	90.2111	0.225647
107.96	300	1.407	90.0192	0.205638
108.96	300	1.408	90.0832	0.196411
109.96	300	1.404	89.8273	0.176966
110.96	300	1.403	89.7633	0.145931
111.96	300	1.403	89.7633	-0.0136552
112.96	300	1.401	89.6353	-0.174646
113.96	300	1.399	89.5074	-0.334534
114.96	300	1.401	89.6353	-0.402598
115.96	300	1.4	89.5713	-0.388349
116.96	300	1.399	89.5074	-0.357146
117.96	300	1.398	89.4434	-0.349131
118.96	300	1.398	89.4434	-0.347477
119.96	300	1.398	89.4434	-0.379279
120.96	300	1.396	89.3154	-0.366894
121.96	300	1.394	89.1875	-0.417044
122.96	300	1.395	89.2514	-0.419339
123.96	300	1.395	89.2514	-0.414832
124.96	300	1.393	89.1235	-0.407103
125.96	300	1.392	89.0595	-0.372204
126.96	300	1.393	89.1235	-0.280255
127.96	300	1.392	89.0595	-0.134763
128.96	300	1.391	88.9955	-0.00257702
129.96	300	1.39	88.9315	0.0260456
130.96	300	1.389	88.8676	-0.0206517
131.96	300	1.39	88.9315	-0.0773047
132.96	300	1.385	88.6116	-0.0620258
133.96	300	1.387	88.7396	-0.00578286
134.96	300	1.387	88.7396	0.0376822
135.96	300	1.386	88.6756	0.0594923
136.96	300	1.384	88.5477	0.0487075
137.96	300	1.388	88.8036	0.0772478
138.96	300	1.386	88.6756	0.103351
139.96	300	1.384	88.5477	0.0867413
140.96	300	1.384	88.5477	0.0555388
141.96	300	1.384	88.5477	0.0146116
142.96	300	1.383	88.4837	-8.63166E-05
143.96	300	1.383	88.4837	0.0340818
144.96	300	1.381	88.3557	0.144565
145.96	300	1.38	88.2917	0.228153
146.96	300	1.381	88.3557	0.234529
147.96	300	1.383	88.4837	0.144593
148.96	300	1.38	88.2917	0.101633
149.96	300	1.381	88.3557	0.0507858
150.96	300	1.381	88.3557	0.00202643
151.96	300	1.379	88.2278	0.0167946
152.96	300	1.377	88.0998	0.113477
153.96	300	1.378	88.1638	0.1614
154.96	300	1.377	88.0998	0.188315
155.96	300	1.376	88.0358	0.210871
156.96	300	1.378	88.1638	0.187508
157.96	300	1.375	87.9718	0.147538
158.96	300	1.376	88.0358	0.141763
159.96	300	1.375	87.9718	0.133319
160.96	300	1.372	87.7799	0.132043
161.96	300	1.372	87.7799	0.131799
162.96	300	1.373	87.8439	0.130577
163.96	300	1.373	87.8439	0.0621557
164.96	300	1.372	87.7799	0.0142289
165.96	300	1.371	87.7159	-0.0575732
166.96	300	1.371	87.7159	-0.115957
167.96	300	1.371	87.7159	-0.187335
168.96	300	1.368	87.524	-0.192322
169.96	300	1.371	87.7159	-0.168464
170.96	300	1.364	87.2681	-0.104394
171.96	300	1.367	87.46	0.00794312
172.96	300	1.366	87.396	0.120366
173.96	300	1.368	87.524	0.00762414
174.96	300	1.368	87.524	-0.101695
175.96	300	1.366	87.396	-0.105441
176.96	300	1.365	87.3321	-0.088398
177.96	300	1.365	87.3321	-0.0329053
178.96	300	1.363	87.2041	0.0223269
179.96	300	1.367	87.46	-0.034423
180.96	300	1.36	87.0122	-0.076484
181.96	300	1.367	87.46	0.0236368
182.96	300	1.364	87.2681	-0.0703853
183.96	300	1.361	87.0761	-0.117223
184.96	300	1.356	86.7562	-0.111422
185.96	300	1.36	87.0122	-0.0407195
186.96	300	1.356	86.7562	0.061488
187.96	300	1.36	87.0122	0.125577
188.96	300	1.359	86.9482	0.210448
189.96	300	1.359	86.9482	0.274696
190.96	300	1.359	86.9482	0.251298
191.96	300	1.357	86.8202	0.187379
192.96	300	1.357	86.8202	0.086788
193.96	300	1.356	86.7562	0.00863373
194.96	300	1.355	86.6923	0.0363631
195.96	300	1.354	86.6283	0.0840325
196.96	300	1.355	86.6923	0.114203
197.96	300	1.355	86.6923	0.145997
198.96	300	1.354	86.6283	0.173472
199.96	300	1.355	86.6923	0.172293
200.96	300	1.352	86.5003	0.16752
201.96	300	1.353	86.5643	0.152583
202.96	300	1.352	86.5003	0.138651
203.96	300	1.351	86.4363	0.145591
204.96	299.99	1.349	86.3084	0.148293
205.96	300	1.352	86.5003	0.102659
206.96	300	1.351	86.4363	0.0561758
207.96	300	1.348	86.2444	-0.00537881
208.96	300	1.349	86.3084	-0.069024
209.96	300	1.35	86.3724	-0.17621
210.96	300	1.349	86.3084	-0.232163
211.96	300	1.348	86.2444	-0.242364
212.96	300	1.348	86.2444	-0.246753
213.96	300	1.346	86.1164	-0.211733
214.96	300	1.345	86.0525	-0.180735
215.96	300	1.346	86.1164	-0.164507
216.96	300	1.345	86.0525	-0.139694
217.96	300	1.343	85.9245	-0.0949316
218.96	300	1.345	86.0525	-0.0304535
219.96	300	1.342	85.8605	0.00769711
220.96	300	1.341	85.7965	0.0827875
221.96	300	1.343	85.9245	0.175549
222.96	300	1.341	85.7965	0.232581
223.96	300	1.339	85.6686	0.245771
224.96	300	1.342	85.8605	0.233266
225.96	300	1.339	85.6686	0.207166
226.96	300	1.341	85.7965	0.148987
227.96	300	1.339	85.6686	0.0791469
228.96	300	1.338	85.6046	-0.0286547
229.96	300	1.34	85.7326	-0.0622654
230.96	300	1.336	85.4766	-0.0602383
231.96	300	1.337	85.5406	-0.0658816
232.96	300	1.337	85.5406	-0.0856662
233.96	300	1.335	85.4127	-0.0808162
234.96	300	1.333	85.2847	-0.0544117
235.96	300	1.336	85.4766	-0.00353858
236.96	300	1.334	85.3487	0.00353328
237.96	300	1.334	85.3487	0.0133693
238.96	300	1.334	85.3487	0.0783182
239.96	300	1.333	85.2847	0.154774
240.96	300	1.331	85.1567	0.206925
241.96	300	1.333	85.2847	0.247058
242.96	300	1.332	85.2207	0.223505
243.96	300	1.33	85.0928	0.17987
244.96	300	1.33	85.0928	0.147563
245.96	300	1.33	85.0928	0.134099
246.96	300	1.329	85.0288	0.0621283
247.96	300	1.33	85.0928	-0.0136666
248.96	300	1.33	85.0928	-0.0825733
249.96	300	1.329	85.0288	-0.113414
250.96	300	1.327	84.9008	-0.161938
251.96	300	1.326	84.8369	-0.167641
252.96	300	1.32	84.453	-0.172053
253.96	300	1.339	85.6686	-0.15429
254.96	300	1.326	84.8369	-0.136504
255.96	300	1.328	84.9648	-0.0509392
256.96	300	1.327	84.9008	0.04499
257.96	300	1.322	84.5809	0.14264
258.96	300	1.326	84.8369	0.256088
259.96	300	1.321	84.517	0.279788
260.96	300	1.324	84.7089	0.262693
261.96	300	1.323	84.6449	0.24904
262.96	300	1.323	84.6449	0.245715
263.96	300	1.322	84.5809	0.255912
264.96	300	1.324	84.7089	0.245101
265.96	300	1.32	84.453	0.236264
266.96	300	1.321	84.517	0.237901
267.96	300	1.321	84.517	0.254993
268.96	300	1.319	84.389	0.208456
269.96	300	1.32	84.453	0.174244
270.96	300	1.32	84.453	0.0931161
271.96	300	1.317	84.261	-0.0342963
272.96	300	1.319	84.389	-0.111563
273.96	300	1.318	84.325	-0.166365
274.96	300	1.318	84.325	-0.186235
275.96	300	1.317	84.261	-0.206491
276.96	300	1.314	84.0691	-0.215344
277.96	300	1.317	84.261	-0.212517
278.96	300	1.313	84.0051	-0.208348
279.96	300	1.314	84.0691	-0.167767
280.96	300	1.315	84.1331	-0.126228
281.96	300	1.316	84.1971	-0.0723591
282.96	300	1.311	83.8772	-0.0291301
283.96	300	1.308	83.6852	0.0392003
284.96	300	1.311	83.8772	0.0711417
285.96	300	1.309	83.7492	0.098168
286.96	300	1.31	83.8132	0.140802
287.96	300	1.309	83.7492	0.123631
288.96	300	1.311	83.8772	0.119853
289.96	300	1.309	83.7492	0.0950992
290.96	300	1.308	83.6852	0.0536296
291.96	300	1.307	83.6212	-0.0285506
292.96	300	1.311	83.8772	-0.0706765
293.96	300	1.307	83.6212	-0.0580332
294.96	300	1.307	83.6212	-0.0612412
295.96	300	1.307	83.6212	-0.0457787
296.96	300	1.302	83.3013	0.00272949
297.96	300	1.31	83.8132	0.0737067
298.96	300	1.304	83.4293	0.11257
299.96	300	1.304	83.4293	0.144829
300.96	300	1.302	83.3013	0.169509
301.96	300	1.305	83.4933	0.17033
302.96	300	1.304	83.4293	0.177523
303.96	300	1.306	83.5573	0.195646
304.96	300	1.3	83.1734	0.229434
305.96	300	1.304	83.4293	0.204018
306.96	300	1.305	83.4933	0.16784
307.96	300	1.303	83.3653	0.0625842
308.96	300	1.302	83.3013	0.0264287
309.96	300	1.3	83.1734	-0.0124342
310.96	300	1.3	83.1734	-0.0350417
311.96	300	1.299	83.1094	-0.0789265
312.96	300	1.3	83.1734	-0.0909603
313.96	300	1.301	83.2374	-0.0926211
314.96	300	1.297	82.9814	-0.0876655
315.96	300	1.299	83.1094	-0.136799
316.96	300	1.297	82.9814	-0.183233
317.96	300	1.298	83.0454	-0.198407
318.96	300	1.296	82.9175	-0.202793
319.96	300	1.297	82.9814	-0.184898
320.96	300	1.297	82.9814	-0.16354
321.96	300	1.296	82.9175	-0.104946
322.96	300	1.294	82.7895	-0.0769046
323.96	300	1.295	82.8535	-0.0128553
324.96	300	1.294	82.7895	0.0365202
325.96	300	1.296	82.9175	0.110443
326.96	300	1.293	82.7255	0.142174
327.96	300	1.295	82.8535	0.120575
328.96	300	1.291	82.5976	0.0854052
329.96	300	1.29	82.5336	0.0986517
330.96	300	1.291	82.5976	0.147313
331.96	300	1.292	82.6615	0.197991
332.96	300	1.293	82.7255	0.232223
333.96	300	1.292	82.6615	0.177223
334.96	300	1.289	82.4696	0.130402
335.96	300	1.29	82.5336	0.142224
336.96	300	1.29	82.5336	0.0945721
337.96	300	1.29	82.5336	0.0307555
338.96	300	1.288	82.4056	-0.0560212
339.96	300	1.288	82.4056	-0.0714624
340.96	300	1.287	82.3417	-0.0556733
341.96	300	1.286	82.2777	0.00981858
342.96	300	1.285	82.2137	-0.0159859
343.96	300	1.283	82.0857	0.0438753
344.96	300	1.286	82.2777	0.0616949
345.96	300	1.287	82.3417	0.0461129
346.96	300	1.285	82.2137	0.0621637
347.96	300	1.284	82.1497	0.0763993
348.96	300	1.286	82.2777	0.110122
349.96	300	1.285	82.2137	0.160988
350.96	300	1.282	82.0218	0.166385
351.96	300	1.287	82.3417	0.154145
352.96	300	1.283	82.0857	0.110654
353.96	300	1.285	82.2137	0.0513303
354.96	300	1.283	82.0857	-0.0334412
355.96	300	1.282	82.0218	-0.133749
356.96	300	1.284	82.1497	-0.161736
357.96	300	1.283	82.0857	-0.184483
358.96	300	1.283	82.0857	-0.174247
359.96	300	1.282	82.0218	-0.181656
360.96	300	1.282	82.0218	-0.114111
361.96	300	1.282	82.0218	-0.0760961
362.96	300	1.279	81.8298	-0.0560821
363.96	300	1.279	81.8298	-0.00849674
364.96	300	1.279	81.8298	0.0253967
365.96	300	1.278	81.7658	0.0695235
366.96	300	1.277	81.7019	0.11076
367.96	300	1.28	81.8938	0.126229
368.96	300	1.275	81.5739	0.135488
369.96	300	1.277	81.7019	0.0868481
370.96	300	1.275	81.5739	0.0592862
371.96	300	1.276	81.6379	0.0356834
372.96	300	1.276	81.6379	0.0703467
373.96	300	1.276	81.6379	0.074898
374.96	300	1.276	81.6379	0.091101
375.96	300	1.275	81.5739	0.113307
376.96	300	1.277	81.7019	0.114831
377.96	300	1.275	81.5739	0.117379
378.96	300	1.275	81.5739	0.122273
379.96	300	1.273	81.4459	0.115144
380.96	300	1.274	81.5099	0.096663
381.96	300	1.273	81.4459	0.109568
382.96	300	1.274	81.5099	0.101822
383.96	300	1.273	81.4459	0.0833667
384.96	300	1.273	81.4459	0.0749925
385.96	300	1.275	81.5739	-0.0237289
386.96	300	1.27	81.254	-0.124675
387.96	300	1.271	81.318	-0.148427
388.96	300	1.271	81.318	-0.179652
389.96	300	1.271	81.318	-0.171731
390.96	300	1.272	81.382	-0.126319
391.96	300	1.269	81.19	-0.0685851
392.96	300	1.271	81.318	0.0376226
393.96	300	1.27	81.254	0.131368
394.96	300	1.269	81.19	0.165099
395.96	300	1.268	81.126	0.188226
396.96	300	1.266	80.9981	0.191984
397.96	300	1.266	80.9981	0.234922
398.96	300	1.267	81.0621	0.266366
399.96	300	1.264	80.8701	0.314115
400.96	300	1.267	81.0621	0.299719
401.96	300	1.266	80.9981	0.281341
402.96	300	1.267	81.0621	0.185371
403.96	300	1.261	80.6782	0.0641171
404.96	300	1.264	80.8701	-0.0315222
405.96	300	1.262	80.7422	-0.125344
406.96	300	1.264	80.8701	-0.189698
407.96	300	1.262	80.7422	-0.262
408.96	300	1.261	80.6782	-0.296644
409.96	300	1.261	80.6782	-0.288147
410.96	300	1.26	80.6142	-0.279257
411.96	300	1.261	80.6782	-0.25457
412.96	300	1.255	80.2943	-0.244238
413.96	300	1.258	80.4862	-0.218844
414.96	300	1.256	80.3583	-0.162466
415.96	300	1.26	80.6142	-0.0664062
416.96	300	1.257	80.4223	-0.0289806
417.96	300	1.256	80.3583	-0.00043273
418.96	300	1.258	80.4862	0.0796172
419.96	300	1.256	80.3583	0.10533
420.96	300	1.254	80.2303	0.0794098
421.96	300	1.256	80.3583	0.0532324
422.96	300	1.255	80.2943	-0.0416978
423.96	300	1.252	80.1024	-0.0515543
424.96	300	1.248	79.8464	0.00693967
425.96	300	1.25	79.9744	0.111038
426.96	300	1.251	80.0384	0.143481
427.96	300	1.254	80.2303	0.156969
428.96	300	1.254	80.2303	0.147135
429.96	300	1.249	79.9104	0.132944
430.96	300	1.249	79.9104	0.153792
431.96	300	1.253	80.1663	0.187505
432.96	300	1.249	79.9104	0.195138
433.96	300	1.247	79.7825	0.188652
434.96	300	1.248	79.8464	0.156028
435.96	300	1.247	79.7825	0.108061
436.96	300	1.246	79.7185	0.0947176
437.96	300	1.248	79.8464	0.0931543
438.96	300	1.247	79.7825	0.0454899
439.96	300	1.244	79.5905	-0.0725464
440.96	300	1.243	79.5266	-0.186954
441.96	300	1.244	79.5905	-0.176848
442.96	300	1.244	79.5905	-0.194394
443.96	300	1.245	79.6545	-0.149909
444.96	300	1.243	79.5266	-0.0584365
445.96	300	1.241	79.3986	-0.0155506
446.96	300	1.24	79.3346	0.0241756
447.96	300	1.24	79.3346	0.0201625
448.96	300	1.242	79.4626	0.020488
449.96	300	1.24	79.3346	0.0242329
450.96	300	1.239	79.2706	0.0126489
451.96	300	1.235	79.0147	0.00470418
452.96	300	1.238	79.2067	0.0289125
453.96	300	1.239	79.2706	0.0585412
454.96	300	1.236	79.0787	0.105976
455.96	300	1.237	79.1427	0.0960745
456.96	300	1.236	79.0787	0.0977283
457.96	300	1.235	79.0147	0.0419321
458.96	300	1.235	79.0147	-0.0373341
459.96	300	1.233	78.8868	-0.139067
460.96	300	1.234	78.9507	-0.145437
461.96	300	1.234	78.9507	-0.0577338
462.96	300	1.231	78.7588	0.0303386
463.96	300	1.236	79.0787	0.168318
464.96	300	1.233	78.8868	0.209688
465.96	300	1.232	78.8228	0.203925
466.96	300	1.232	78.8228	0.211084
467.96	300	1.231	78.7588	0.162579
468.96	300	1.23	78.6948	0.13636
469.96	300	1.226	78.4389	0.120842
470.96	300	1.226	78.4389	0.102065
471.96	300	1.228	78.5669	0.0511943
472.96	300	1.235	79.0147	-0.0121422
473.96	300	1.231	78.7588	-0.0609783
474.96	300	1.226	78.4389	-0.121139
475.96	300	1.228	78.5669	-0.162711
476.96	300	1.227	78.5029	-0.1863
477.96	300	1.227	78.5029	-0.131046
478.96	300	1.226	78.4389	-0.103422
479.96	300	1.226	78.4389	-0.0975674
480.96	300	1.225	78.3749	-0.102572
481.96	300	1.224	78.3109	-0.078581
482.96	300	1.224	78.3109	-0.0333373
483.96	300	1.223	78.247	0.0239552
484.96	300	1.223	78.247	0.0821
485.96	300	1.222	78.183	0.0856441
486.96	300	1.219	77.991	0.0860778
487.96	300	1.224	78.3109	0.0695161
488.96	300	1.221	78.119	0.0331847
489.96	300	1.221	78.119	0.03287
490.96	300	1.22	78.055	-0.000498703
491.96	300	1.218	77.9271	-0.03486
492.96	300	1.22	78.055	-0.0199892
493.96	300	1.218	77.9271	-0.00543478
494.96	300	1.221	78.119	0.0615988
495.96	300	1.218	77.9271	0.122431
496.96	300	1.218	77.9271	0.138944
497.96	300	1.22	78.055	0.0326391
498.96	300	1.217	77.8631	-0.0529213
499.96	300	1.217	77.8631	-0.140928
500.96	300	1.215	77.7351	-0.00877912
501.96	300	1.215	77.7351	0.0369592
502.96	300	1.212	77.5432	-0.00231228
503.96	300	1.215	77.7351	0.00295097
504.96	300	1.215	77.7351	-0.0228911
505.96	300	1.214	77.6711	-0.0420992
506.96	300	1.214	77.6711	-0.0324272
507.96	300	1.213	77.6072	-0.026648
508.96	300	1.214	77.6711	0.0316895
509.96	300	1.213	77.6072	0.0492666
510.96	300	1.212	77.5432	0.0932327
511.96	300	1.211	77.4792	0.116966
512.96	300	1.214	77.6711	0.163839
513.96	300	1.21	77.4152	0.12224
514.96	300	1.21	77.4152	0.0734083
515.96	300	1.209	77.3512	0.0795413
516.96	300	1.209	77.3512	0.093488
517.96	300	1.212	77.5432	0.175789
518.96	300	1.209	77.3512	0.117139
519.96	300	1.211	77.4792	-0.0300613
520.96	300	1.203	76.9674	-0.0982936
521.96	300	1.212	77.5432	-0.0811981
522.96	300	1.207	77.2233	-0.0222616
523.96	300	1.206	77.1593	-0.000126203
524.96	300	1.207	77.2233	-0.0167389
525.96	300	1.202	76.9034	0.0200071
526.96	300	1.205	77.0953	0.0124462
527.96	300	1.206	77.1593	-0.010367
528.96	300	1.205	77.0953	-0.00786
529.96	300	1.204	77.0313	0.0225399
530.96	300	1.204	77.0313	-0.0174806
531.96	300	1.204	77.0313	-0.0125203
532.96	300	1.204	77.0313	0.013658
533.96	300	1.204	77.0313	0.0565356
534.96	300	1.203	76.9674	0.107642
535.96	300	1.203	76.9674	0.130448
536.96	300	1.203	76.9674	0.117816
537.96	300	1.202	76.9034	0.111436
538.96	300	1.201	76.8394	0.132369
539.96	300	1.204	77.0313	0.150914
540.96	300	1.2	76.7754	0.185051
541.96	300	1.202	76.9034	0.167065
542.96	300	1.201	76.8394	0.14779
543.96	300	1.2	76.7754	0.13861
544.96	300	1.199	76.7115	0.119308
545.96	300	1.197	76.5835	0.0869496
546.96	300	1.194	76.3916	0.123707
547.96	300	1.198	76.6475	0.11685
548.96	300	1.198	76.6475	0.106504
549.96	300	1.195	76.4555	0.0730711
550.96	300	1.198	76.6475	0.00753531
551.96	300	1.199	76.7115	-0.0626789
552.96	300	1.197	76.5835	-0.0810918
553.96	300	1.197	76.5835	-0.0832342
554.96	300	1.196	76.5195	-0.0656427
555.96	300	1.197	76.5835	-0.0820314
556.96	300	1.195	76.4555	-0.100875
557.96	300	1.195	76.4555	-0.0890612
558.96	300	1.195	76.4555	-0.0937308
559.96	300	1.194	76.3916	-0.125367
560.96	300	1.189	76.0717	-0.0717608
561.96	300	1.193	76.3276	-0.0593912
562.96	300	1.193	76.3276	-0.026815
563.96	300	1.193	76.3276	0.056707
564.96	300	1.192	76.2636	0.0962267
565.96	300	1.193	76.3276	0.208254
566.96	300	1.193	76.3276	0.25419
567.96	300	1.19	76.1356	0.254499
568.96	300	1.191	76.1996	0.288603
569.96	300	1.189	76.0717	0.236918
570.96	300	1.188	76.0077	0.113974
571.96	300	1.19	76.1356	0.110769
572.96	300	1.189	76.0717	0.0915187
573.96	300	1.191	76.1996	0.064721
574.96	300	1.19	76.1356	0.024897
575.96	300	1.191	76.1996	-0.0963123
576.96	300	1.188	76.0077	-0.137394
577.96	300	1.187	75.9437	-0.144543
578.96	300	1.187	75.9437	-0.115417
579.96	300	1.187	75.9437	-0.0593666
580.96	300	1.187	75.9437	0.00975998
581.96	300	1.186	75.8797	0.00711311
582.96	300	1.185	75.8157	0.0158088
583.96	300	1.184	75.7518	0.0784222
584.96	300	1.186	75.8797	0.157425
585.96	300	1.183	75.6878	0.181726
586.96	300	1.184	75.7518	0.171671
587.96	300	1.184	75.7518	0.0920054
588.96	300	1.184	75.7518	0.100733
589.96	300	1.184	75.7518	0.0551816
590.96	300	1.183	75.6878	0.0529341
591.96	300	1.18	75.4958	-0.0291251
592.96	300	1.181	75.5598	-0.0505369
593.96	300	1.184	75.7518	-0.127932
594.96	300	1.181	75.5598	-0.135123
595.96	300	1.181	75.5598	-0.137161
596.96	300	1.181	75.5598	-0.0772285
597.96	300	1.179	75.4319	-0.0285894
598.96	300	1.179	75.4319	-0.0170669
599.96	300	1.175	75.1759	-0.0246354
600.96	300	1.179	75.4319	0.113899
601.96	300	1.178	75.3679	0.210062
602.96	300	1.178	75.3679	0.235826
603.96	300	1.178	75.3679	0.261448
604.96	300	1.177	75.3039	0.269635
605.96	300	1.177	75.3039	0.253791
606.96	300	1.177	75.3039	0.219482
607.96	300	1.176	75.2399	0.199614
608.96	300	1.177	75.3039	0.0998818
609.96	300	1.175	75.1759	0.0203055
610.96	300	1.175	75.1759	-0.0375972
611.96	300	1.175	75.1759	-0.0748846
612.96	300	1.174	75.112	-0.0896957
613.96	300	1.176	75.2399	-0.0660524
614.96	300	1.174	75.112	-0.0831828
615.96	300	1.173	75.048	-0.0874984
616.96	300	1.174	75.112	-0.0646092
617.96	300	1.173	75.048	-0.0276932
618.96	300	1.171	74.92	0.0485118
619.96	300	1.172	74.984	0.0866639
620.96	300	1.172	74.984	0.140168
621.96	300	1.17	74.856	0.186255
622.96	300	1.169	74.7921	0.102283
623.96	300	1.172	74.984	0.0257362
624.96	300	1.168	74.7281	-0.0198302
625.96	300	1.17	74.856	-0.0742599
626.96	300	1.17	74.856	-0.111395
627.96	300	1.169	74.7921	-0.0946386
628.96	300	1.168	74.7281	-0.082235
629.96	300	1.168	74.7281	-0.035499
630.96	300	1.168	74.7281	0.0357381
631.96	300	1.168	74.7281	0.0657942
632.96	300	1.166	74.6001	0.101485
633.96	300	1.167	74.6641	0.121966
634.96	300	1.166	74.6001	0.140567
635.96	300	1.166	74.6001	0.194954
636.96	300	1.166	74.6001	0.211096
637.96	300	1.165	74.5361	0.203644
638.96	300	1.165	74.5361	0.163489
639.96	300	1.164	74.4722	0.112488
640.96	300	1.161	74.2802	0.076403
641.96	300	1.167	74.6641	0.0374043
642.96	300	1.166	74.6001	-0.115979
643.96	300	1.162	74.3442	-0.116187
644.96	300	1.163	74.4082	-0.0820446
645.96	300	1.163	74.4082	-0.0629412
646.96	300	1.161	74.2802	-0.0419286
647.96	300	1.162	74.3442	0.00462317
648.96	300	1.161	74.2802	0.0752814
649.96	300	1.161	74.2802	0.0963906
650.96	300	1.16	74.2163	0.164531
651.96	300	1.16	74.2163	0.163143
652.96	300	1.16	74.2163	0.115921
653.96	300	1.159	74.1523	0.0629072
654.96	300	1.159	74.1523	0.0722548
655.96	300	1.159	74.1523	-0.0113776
656.96	300	1.158	74.0883	-0.0348929
657.96	300	1.159	74.1523	-0.0203026
658.96	300	1.16	74.2163	0.071064
659.96	300	1.157	74.0243	0.0191341
660.96	300	1.157	74.0243	0.0699287
661.96	300	1.155	73.8964	0.124499
662.96	300	1.156	73.9603	0.145365
663.96	300	1.154	73.8324	0.0887922
664.96	300	1.156	73.9603	0.0298759
665.96	300	1.155	73.8964	0.0339413
666.96	300	1.153	73.7684	0.0571113
667.96	300	1.158	74.0883	0.123025
668.96	300	1.153	73.7684	0.115011
669.96	300	1.154	73.8324	0.0797148
670.96	300	1.151	73.6404	0.0306252
671.96	300	1.156	73.9603	-0.0102592
672.96	300	1.15	73.5765	-0.0706525
673.96	300	1.152	73.7044	-0.0762289
674.96	300	1.151	73.6404	-0.107006
675.96	300	1.151	73.6404	-0.115275
676.96	300	1.151	73.6404	-0.105878
677.96	300	1.15	73.5765	-0.0819353
678.96	300	1.15	73.5765	-0.00946914
679.96	300	1.149	73.5125	0.0164714
680.96	300	1.149	73.5125	0.0454803
681.96	300	1.149	73.5125	-0.0343986
682.96	300	1.148	73.4485	-0.0571379
683.96	300	1.149	73.5125	-0.0523374
684.96	300	1.149	73.5125	-0.0287929
685.96	300	1.147	73.3845	0.0209041
686.96	300	1.148	73.4485	0.0712915
687.96	300	1.15	73.5765	0.101356
688.96	300	1.148	73.4485	0.0837803
689.96	300	1.151	73.6404	0.0480047
690.96	300	1.145	73.2566	0.0276421
691.96	300	1.147	73.3845	-0.0103818
692.96	300	1.142	73.0646	-0.00352975
693.96	300	1.144	73.1926	0.00587511
694.96	300	1.145	73.2566	0.0298255
695.96	300	1.146	73.3205	0.0794415
696.96	300	1.145	73.2566	0.129739
697.96	300	1.148	73.4485	0.133792
698.96	300	1.144	73.1926	0.0428914
699.96	300	1.144	73.1926	-0.0244514
700.96	300	1.142	73.0646	-0.0604843
701.96	300	1.142	73.0646	-0.083947
702.96	300	1.142	73.0646	0.00271192
703.96	300	1.142	73.0646	0.0630916
704.96	300	1.141	73.0006	0.0576059
705.96	300	1.139	72.8727	0.0450024
706.96	300	1.141	73.0006	0.0325339
707.96	300	1.139	72.8727	0.0410483
708.96	300	1.14	72.9367	0.0856815
709.96	300	1.14	72.9367	0.111874
710.96	300	1.136	72.6807	0.165254
711.96	300	1.138	72.8087	0.168048
712.96	300	1.138	72.8087	0.13043
713.96	300	1.137	72.7447	0.130087
714.96	300	1.137	72.7447	0.0985623
715.96	300	1.135	72.6168	0.0634394
716.96	300	1.136	72.6807	0.069686
717.96	300	1.136	72.6807	0.103785
718.96	300	1.137	72.7447	0.130929
719.96	300	1.138	72.8087	0.170136
720.96	300	1.133	72.4888	0.154568
721.96	300	1.139	72.8727	0.0516487
722.96	300	1.135	72.6168	-0.0141268
723.96	300	1.133	72.4888	-0.0833877
724.96	300	1.134	72.5528	-0.0981129
725.96	300	1.133	72.4888	-0.0963687
726.96	300	1.133	72.4888	-0.0770973
727.96	300	1.133	72.4888	-0.0554442
728.96	300	1.132	72.4248	-0.0569529
729.96	300	1.133	72.4888	-0.0777427
730.96	300	1.131	72.3608	-0.0951675
731.96	300	1.132	72.4248	-0.10105
732.96	300	1.131	72.3608	-0.0325104
733.96	300	1.13	72.2969	0.0472025
734.96	300	1.128	72.1689	0.125893
735.96	300	1.129	72.2329	0.185202
736.96	300	1.124	71.913	0.21189
737.96	300	1.126	72.0409	0.176728
738.96	300	1.128	72.1689	0.096029
739.96	300	1.126	72.0409	0.0316845
740.96	300	1.126	72.0409	-0.0234131
741.96	300	1.127	72.1049	-0.0438043
742.96	300	1.126	72.0409	-0.0433474
743.96	300	1.127	72.1049	-0.0180051
744.96	300	1.123	71.849	-0.0268242
745.96	300	1.127	72.1049	-0.0417445
746.96	300	1.126	72.0409	-0.05595
747.96	300	1.124	71.913	-0.0444491
748.96	300	1.125	71.977	0.00845747
749.96	300	1.124	71.913	0.0743061
750.96	300	1.124	71.913	0.105462
751.96	300	1.124	71.913	0.160132
752.96	300	1.123	71.849	0.248374
753.96	300	1.125	71.977	0.288793
754.96	300	1.122	71.785	0.217949
755.96	300	1.124	71.913	0.132762
756.96	300	1.121	71.721	0.0147697
757.96	300	1.121	71.721	-0.0878297
758.96	300	1.119	71.5931	-0.0983541
759.96	300	1.122	71.785	-0.0409303
760.96	300	1.118	71.5291	0.0402767
761.96	300	1.12	71.6571	0.049493
762.96	300	1.119	71.5931	0.0628198
763.96	300	1.119	71.5931	0.0873955
764.96	300	1.115	71.3372	0.156726
765.96	300	1.116	71.4012	0.207686
766.96	300	1.118	71.5291	0.253319
767.96	300	1.117	71.4651	0.291163
768.96	300	1.115	71.3372	0.218871
769.96	300	1.116	71.4012	0.122255
770.96	300	1.115	71.3372	0.0755764
771.96	300	1.116	71.4012	0.0138886
772.96	300	1.114	71.2732	-0.0540812
773.96	300	1.114	71.2732	-0.095656
774.96	300	1.114	71.2732	-0.138261
775.96	300	1.112	71.1452	-0.169666
776.96	300	1.113	71.2092	-0.189895
777.96	300	1.113	71.2092	-0.178866
778.96	300	1.111	71.0813	-0.122617
779.96	300	1.113	71.2092	-0.0925791
780.96	300	1.111	71.0813	-0.0892657
781.96	300	1.111	71.0813	-0.07489
782.96	300	1.11	71.0173	-0.0130803
783.96	300	1.108	70.8893	0.0325586
784.96	300	1.108	70.8893	0.118048
785.96	300	1.114	71.2732	0.129339
786.96	300	1.107	70.8253	0.0381072
787.96	300	1.107	70.8253	0.00737908
788.96	300	1.111	71.0813	-0.0481423
789.96	300	1.111	71.0813	-0.092628
790.96	300	1.108	70.8893	-0.0180123
791.96	300	1.107	70.8253	-0.0598414
792.96	300	1.104	70.6334	-0.063202
793.96	300	1.106	70.7614	-0.0689553
794.96	300	1.104	70.6334	0.0721384
795.96	300	1.105	70.6974	0.218041
796.96	300	1.105	70.6974	0.271355
797.96	300	1.104	70.6334	0.25492
798.96	300	1.105	70.6974	0.24115
799.96	300	1.105	70.6974	0.242372
800.96	300	1.103	70.5694	0.230453
801.96	300	1.104	70.6334	0.208338
802.96	300	1.099	70.3135	0.207027
803.96	300	1.1	70.3775	0.148799
804.96	300	1.101	70.4415	0.104644
805.96	300	1.101	70.4415	0.0492965
806.96	300	1.1	70.3775	-0.0351967
807.96	300	1.102	70.5054	-0.0940038
808.96	300	1.101	70.4415	-0.130872
809.96	300	1.1	70.3775	-0.107072
810.96	300	1.099	70.3135	-0.132719
811.96	300	1.098	70.2495	-0.100009
812.96	300	1.097	70.1855	0.00492293
813.96	300	1.097	70.1855	0.0923076
814.96	300	1.097	70.1855	0.153647
815.96	300	1.096	70.1216	0.202798
816.96	300	1.096	70.1216	0.164982
817.96	300	1.095	70.0576	0.191729
818.96	300	1.091	69.8017	0.247545
819.96	300	1.096	70.1216	0.281115
820.96	300	1.095	70.0576	0.104612
821.96	300	1.095	70.0576	0.029224
822.96	300	1.094	69.9936	0.0158071
823.96	300	1.094	69.9936	-0.0718895
824.96	300	1.093	69.9296	-0.131225
825.96	300	1.093	69.9296	-0.128933
826.96	300	1.092	69.8656	-0.16107
827.96	300	1.092	69.8656	-0.169234
828.96	300	1.093	69.9296	-0.071271
829.96	300	1.092	69.8656	0.0351542
830.96	300	1.092	69.8656	0.0504311
831.96	300	1.09	69.7377	0.0455127
832.96	300	1.09	69.7377	0.0816976
833.96	300	1.089	69.6737	0.0368359
834.96	300	1.084	69.3538	0.0408938
835.96	300	1.088	69.6097	0.038438
836.96	300	1.09	69.7377	0.0200828
837.96	300	1.089	69.6737	-0.0632876
838.96	300	1.086	69.4818	-0.14149
839.96	300	1.088	69.6097	-0.164725
840.96	300	1.087	69.5457	-0.203162
841.96	300	1.086	69.4818	-0.235944
842.96	300	1.088	69.6097	-0.246275
843.96	300	1.087	69.5457	-0.253617
844.96	300	1.086	69.4818	-0.215487
845.96	300	1.085	69.4178	-0.0706841
846.96	300	1.086	69.4818	0.110169
847.96	300	1.085	69.4178	0.159588
848.96	300	1.086	69.4818	0.190861
849.96	300	1.084	69.3538	0.188758
850.96	300	1.084	69.3538	0.145625
851.96	300	1.084	69.3538	0.0469894
852.96	300	1.081	69.1619	-0.00157771
853.96	300	1.083	69.2898	-0.0162042
854.96	300	1.082	69.2258	-0.0311919
855.96	300	1.082	69.2258	-0.0301881
856.96	300	1.081	69.1619	-0.00691705
857.96	300	1.081	69.1619	-0.018385
858.96	300	1.081	69.1619	0.00112818
859.96	300	1.081	69.1619	-0.00720093
860.96	300	1.081	69.1619	0.0163661
861.96	300	1.082	69.2258	0.025384
862.96	300	1.079	69.0339	0.0442893
863.96	300	1.08	69.0979	0.0792112
864.96	300	1.079	69.0339	0.13828
865.96	300	1.08	69.0979	0.141372
866.96	300	1.081	69.1619	0.146887
867.96	300	1.079	69.0339	0.125654
868.96	300	1.078	68.9699	0.1018
869.96	300	1.078	68.9699	0.0912845
870.96	300	1.078	68.9699	0.0266771
871.96	300	1.078	68.9699	0.00900153
872.96	300	1.078	68.9699	0.0288555
873.96	300	1.077	68.906	0.0401335
874.96	300	1.077	68.906	-0.0330623
875.96	300	1.077	68.906	-0.098215
876.96	300	1.076	68.842	-0.132887
877.96	300	1.079	69.0339	-0.123452
878.96	300	1.076	68.842	-0.0885342
879.96	300	1.075	68.778	-0.0277711
880.96	300	1.076	68.842	0.0378983
881.96	300	1.074	68.714	0.105904
882.96	300	1.074	68.714	0.106883
883.96	300	1.074	68.714	0.0953841
884.96	300	1.073	68.65	0.013669
885.96	300	1.07	68.4581	-0.0210651
886.96	300	1.077	68.906	-0.0346749
887.96	300	1.074	68.714	-0.0352538
888.96	300	1.073	68.65	-0.0103544
889.96	300	1.073	68.65	0.00623284
890.96	300	1.072	68.5861	0.0118845
891.96	300	1.069	68.3941	0.0179237
892.96	300	1.072	68.5861	0.0190917
893.96	300	1.072	68.5861	0.0249913
894.96	300	1.073	68.65	0.0175263
895.96	300	1.072	68.5861	0.0255556
896.96	300	1.073	68.65	0.0487469
897.96	300	1.072	68.5861	0.071846
898.96	300	1.073	68.65	0.0912651
899.96	300	1.072	68.5861	0.0921455
900.96	300	1.069	68.3941	0.102704
901.96	300	1.077	68.906	0.114607
902.96	300	1.072	68.5861	0.124773
903.96	300	1.072	68.5861	0.0530943
904.96	300	1.073	68.65	0.030949
905.96	300	1.07	68.4581	0.0243671
906.96	300	1.073	68.65	0.0353816
907.96	300	1.072	68.5861	0.0397101
908.96	300	1.07	68.4581	0.0473704
909.96	300	1.07	68.4581	0.0340401
910.96	300	1.069	68.3941	0.00373362
911.96	300	1.067	68.2662	-0.0201239
912.96	300	1.069	68.3941	-0.0523262
913.96	300	1.07	68.4581	-0.0429521
914.96	300	1.071	68.5221	-0.05793
915.96	300	1.072	68.5861	-0.0209542
916.96	300	1.068	68.3301	0.00351369
917.96	300	1.069	68.3941	0.0461638
918.96	300	1.067	68.2662	0.0557854
919.96	300	1.068	68.3301	0.0374137
920.96	300	1.067	68.2662	-0.0208848
921.96	300	1.07	68.4581	-0.0589619
922.96	300	1.067	68.2662	-0.0948036
923.96	300	1.066	68.2022	-0.0627223
924.96	300	1.065	68.1382	-0.0100997
925.96	300	1.064	68.0742	0.0208316
926.96	300	1.067	68.2662	0.0420884
927.96	300	1.064	68.0742	0.0673664
928.96	300	1.066	68.2022	0.0930516
929.96	300	1.065	68.1382	0.0861023
930.96	300	1.066	68.2022	0.0764332
931.96	300	1.065	68.1382	0.0580332
932.96	300	1.065	68.1382	0.0504081
933.96	300	1.064	68.0742	0.0442933
934.96	300	1.066	68.2022	0.0416398
935.96	300	1.059	67.7543	0.0205624
936.96	300	1.063	68.0102	0.0204654
937.96	300	1.061	67.8823	0.0195534
938.96	300	1.06	67.8183	0.0027882
939.96	300	1.063	68.0102	-0.0266324
940.96	300	1.06	67.8183	-0.0117051
941.96	300	1.062	67.9463	0.0306727
942.96	300	1.064	68.0742	0.113661
943.96	300	1.06	67.8183	0.149746
944.96	300	1.059	67.7543	0.142381
945.96	300	1.061	67.8823	0.148867
946.96	300	1.061	67.8823	0.142142
947.96	300	1.062	67.9463	0.128775
948.96	300	1.059	67.7543	0.0940542
949.96	300	1.063	68.0102	0.0740267
950.96	300	1.059	67.7543	0.0583032
951.96	300	1.058	67.6903	0.0204409
952.96	300	1.06	67.8183	-0.0297971
953.96	300	1.058	67.6903	-0.0574052
954.96	300	1.06	67.8183	-0.0627898
955.96	300	1.06	67.8183	-0.0889591
956.96	300	1.058	67.6903	-0.0905042
957.96	300	1.059	67.7543	-0.0755332
958.96	300	1.062	67.9463	-0.0475707
959.96	300	1.059	67.7543	0.0217479
960.96	300	1.058	67.6903	0.0970562
961.96	300	1.057	67.6264	0.20019
962.96	300	1.057	67.6264	0.235101
963.96	300	1.061	67.8823	0.247723
964.96	300	1.058	67.6903	0.233232
965.96	300	1.059	67.7543	0.172398
966.96	300	1.055	67.4984	0.161309
967.96	300	1.052	67.3065	0.0909921
968.96	300	1.053	67.3704	0.0735206
969.96	300	1.054	67.4344	0.0434538
970.96	300	1.056	67.5624	-0.0257915
971.96	300	1.054	67.4344	-0.0674903
972.96	300	1.053	67.3704	-0.077491
973.96	300	1.054	67.4344	-0.05624
974.96	300	1.049	67.1145	-0.0060955
975.96	300	1.052	67.3065	0.0553559
976.96	300	1.055	67.4984	0.0774214
977.96	300	1.052	67.3065	0.110672
978.96	300	1.051	67.2425	0.111672
979.96	300	1.052	67.3065	0.110965
980.96	300	1.051	67.2425	0.113303
981.96	300	1.052	67.3065	0.105174
982.96	300	1.052	67.3065	0.095228
983.96	300	1.051	67.2425	0.0933474
984.96	300	1.05	67.1785	0.0901012
985.96	300	1.052	67.3065	0.0819173
986.96	300	1.05	67.1785	0.0591889
987.96	300	1.051	67.2425	0.0344222
988.96	300	1.048	67.0505	-0.0351698
989.96	300	1.05	67.1785	-0.098906
990.96	300	1.047	66.9866	-0.150973
991.96	300	1.049	67.1145	-0.133042
992.96	300	1.047	66.9866	-0.153375
993.96	300	1.047	66.9866	-0.181932
994.96	300	1.047	66.9866	-0.190513
995.96	300	1.049	67.1145	-0.186349
996.96	300	1.049	67.1145	-0.206535
997.96	300	1.047	66.9866	-0.220435
998.96	300	1.045	66.8586	-0.219756
999.96	300	1.047	66.9866	-0.230817
1000.96	300	1.043	66.7306	-0.237175
1001.96	300	1.044	66.7946	-0.238706
1002.96	300	1.043	66.7306	-0.16344
1003.96	300	1.044	66.7946	-0.101081
1004.96	300	1.043	66.7306	-0.0487917
1005.96	300	1.042	66.6667	0.00965726
1006.96	300	1.044	66.7946	0.0684384
1007.96	300	1.04	66.5387	0.120772
1008.96	300	1.04	66.5387	0.127175
1009.96	300	1.042	66.6667	0.0961507
1010.96	300	1.041	66.6027	0.136657
1011.96	300	1.041	66.6027	0.142271
1012.96	300	1.041	66.6027	0.106161
1013.96	300	1.038	66.4107	0.0071859
1014.96	300	1.038	66.4107	-0.00989773
1015.96	300	1.038	66.4107	0.0192888
1016.96	300	1.04	66.5387	0.0332506
1017.96	300	1.038	66.4107	0.0417983
1018.96	300	1.04	66.5387	0.049746
1019.96	300	1.039	66.4747	0.0773824
1020.96	300	1.035	66.2188	0.0913738
1021.96	300	1.038	66.4107	0.0817347
1022.96	300	1.036	66.2828	0.0566919
1023.96	300	1.035	66.2188	0.0514788
1024.96	300	1.035	66.2188	0.059115
1025.96	300	1.036	66.2828	0.0689754
1026.96	300	1.037	66.3468	0.0711094
1027.96	300	1.035	66.2188	0.0515131
1028.96	300	1.034	66.1548	0.061574
1029.96	300	1.033	66.0909	0.0392771
1030.96	300	1.035	66.2188	0.0399315
1031.96	300	1.038	66.4107	0.0274675
1032.96	300	1.034	66.1548	0.082044
1033.96	300	1.031	65.9629	0.0987189
1034.96	300	1.031	65.9629	0.042408
1035.96	300	1.029	65.8349	0.00303994
1036.96	300	1.033	66.0909	-0.0110894
1037.96	300	1.028	65.771	-0.053177
1038.96	300	1.031	65.9629	-0.122558
1039.96	300	1.03	65.8989	-0.174782
1040.96	300	1.031	65.9629	-0.210925
1041.96	300	1.027	65.707	-0.216248
1042.96	300	1.027	65.707	-0.22269
1043.96	300	1.029	65.8349	-0.226766
1044.96	300	1.028	65.771	-0.222884
1045.96	300	1.027	65.707	-0.207079
1046.96	300	1.028	65.771	-0.171404
1047.96	300	1.026	65.643	-0.146748
1048.96	300	1.025	65.579	-0.111194
1049.96	300	1.026	65.643	-0.017985
1050.96	300	1.025	65.579	0.0155512
1051.96	300	1.026	65.643	0.0524273
1052.96	300	1.023	65.4511	0.128053
1053.96	300	1.022	65.3871	0.189397
1054.96	300	1.024	65.515	0.163231
1055.96	300	1.021	65.3231	0.103211
1056.96	300	1.023	65.4511	0.0385858
1057.96	300	1.023	65.4511	0.0160472
1058.96	300	1.023	65.4511	0.0610878
1059.96	300	1.023	65.4511	0.0701868
1060.96	300	1.022	65.3871	0.0633057
1061.96	300	1.021	65.3231	0.0776359
1062.96	300	1.021	65.3231	0.0901881
1063.96	300	1.021	65.3231	0.107872
1064.96	300	1.02	65.2591	0.116528
1065.96	300	1.02	65.2591	0.109392
1066.96	300	1.02	65.2591	0.108522
1067.96	300	1.019	65.1951	0.0900535
1068.96	300	1.02	65.2591	0.100545
1069.96	300	1.02	65.2591	0.109957
1070.96	300	1.02	65.2591	0.120057
1071.96	300	1.018	65.1312	0.131758
1072.96	300	1.016	65.0032	0.133805
1073.96	300	1.016	65.0032	0.132385
1074.96	300	1.018	65.1312	0.0518143
1075.96	300	1.016	65.0032	0.0363588
1076.96	300	1.017	65.0672	0.0359589
1077.96	300	1.016	65.0032	0.0525517
1078.96	300	1.016	65.0032	0.0451418
1079.96	300	1.016	65.0032	-0.0067776
1080.96	300	1.017	65.0672	-0.0504807
1081.96	300	1.015	64.9392	-0.071728
1082.96	300	1.014	64.8752	-0.0974666
1083.96	300	1.013	64.8113	-0.12513
1084.96	300	1.011	64.6833	-0.169586
1085.96	300	1.013	64.8113	-0.175087
1086.96	300	1.016	65.0032	-0.183201
1087.96	300	1.011	64.6833	-0.167432
1088.96	300	1.012	64.7473	-0.179726
1089.96	300	1.013	64.8113	-0.153576
1090.96	300	1.01	64.6193	-0.13713
1091.96	300	1.011	64.6833	-0.134576
1092.96	300	1.009	64.5553	-0.0988761
1093.96	300	1.012	64.7473	-0.0601609
1094.96	300	1.01	64.6193	-0.027053
1095.96	300	1.009	64.5553	-0.0150345
1096.96	300	1.007	64.4274	0.00635779
1097.96	300	1.008	64.4914	0.0524431
1098.96	300	1.006	64.3634	0.149026
1099.96	300	1.007	64.4274	0.174783
1100.96	300	1.008	64.4914	0.185763
1101.96	300	1.009	64.5553	0.16203
1102.96	300	1.006	64.3634	0.158488
1103.96	300	1.007	64.4274	0.137942
1104.96	300	1.007	64.4274	0.141983
1105.96	300	1.004	64.2354	0.135827
1106.96	300	1.006	64.3634	0.123893
1107.96	300	1.007	64.4274	0.102747
1108.96	300	1.005	64.2994	0.0657938
1109.96	300	1.006	64.3634	0.033416
1110.96	300	1.003	64.1715	-0.00885632
1111.96	300	1.007	64.4274	-0.0534213
1112.96	300	1.006	64.3634	-0.105407
1113.96	300	1.005	64.2994	-0.131966
1114.96	300	1.003	64.1715	-0.125306
1115.96	300	1.004	64.2354	-0.106357
1116.96	300	1.002	64.1075	-0.0853487
1117.96	300	1.004	64.2354	-0.0434753
1118.96	300	1.001	64.0435	0.0144226
1119.96	300	1.001	64.0435	0.0524049
1120.96	300	1.004	64.2354	0.109088
1121.96	300	0.999	63.9155	0.142546
1122.96	300	0.999	63.9155	0.15677
1123.96	300	1.001	64.0435	0.152124
1124.96	300	1	63.9795	0.130625
1125.96	300	1.002	64.1075	0.0937891
1126.96	300	1.001	64.0435	0.0461982
1127.96	300	0.999	63.9155	-0.00788831
1128.96	300	0.997	63.7876	-0.0464189
1129.96	300	1	63.9795	-0.136224
1130.96	300	0.995	63.6596	-0.195681
1131.96	300	1	63.9795	-0.20468
1132.96	300	0.999	63.9155	-0.212074
1133.96	300	0.999	63.9155	-0.208883
1134.96	300	0.997	63.7876	-0.157252
1135.96	300	0.996	63.7236	-0.108181
1136.96	300	0.995	63.6596	-0.0131592
1137.96	300	0.996	63.7236	0.0608315
1138.96	300	0.992	63.4677	0.132859
1139.96	300	0.993	63.5317	0.180806
1140.96	300	0.994	63.5956	0.208555
1141.96	300	0.996	63.7236	0.211171
1142.96	300	0.99	63.3397	0.189627
1143.96	300	0.994	63.5956	0.136146
1144.96	300	0.992	63.4677	0.114343
1145.96	300	0.991	63.4037	0.101465
1146.96	300	0.99	63.3397	0.0687287
1147.96	300	0.99	63.3397	0.0541115
1148.96	300	0.992	63.4677	0.0613085
1149.96	300	0.99	63.3397	0.0668795
1150.96	300	0.99	63.3397	0.0676515
1151.96	300	0.989	63.2758	0.0919795
1152.96	300	0.991	63.4037	0.0938529
1153.96	300	0.99	63.3397	0.0953002
1154.96	300	0.989	63.2758	0.125449
1155.96	300	0.991	63.4037	0.13132
1156.96	300	0.99	63.3397	0.147171
1157.96	300	0.989	63.2758	0.165422
1158.96	300	0.985	63.0198	0.167957
1159.96	300	0.987	63.1478	0.158381
1160.96	300	0.988	63.2118	0.146689
1161.96	300	0.99	63.3397	0.102089
1162.96	300	0.987	63.1478	0.0145215
1163.96	300	0.987	63.1478	-0.0509
1164.96	300	0.986	63.0838	-0.0558353
1165.96	300	0.987	63.1478	-0.0629405
1166.96	300	0.985	63.0198	-0.0737211
1167.96	300	0.986	63.0838	-0.0266347
1168.96	300	0.986	63.0838	0.017733
1169.96	300	0.988	63.2118	0.0109264
1170.96	300	0.985	63.0198	-0.083951
1171.96	300	0.985	63.0198	-0.150096
1172.96	300	0.984	62.9559	-0.189793
1173.96	300	0.983	62.8919	-0.191466
1174.96	300	0.982	62.8279	-0.18635
1175.96	300	0.983	62.8919	-0.176022
1176.96	300	0.981	62.7639	-0.161107
1177.96	300	0.981	62.7639	-0.12018
1178.96	300	0.987	63.1478	-0.0821926
1179.96	300	0.979	62.636	-0.0390778
1180.96	300	0.982	62.8279	-0.0107901
1181.96	300	0.979	62.636	0.0134659
1182.96	300	0.978	62.572	0.0334691
1183.96	300	0.976	62.444	0.0387445
1184.96	300	0.979	62.636	0.0608937
1185.96	300	0.977	62.508	0.0382797
1186.96	300	0.978	62.572	0.0566256
1187.96	300	0.976	62.444	0.0445415
1188.96	300	0.977	62.508	0.045925
1189.96	300	0.976	62.444	0.040636
1190.96	300	0.974	62.3161	0.0288122
1191.96	300	0.976	62.444	0.0334198
1192.96	300	0.976	62.444	0.0245305
1193.96	300	0.972	62.1881	0.0355984
1194.96	300	0.974	62.3161	0.0583265
1195.96	300	0.974	62.3161	0.0781703
1196.96	300	0.971	62.1241	0.0860286
1197.96	300	0.974	62.3161	0.0942046
1198.96	300	0.975	62.38	0.104085
1199.96	300	0.972	62.1881	0.0965829
1200.96	300	0.975	62.38	0.0767001
1201.96	300	0.977	62.508	0.0423667
1202.96	300	0.97	62.0601	0.0161924
1203.96	300	0.977	62.508	-0.0124773
1204.96	300	0.97	62.0601	-0.0432939
1205.96	300	0.971	62.1241	-0.0446863
1206.96	300	0.97	62.0601	-0.0618456
1207.96	300	0.97	62.0601	-0.0860941
1208.96	300	0.97	62.0601	-0.0658673
1209.96	300	0.971	62.1241	-0.0685524
1210.96	300	0.97	62.0601	-0.0691383
1211.96	300	0.969	61.9962	-0.0797676
1212.96	300	0.97	62.0601	-0.0827213
1213.96	300	0.97	62.0601	-0.0958008
1214.96	300	0.969	61.9962	-0.105522
1215.96	300	0.97	62.0601	-0.10806
1216.96	300	0.974	62.3161	-0.120837
1217.96	300	0.968	61.9322	-0.141713
1218.96	300	0.967	61.8682	-0.153007
1219.96	300	0.968	61.9322	-0.131926
1220.96	300	0.968	61.9322	-0.0746076
1221.96	300	0.965	61.7402	-0.032517
1222.96	300	0.965	61.7402	0.0839964
1223.96	300	0.964	61.6763	0.253711
1224.96	300	0.965	61.7402	0.290463
1225.96	300	0.964	61.6763	0.27182
1226.96	300	0.965	61.7402	0.248548
1227.96	300	0.962	61.5483	0.217032
1228.96	300	0.966	61.8042	0.211971
1229.96	300	0.964	61.6763	0.175119
1230.96	300	0.961	61.4843	0.112291
1231.96	300	0.962	61.5483	0.062921
1232.96	300	0.965	61.7402	0.0342469
1233.96	300	0.964	61.6763	0.00823727
1234.96	300	0.962	61.5483	-0.0370409
1235.96	300	0.963	61.6123	-0.0544122
1236.96	300	0.962	61.5483	-0.0321164
1237.96	300	0.962	61.5483	0.0328142
1238.96	300	0.963	61.6123	0.0385433
1239.96	300	0.962	61.5483	0.0448208
1240.96	300	0.964	61.6763	0.0633601
1241.96	300	0.958	61.2924	0.0758047
1242.96	300	0.961	61.4843	0.0898768
1243.96	300	0.958	61.2924	0.0983787
1244.96	300	0.96	61.4203	0.0947822
1245.96	300	0.96	61.4203	0.100259
1246.96	300	0.96	61.4203	0.0881832
1247.96	300	0.959	61.3564	0.0679077
1248.96	300	0.959	61.3564	0.0460859
1249.96	300	0.959	61.3564	-0.00894051
1250.96	300	0.961	61.4843	-0.0612569
1251.96	300	0.956	61.1644	-0.142559
1252.96	300	0.959	61.3564	-0.177696
1253.96	300	0.954	61.0365	-0.205163
1254.96	300	0.957	61.2284	-0.222977
1255.96	300	0.956	61.1644	-0.233181
1256.96	300	0.953	60.9725	-0.00142412
1257.96	300	0.952	60.9085	-0.00018394
1258.96	300	0.955	61.1004	-4.13231E-05
1259.96	300	0.952	60.9085	-4.56046E-05
1260.96	300	0.955	61.1004	-4.33678E-05
1261.96	300	0.953	60.9725	-4.89895E-05
1262.96	300	0.952	60.9085	-6.13621E-05
1263.96	300	0.954	61.0365	-0.000078906
1264.96	300.23	0.954	61.0365	-0.000112498
1265.96	304.29	0.952	60.9085	-0.000169902
1266.96	312.4	0.956	61.1644	-0.000261277
1267.96	321.51	0.951	60.8445	-0.000408706
1268.96	330.78	0.949	60.7166	-0.000641027
1269.96	340.29	0.942	60.2687	-0.000991092
1270.96	350.12	0.938	60.0128	-0.00146063
1271.96	360.18	0.927	59.309	-0.00198577
1272.96	370.36	0.906	57.9655	-0.00248686
1273.96	380.57	0.86	55.0224	-0.00293247
1274.96	390.75	0.788	50.4159	-0.00330052
1275.96	400.87	0.647	41.3948	-0.00356583
1276.96	410.95	0.418	26.7434	-0.00372427
1277.96	420.99	0.066	4.22265	-0.00377548
1278.96	431.02	-0.376	-24.0563	-0.00372058
1279.96	441.05	-0.736	-47.0889	-0.00355591
1280.96	451.07	-0.921	-58.9251	-0.00328386
1281.96	461.09	-0.984	-62.9559	-0.00291028
1282.96	471.11	-1.004	-64.2354	-0.00244727
1283.96	481.14	-1.009	-64.5553	-0.00191643
1284.96	491.19	-1.011	-64.6833	-0.00135706
1285.96	501.23	-1.008	-64.4914	-0.000829448
1286.96	511.26	-1.015	-64.9392	-0.000411667
1287.96	521.29	-1.009	-64.5553	-0.000158394
1288.96	531.31	-1.009	-64.5553	-0.000046932
1289.96	541.33	-1.009	-64.5553	-9.99311E-06
1290.96	551.36	-1.009	-64.5553	1.98822E-07
1291.96	561.39	-1.006	-64.3634	2.96663E-06
1292.96	571.41	-1.006	-64.3634	3.70377E-06
1293.96	581.43	-1.009	-64.5553	4.39113E-06
1294.96	591.46	-1.01	-64.6193	6.07484E-06
1295.96	601.47	-1.009	-64.5553	7.08246E-06
1296.96	611.5	-1.007	-64.4274	9.24163E-06
1297.96	621.51	-1.008	-64.4914	9.95779E-06
1298.96	631.53	-1.009	-64.5553	1.11068E-05
1299.96	641.55	-1.008	-64.4914	1.09109E-05
1300.96	651.57	-1.006	-64.3634	1.15992E-05
1301.96	661.59	-1.006	-64.3634	1.24771E-05
1302.96	671.6	-1.004	-64.2354	1.45191E-05
1303.96	681.62	-1.005	-64.2994	1.71026E-05
1304.96	691.64	-1.003	-64.1715	1.75935E-05
1305.96	701.65	-1.005	-64.2994	2.01736E-05
1306.96	711.67	-1.005	-64.2994	2.07907E-05
1307.96	721.68	-1.011	-64.6833	0.000021862
1308.96	731.7	-1.005	-64.2994	2.24414E-05
1309.96	741.71	-0.999	-63.9155	2.34846E-05
1310.96	751.72	-1.011	-64.6833	2.42617E-05
1311.96	761.74	-0.992	-63.4677	2.72695E-05
1312.96	771.75	-1.001	-64.0435	2.98628E-05
1313.96	781.76	-0.993	-63.5317	3.30503E-05
1314.46	786.76	-0.995	-63.6596	3.40717E-05