File: data/TGA/005d-L_M/L2.txt
Filename	L2
Instrument name
Operator	Galyna
-correctrundate	2025-02-24
Sample name	L2
[step]
Step 1
Time	Temperature	Weight	Weight	Deriv. Weight
min	°C	mg	%	% / °C
0.02	27.06	433.173	100.000	-1.56652e-5
1.04	27.91	433.173	100.000	-1.90641e-5
2.13	30.04	433.172	100.000	-2.24881e-5
3.21	34.09	433.176	100.001	-1.94503e-5
4.29	39.37	433.172	100.000	-2.10933e-5
5.38	44.99	433.173	100.000	-2.26387e-5
6.46	50.44	433.173	100.000	-2.50699e-5
7.54	55.61	433.171	100.000	-2.68792e-5
8.63	60.63	433.169	100.000	-3.03487e-5
9.71	65.66	433.167	99.999	-3.80896e-5
10.79	70.82	433.170	100.000	-4.75646e-5
11.88	76.14	433.169	100.000	-5.85290e-5
12.96	81.58	433.166	99.999	-6.71579e-5
14.04	87.09	433.165	99.999	-7.84193e-5
15.13	92.63	433.168	99.999	-9.01662e-5
16.21	97.87	433.163	99.998	-1.05930e-4
17.29	101.37	433.159	99.997	-1.23972e-4
18.38	102.84	433.156	99.997	-1.45293e-4
19.46	103.00	433.154	99.996	-1.69553e-4
20.54	102.52	433.153	99.996	-1.86825e-4
21.63	101.82	433.151	99.995	-1.76191e-4
22.71	101.11	433.150	99.995	-1.41702e-4
23.79	100.48	433.149	99.995	-9.02560e-5
24.88	100.01	433.150	99.995	-6.84293e-5
25.96	100.80	433.149	99.995	-5.81527e-5
27.04	104.09	433.150	99.995	-5.62504e-5
28.13	108.98	433.149	99.995	-5.58736e-5
29.21	114.26	433.147	99.994	-5.34577e-5
30.29	119.44	433.147	99.994	-5.39071e-5
31.38	124.54	433.145	99.994	-5.66158e-5
32.46	129.70	433.145	99.994	-6.03431e-5
33.54	134.98	433.141	99.993	-6.57079e-5
34.63	140.37	433.142	99.993	-7.02817e-5
35.71	145.83	433.142	99.993	-7.43272e-5
36.79	151.32	433.138	99.992	-7.81337e-5
37.88	156.81	433.137	99.992	-8.19828e-5
38.96	162.29	433.134	99.991	-8.59711e-5
40.04	167.75	433.131	99.991	-9.05117e-5
41.13	173.18	433.129	99.990	-9.35902e-5
42.21	178.61	433.127	99.990	-9.70746e-5
43.29	184.04	433.124	99.989	-1.01128e-4
44.38	189.46	433.122	99.989	-1.05668e-4
45.46	194.88	433.120	99.988	-1.09279e-4
46.54	200.29	433.117	99.987	-1.11929e-4
47.63	205.70	433.114	99.987	-1.15567e-4
48.71	211.12	433.111	99.986	-1.18817e-4
49.79	216.53	433.108	99.985	-1.21783e-4
50.88	221.96	433.105	99.985	-1.24604e-4
51.96	227.39	433.103	99.984	-1.26423e-4
53.04	232.82	433.100	99.984	-1.28997e-4
54.13	238.25	433.097	99.983	-1.30845e-4
55.21	243.67	433.094	99.982	-1.32361e-4
56.29	249.10	433.091	99.981	-1.34278e-4
57.38	254.53	433.090	99.981	-1.36366e-4
58.46	259.95	433.083	99.980	-1.39190e-4
59.54	265.38	433.083	99.980	-1.44212e-4
60.63	270.80	433.076	99.978	-1.50536e-4
61.71	276.23	433.074	99.978	-1.58642e-4
62.79	281.65	433.070	99.977	-1.67973e-4
63.88	287.08	433.068	99.976	-1.79652e-4
64.96	292.53	433.063	99.975	-1.94628e-4
66.04	297.48	433.059	99.974	-2.11109e-4
67.13	300.20	433.055	99.973	-2.30017e-4
68.21	301.42	433.052	99.973	-2.53010e-4
69.29	301.88	433.049	99.972	-2.87791e-4
70.38	301.74	433.048	99.972	-3.29689e-4
71.46	301.24	433.045	99.971	-3.85763e-4
72.54	300.65	433.043	99.971	-4.37862e-4
73.63	300.15	433.040	99.970	-2.64042e-4
74.71	299.82	433.040	99.970	1.11651e-3
75.79	299.67	433.039	99.970	1.63463e-3
76.88	299.67	433.038	99.969	1.53137e-3
77.96	299.75	433.036	99.969	1.45637e-3
79.04	299.87	433.035	99.969	1.44071e-3
80.13	299.97	433.032	99.968	8.69348e-4
81.21	300.04	433.032	99.968	-2.28615e-3
82.29	300.08	433.032	99.968	-5.66944e-3
83.38	300.08	433.030	99.968	-5.74288e-3
84.46	300.06	433.030	99.967	-5.48011e-3
85.54	300.03	433.030	99.967	-5.29197e-3
86.63	300.01	433.028	99.967	-3.60312e-3
87.71	299.99	433.026	99.967	8.08989e-3
88.79	299.99	433.027	99.967	0.0206202
89.88	299.99	433.025	99.966	0.0208469
90.96	299.99	433.025	99.966	0.0199008
92.04	299.99	433.024	99.966	0.0202158
93.13	300.00	433.023	99.966	0.0158111
94.21	300.00	433.023	99.966	-0.0172019
95.29	300.01	433.023	99.966	-0.0772462
96.38	300.01	433.022	99.966	-0.0816394
97.46	300.00	433.018	99.965	-0.0738920
98.54	300.00	433.018	99.965	-0.0500179
99.63	300.00	433.020	99.965	0.0290555
100.71	300.00	433.019	99.965	0.179810
101.79	300.00	433.018	99.965	0.226635
102.88	300.00	433.018	99.965	0.226691
103.96	300.00	433.021	99.965	0.235457
105.04	300.00	433.014	99.964	0.248574
106.13	300.00	433.012	99.963	0.244175
107.21	300.00	433.017	99.964	0.218295
108.29	300.00	433.015	99.964	0.192795
109.38	300.00	433.014	99.964	0.202480
110.46	300.00	433.013	99.964	0.156370
111.54	300.00	433.014	99.964	0.0624226
112.63	300.00	433.012	99.963	-0.0979754
113.71	300.00	433.011	99.963	-0.313691
114.79	300.00	433.011	99.963	-0.400010
115.88	300.00	433.010	99.963	-0.389495
116.96	300.00	433.009	99.963	-0.357146
118.04	300.00	433.009	99.963	-0.351026
119.13	300.00	433.007	99.962	-0.350735
120.21	300.00	433.007	99.962	-0.383711
121.29	300.00	433.007	99.962	-0.389670
122.38	300.00	433.008	99.962	-0.406437
123.46	300.00	433.006	99.962	-0.414721
124.54	300.00	433.004	99.961	-0.400822
125.63	300.00	433.003	99.961	-0.393492
126.71	300.00	433.003	99.961	-0.308934
127.79	300.00	433.001	99.961	-0.158641
128.88	300.00	433.001	99.961	-0.0199940
129.96	300.00	433.000	99.960	0.0260456
131.04	300.00	432.997	99.960	-0.0194949
132.13	300.00	432.998	99.960	-0.0805399
133.21	300.00	432.993	99.959	-0.0478339
134.29	300.00	432.997	99.960	0.0128405
135.38	300.00	432.997	99.960	0.0646077
136.46	300.00	432.994	99.959	0.0393983
137.54	300.00	432.990	99.958	0.0492044
138.63	300.00	432.995	99.959	0.108113
139.71	300.00	432.994	99.959	0.0894425
140.79	300.00	432.995	99.959	0.0668989
141.88	300.00	432.993	99.959	0.0198926
142.96	300.00	432.993	99.959	-8.63166e-5
144.04	300.00	432.992	99.959	0.0343883
145.13	300.00	432.991	99.959	0.176561
146.21	300.00	432.990	99.958	0.248006
147.29	300.00	432.991	99.959	0.201123
148.38	300.00	432.991	99.958	0.119578
149.46	300.00	432.989	99.958	0.0669948
150.54	300.00	432.990	99.958	0.0276015
151.63	300.00	432.990	99.958	-0.0133788
152.71	300.00	432.987	99.958	0.0977769
153.79	300.00	432.989	99.958	0.151959
154.88	300.00	432.990	99.958	0.184015
155.96	300.00	432.986	99.957	0.210871
157.04	300.00	432.984	99.957	0.183235
158.13	300.00	432.986	99.957	0.146771
159.21	300.00	432.985	99.957	0.137335
160.29	300.00	432.986	99.957	0.136314
161.38	300.00	432.983	99.957	0.136386
162.46	300.00	432.985	99.957	0.148266
163.54	300.00	432.982	99.956	0.0995651
164.63	300.00	432.982	99.956	0.0296784
165.71	300.00	432.982	99.956	-0.0361431
166.79	300.00	432.982	99.956	-0.108538
167.88	300.00	432.980	99.956	-0.179151
168.96	300.00	432.978	99.956	-0.192322
170.04	300.00	432.983	99.957	-0.162792
171.13	300.00	432.978	99.955	-0.0706969
172.21	300.00	432.978	99.956	0.0388214
173.29	300.00	432.979	99.956	0.110683
174.38	300.00	432.977	99.955	-0.0713840
175.46	300.00	432.977	99.955	-0.109386
176.54	300.00	432.976	99.955	-0.0591674
177.63	300.00	432.975	99.955	-0.0655075
178.71	300.00	432.973	99.954	0.0123357
179.79	300.00	432.975	99.955	-2.75284e-3
180.88	300.00	432.970	99.954	-0.0759633
181.96	300.00	432.977	99.955	0.0236368
183.04	300.00	432.972	99.954	-0.0740672
184.13	300.00	432.973	99.954	-0.116078
185.21	300.00	432.971	99.954	-0.113011
186.29	300.00	432.973	99.954	-0.0178786
187.38	300.00	432.970	99.954	0.0741245
188.46	300.00	432.971	99.954	0.178665
189.54	300.00	432.969	99.953	0.259728
190.63	300.00	432.969	99.953	0.260702
191.71	300.00	432.968	99.953	0.210096
192.79	300.00	432.966	99.953	0.106674
193.88	300.00	432.967	99.953	0.0238005
194.96	300.00	432.965	99.952	0.0363631
196.04	300.00	432.967	99.953	0.0916200
197.13	300.00	432.966	99.953	0.116495
198.21	300.00	432.965	99.952	0.157946
199.29	300.00	432.965	99.952	0.176155
200.38	300.00	432.963	99.952	0.174276
201.46	300.00	432.963	99.952	0.163748
202.54	300.00	432.963	99.952	0.142545
203.63	300.00	432.963	99.952	0.143022
204.71	300.00	432.963	99.952	0.154333
205.79	300.00	432.961	99.952	0.110132
206.88	300.00	432.961	99.952	0.0593759
207.96	300.00	432.958	99.951	-5.37881e-3
209.04	300.00	432.959	99.951	-0.0735528
210.13	300.00	432.962	99.952	-0.191512
211.21	300.00	432.956	99.950	-0.230511
212.29	300.00	432.958	99.951	-0.243537
213.38	300.00	432.957	99.951	-0.237095
214.46	300.00	432.956	99.950	-0.195383
215.54	300.00	432.955	99.950	-0.161965
216.63	300.00	432.955	99.950	-0.154826
217.71	300.00	432.954	99.950	-0.104863
218.79	300.00	432.950	99.949	-0.0408183
219.88	300.00	432.952	99.949	9.00755e-3
220.96	300.00	432.951	99.949	0.0827875
222.04	300.00	432.952	99.949	0.184878
223.13	300.00	432.949	99.949	0.233650
224.21	300.00	432.950	99.949	0.245401
225.29	300.00	432.950	99.949	0.230772
226.38	300.00	432.949	99.949	0.198083
227.46	300.00	432.949	99.949	0.117910
228.54	300.00	432.947	99.948	0.0213919
229.63	300.00	432.947	99.948	-0.0609816
230.71	300.00	432.945	99.948	-0.0638151
231.79	300.00	432.945	99.948	-0.0627939
232.88	300.00	432.948	99.949	-0.0788064
233.96	300.00	432.945	99.948	-0.0808162
235.04	300.00	432.945	99.948	-0.0537943
236.13	300.00	432.943	99.947	1.68964e-3
237.21	300.00	432.944	99.948	0.0102074
238.29	300.00	432.944	99.948	0.0368005
239.38	300.00	432.943	99.947	0.114377
240.46	300.00	432.942	99.947	0.179884
241.54	300.00	432.945	99.948	0.226909
242.63	300.00	432.939	99.946	0.232750
243.71	300.00	432.940	99.947	0.199954
244.79	300.00	432.938	99.946	0.156346
245.88	300.00	432.940	99.947	0.136628
246.96	300.00	432.939	99.947	0.0621283
248.04	300.00	432.941	99.947	-0.0170874
249.13	300.00	432.940	99.947	-0.0888990
250.21	300.00	432.937	99.946	-0.124200
251.29	300.00	432.940	99.947	-0.164156
252.38	300.00	432.941	99.947	-0.173480
253.46	300.00	432.945	99.948	-0.155394
254.54	300.00	432.929	99.944	-0.152063
255.63	300.00	432.934	99.945	-0.0967818
256.71	300.00	432.937	99.946	0.0328743
257.79	300.00	432.934	99.945	0.127869
258.88	300.00	432.937	99.946	0.250555
259.96	300.00	432.931	99.945	0.279788
261.04	300.00	432.933	99.945	0.261300
262.13	300.00	432.932	99.945	0.252846
263.21	300.00	432.932	99.945	0.248487
264.29	300.00	432.931	99.945	0.256559
265.38	300.00	432.934	99.945	0.238279
266.46	300.00	432.932	99.945	0.246439
267.54	300.00	432.932	99.945	0.254892
268.63	300.00	432.931	99.945	0.227583
269.71	300.00	432.928	99.944	0.182146
270.79	300.00	432.929	99.944	0.118658
271.88	300.00	432.929	99.944	-0.0244425
272.96	300.00	432.929	99.944	-0.111563
274.04	300.00	432.929	99.944	-0.171331
275.13	300.00	432.928	99.944	-0.187646
276.21	300.00	432.925	99.943	-0.211509
277.29	300.00	432.927	99.944	-0.214003
278.38	300.00	432.925	99.943	-0.213077
279.46	300.00	432.925	99.943	-0.187895
280.54	300.00	432.924	99.943	-0.139992
281.63	300.00	432.924	99.943	-0.0901777
282.71	300.00	432.921	99.942	-0.0417681
283.79	300.00	432.921	99.942	0.0265369
284.88	300.00	432.921	99.942	0.0697520
285.96	300.00	432.919	99.942	0.0981680
287.04	300.00	432.920	99.942	0.142593
288.13	300.00	432.919	99.942	0.116367
289.21	300.00	432.921	99.942	0.117001
290.29	300.00	432.919	99.942	0.0734161
291.38	300.00	432.919	99.942	0.0250793
292.46	300.00	432.917	99.941	-0.0449324
293.54	300.00	432.917	99.941	-0.0679148
294.63	300.00	432.919	99.942	-0.0557294
295.71	300.00	432.919	99.942	-0.0556123
296.79	300.00	432.911	99.940	-5.62037e-3
297.88	300.00	432.919	99.942	0.0663609
298.96	300.00	432.914	99.941	0.112570
300.04	300.00	432.916	99.941	0.147247
301.13	300.00	432.915	99.941	0.172761
302.21	300.00	432.915	99.941	0.175485
303.29	300.00	432.913	99.941	0.182156
304.38	300.00	432.912	99.940	0.195544
305.46	300.00	432.911	99.940	0.217000
306.54	300.00	432.909	99.940	0.183524
307.63	300.00	432.907	99.939	0.102745
308.71	300.00	432.911	99.940	0.0343436
309.79	300.00	432.910	99.940	-0.0199223
310.88	300.00	432.912	99.940	-0.0319781
311.96	300.00	432.909	99.940	-0.0789265
313.04	300.00	432.909	99.940	-0.0926856
314.13	300.00	432.911	99.940	-0.0932696
315.21	300.00	432.910	99.940	-0.0999005
316.29	300.00	432.906	99.939	-0.154143
317.38	300.00	432.907	99.939	-0.182400
318.46	300.00	432.905	99.939	-0.199270
319.54	300.00	432.905	99.939	-0.192037
320.63	300.00	432.907	99.939	-0.164586
321.71	300.00	432.906	99.939	-0.108449
322.79	300.00	432.906	99.939	-0.0864759
323.88	300.00	432.904	99.938	-0.0205264
324.96	300.00	432.904	99.938	0.0365202
326.04	300.00	432.904	99.938	0.116901
327.13	300.00	432.904	99.938	0.154873
328.21	300.00	432.902	99.938	0.116397
329.29	300.00	432.902	99.938	0.0827978
330.38	300.00	432.900	99.938	0.126085
331.46	300.00	432.900	99.938	0.180789
332.54	300.00	432.898	99.937	0.225461
333.63	300.00	432.898	99.937	0.203824
334.71	300.00	432.899	99.937	0.138607
335.79	300.00	432.900	99.937	0.138245
336.88	300.00	432.898	99.937	0.0966556
337.96	300.00	432.900	99.938	0.0307555
339.04	300.00	432.897	99.937	-0.0578453
340.13	300.00	432.899	99.937	-0.0616164
341.21	300.00	432.898	99.937	-0.0232328
342.29	300.00	432.897	99.937	3.16791e-4
343.38	300.00	432.899	99.937	-6.59244e-3
344.46	300.00	432.896	99.937	0.0599387
345.54	300.00	432.895	99.936	0.0489700
346.63	300.00	432.897	99.937	0.0533905
347.71	300.00	432.896	99.937	0.0731562
348.79	300.00	432.896	99.936	0.0954750
349.88	300.00	432.897	99.937	0.158786
350.96	300.00	432.892	99.936	0.166385
352.04	300.00	432.894	99.936	0.150750
353.13	300.00	432.898	99.937	0.102712
354.21	300.00	432.894	99.936	0.0255520
355.29	300.00	432.895	99.936	-0.0674482
356.38	300.00	432.893	99.936	-0.156024
357.46	300.00	432.892	99.936	-0.179473
358.54	300.00	432.893	99.936	-0.180156
359.63	300.00	432.894	99.936	-0.188913
360.71	300.00	432.891	99.935	-0.135910
361.79	300.00	432.890	99.935	-0.0841736
362.88	300.00	432.889	99.935	-0.0587399
363.96	300.00	432.889	99.935	-8.49674e-3
365.04	300.00	432.889	99.935	0.0264746
366.13	300.00	432.889	99.935	0.0767455
367.21	300.00	432.886	99.934	0.111849
368.29	300.00	432.888	99.935	0.146080
369.38	300.00	432.887	99.934	0.113523
370.46	300.00	432.887	99.935	0.0681092
371.54	300.00	432.888	99.935	0.0485482
372.63	300.00	432.886	99.934	0.0313991
373.71	300.00	432.884	99.934	0.0716240
374.79	300.00	432.884	99.934	0.0890571
375.88	300.00	432.887	99.934	0.113191
376.96	300.00	432.887	99.935	0.114831
378.04	300.00	432.886	99.934	0.115906
379.13	300.00	432.883	99.934	0.120803
380.21	300.00	432.886	99.934	0.111081
381.29	300.00	432.881	99.933	0.0982969
382.38	300.00	432.884	99.934	0.102104
383.46	300.00	432.883	99.933	0.0904453
384.54	300.00	432.881	99.933	0.0775120
385.63	300.00	432.881	99.933	0.0238914
386.71	300.00	432.881	99.933	-0.106902
387.79	300.00	432.882	99.933	-0.142518
388.88	300.00	432.881	99.933	-0.178549
389.96	300.00	432.881	99.933	-0.171731
391.04	300.00	432.877	99.932	-0.127434
392.13	300.00	432.880	99.933	-0.0393147
393.21	300.00	432.879	99.932	0.0828852
394.29	300.00	432.878	99.932	0.149160
395.38	300.00	432.877	99.932	0.180709
396.46	300.00	432.878	99.932	0.191098
397.54	300.00	432.875	99.932	0.218233
398.63	300.00	432.875	99.932	0.263428
399.71	300.00	432.876	99.932	0.311144
400.79	300.00	432.875	99.932	0.305375
401.88	300.00	432.876	99.932	0.281439
402.96	300.00	432.877	99.932	0.185371
404.04	300.00	432.870	99.931	0.0587814
405.13	300.00	432.873	99.931	-0.0555868
406.21	300.00	432.872	99.931	-0.136773
407.29	300.00	432.873	99.931	-0.217998
408.38	300.00	432.868	99.930	-0.279222
409.46	300.00	432.872	99.931	-0.289646
410.54	300.00	432.869	99.930	-0.286274
411.63	300.00	432.869	99.930	-0.255832
412.71	300.00	432.868	99.930	-0.251268
413.79	300.00	432.871	99.931	-0.221672
414.88	300.00	432.867	99.930	-0.166476
415.96	300.00	432.870	99.930	-0.0664062
417.04	300.00	432.866	99.930	-0.0236604
418.13	300.00	432.867	99.930	-7.61197e-3
419.21	300.00	432.865	99.929	0.0918072
420.29	300.00	432.864	99.929	0.0923061
421.38	300.00	432.865	99.929	0.0906129
422.46	300.00	432.863	99.929	0.0254718
423.54	300.00	432.863	99.929	-0.0647250
424.63	300.00	432.863	99.929	-0.0159099
425.71	300.00	432.858	99.928	0.0825019
426.79	300.00	432.864	99.929	0.142398
427.88	300.00	432.860	99.928	0.151765
428.96	300.00	432.864	99.929	0.147135
430.04	300.00	432.858	99.928	0.137149
431.13	300.00	432.859	99.928	0.153656
432.21	300.00	432.856	99.927	0.191562
433.29	300.00	432.857	99.928	0.196426
434.38	300.00	432.857	99.928	0.186427
435.46	300.00	432.858	99.928	0.113796
436.54	300.00	432.855	99.927	0.110130
437.63	300.00	432.856	99.927	0.0908016
438.71	300.00	432.857	99.928	0.0691093
439.79	300.00	432.859	99.928	-0.0531580
440.88	300.00	432.854	99.927	-0.176958
441.96	300.00	432.854	99.927	-0.176848
443.04	300.00	432.855	99.927	-0.194985
444.13	300.00	432.854	99.927	-0.145382
445.21	300.00	432.850	99.926	-0.0336046
446.29	300.00	432.854	99.927	-0.0161509
447.38	300.00	432.852	99.926	0.0383479
448.46	300.00	432.850	99.926	0.0209319
449.54	300.00	432.849	99.926	0.0309499
450.63	300.00	432.851	99.926	0.0122047
451.71	300.00	432.851	99.926	0.0104113
452.79	300.00	432.848	99.925	0.0122650
453.88	300.00	432.847	99.925	0.0539871
454.96	300.00	432.846	99.925	0.105976
456.04	300.00	432.848	99.925	0.0908826
457.13	300.00	432.846	99.925	0.0960127
458.21	300.00	432.845	99.925	0.0264890
459.29	300.00	432.845	99.925	-0.0814164
460.38	300.00	432.844	99.924	-0.164998
461.46	300.00	432.844	99.924	-0.113489
462.54	300.00	432.842	99.924	-0.0198855
463.63	300.00	432.841	99.924	0.118703
464.71	300.00	432.843	99.924	0.201602
465.79	300.00	432.841	99.924	0.190991
466.88	300.00	432.841	99.924	0.211713
467.96	300.00	432.841	99.924	0.162579
469.04	300.00	432.841	99.924	0.129943
470.13	300.00	432.839	99.923	0.123418
471.21	300.00	432.838	99.923	0.0938998
472.29	300.00	432.836	99.923	0.0353546
473.38	300.00	432.840	99.924	-0.0368789
474.46	300.00	432.839	99.923	-0.0875065
475.54	300.00	432.840	99.923	-0.149876
476.63	300.00	432.834	99.922	-0.180533
477.71	300.00	432.836	99.923	-0.147859
478.79	300.00	432.834	99.922	-0.106225
479.88	300.00	432.835	99.923	-0.0975250
480.96	300.00	432.835	99.922	-0.102572
482.04	300.00	432.834	99.922	-0.0701970
483.13	300.00	432.834	99.922	-0.0298360
484.21	300.00	432.833	99.922	0.0262792
485.29	300.00	432.833	99.922	0.0873623
486.38	300.00	432.828	99.921	0.0926725
487.46	300.00	432.833	99.922	0.0720282
488.54	300.00	432.832	99.922	0.0363922
489.63	300.00	432.831	99.921	0.0331458
490.71	300.00	432.830	99.921	4.29343e-3
491.79	300.00	432.830	99.921	-0.0284522
492.88	300.00	432.832	99.922	-0.0228317
493.96	300.00	432.828	99.921	-5.43478e-3
495.04	300.00	432.831	99.922	0.0652869
496.13	300.00	432.826	99.920	0.148052
497.21	300.00	432.826	99.920	0.111791
498.29	300.00	432.827	99.921	-0.0113317
499.38	300.00	432.826	99.920	-0.0879316
500.46	300.00	432.826	99.920	-0.0882917
501.54	300.00	432.827	99.921	0.0264042
502.63	300.00	432.823	99.920	-1.45329e-3
503.71	300.00	432.825	99.920	-3.19275e-3
504.79	300.00	432.825	99.920	-0.0294606
505.88	300.00	432.824	99.920	-0.0397579
506.96	300.00	432.824	99.920	-0.0324272
508.04	300.00	432.823	99.920	-0.0207321
509.13	300.00	432.823	99.920	0.0390814
510.21	300.00	432.823	99.920	0.0628472
511.29	300.00	432.821	99.919	0.0919293
512.38	300.00	432.824	99.920	0.135594
513.46	300.00	432.821	99.919	0.178765
514.54	300.00	432.820	99.919	0.0865985
515.63	300.00	432.821	99.919	0.0757995
516.71	300.00	432.820	99.919	0.0836713
517.79	300.00	432.822	99.919	0.175248
518.88	300.00	432.822	99.919	0.128310
519.96	300.00	432.821	99.919	-0.0300613
521.04	300.00	432.818	99.919	-0.0998060
522.13	300.00	432.818	99.918	-0.0714610
523.21	300.00	432.817	99.918	-0.0186993
524.29	300.00	432.818	99.918	-5.79443e-3
525.38	300.00	432.813	99.917	-0.0172097
526.46	300.00	432.817	99.918	0.0189202
527.54	300.00	432.819	99.919	-1.96322e-3
528.63	300.00	432.815	99.918	-6.43692e-3
529.71	300.00	432.816	99.918	0.0140033
530.79	300.00	432.815	99.918	-9.92401e-3
531.88	300.00	432.815	99.918	-0.0159672
532.96	300.00	432.814	99.918	0.0136580
534.04	300.00	432.813	99.917	0.0725271
535.13	300.00	432.814	99.918	0.116424
536.21	300.00	432.811	99.917	0.128810
537.29	300.00	432.810	99.917	0.115449
538.38	300.00	432.812	99.917	0.110309
539.46	300.00	432.811	99.917	0.145878
540.54	300.00	432.810	99.917	0.174619
541.63	300.00	432.810	99.917	0.177530
542.71	300.00	432.810	99.917	0.150133
543.79	300.00	432.812	99.917	0.144366
544.88	300.00	432.810	99.917	0.123649
545.96	300.00	432.807	99.916	0.0869496
547.04	300.00	432.805	99.915	0.125035
548.13	300.00	432.809	99.916	0.116779
549.21	300.00	432.808	99.916	0.0994684
550.29	300.00	432.806	99.916	0.0494870
551.38	300.00	432.806	99.916	-0.0337140
552.46	300.00	432.807	99.916	-0.0681376
553.54	300.00	432.806	99.916	-0.0838516
554.63	300.00	432.806	99.916	-0.0710842
555.71	300.00	432.805	99.915	-0.0753890
556.79	300.00	432.806	99.916	-0.0985521
557.88	300.00	432.805	99.915	-0.0893879
558.96	300.00	432.805	99.915	-0.0937308
560.04	300.00	432.800	99.914	-0.124892
561.13	300.00	432.805	99.916	-0.0654893
562.21	300.00	432.803	99.915	-0.0543587
563.29	300.00	432.803	99.915	-4.02790e-3
564.38	300.00	432.804	99.915	0.0772051
565.46	300.00	432.802	99.915	0.147110
566.54	300.00	432.803	99.915	0.245299
567.63	300.00	432.804	99.915	0.248692
568.71	300.00	432.802	99.915	0.287513
569.79	300.00	432.801	99.915	0.259240
570.88	300.00	432.801	99.915	0.123468
571.96	300.00	432.800	99.914	0.110769
573.04	300.00	432.799	99.914	0.0917335
574.13	300.00	432.799	99.914	0.0609550
575.21	300.00	432.797	99.914	-4.80660e-3
576.29	300.00	432.798	99.914	-0.124452
577.38	300.00	432.798	99.914	-0.141725
578.46	300.00	432.798	99.914	-0.118584
579.54	300.00	432.797	99.914	-0.0998356
580.63	300.00	432.796	99.913	3.38873e-3
581.71	300.00	432.796	99.913	5.67145e-3
582.79	300.00	432.795	99.913	4.85409e-3
583.88	300.00	432.795	99.913	0.0699914
584.96	300.00	432.796	99.913	0.157425
586.04	300.00	432.793	99.913	0.180272
587.13	300.00	432.794	99.913	0.164954
588.21	300.00	432.793	99.913	0.0859985
589.29	300.00	432.795	99.913	0.0973707
590.38	300.00	432.793	99.913	0.0469550
591.46	300.00	432.793	99.913	0.0357346
592.54	300.00	432.791	99.912	-0.0358778
593.63	300.00	432.794	99.913	-0.121175
594.71	300.00	432.791	99.912	-0.135921
595.79	300.00	432.791	99.912	-0.135770
596.88	300.00	432.791	99.912	-0.0807859
597.96	300.00	432.789	99.912	-0.0285894
599.04	300.00	432.787	99.911	-8.79026e-3
600.13	300.00	432.790	99.912	-0.0163581
601.21	300.00	432.789	99.912	0.152154
602.29	300.00	432.788	99.912	0.229426
603.38	300.00	432.788	99.912	0.235221
604.46	300.00	432.787	99.911	0.263026
605.54	300.00	432.787	99.911	0.265053
606.63	300.00	432.787	99.911	0.224925
607.71	300.00	432.787	99.911	0.208567
608.79	300.00	432.786	99.911	0.124777
609.88	300.00	432.784	99.911	0.0222352
610.96	300.00	432.785	99.911	-0.0375972
612.04	300.00	432.784	99.911	-0.0790905
613.13	300.00	432.785	99.911	-0.0940520
614.21	300.00	432.783	99.910	-0.0621212
615.29	300.00	432.785	99.911	-0.0859834
616.38	300.00	432.783	99.910	-0.0717708
617.46	300.00	432.784	99.911	-0.0452085
618.54	300.00	432.781	99.910	5.20476e-3
619.63	300.00	432.781	99.910	0.0935377
620.71	300.00	432.782	99.910	0.120153
621.79	300.00	432.782	99.910	0.199632
622.88	300.00	432.777	99.909	0.108762
623.96	300.00	432.782	99.910	0.0257362
625.04	300.00	432.780	99.910	-0.0266683
626.13	300.00	432.780	99.910	-0.0798535
627.21	300.00	432.779	99.909	-0.107586
628.29	300.00	432.779	99.909	-0.0910140
629.38	300.00	432.778	99.909	-0.0553939
630.46	300.00	432.777	99.909	-0.0190689
631.54	300.00	432.777	99.909	0.0578388
632.63	300.00	432.775	99.909	0.0741314
633.71	300.00	432.779	99.910	0.116354
634.79	300.00	432.776	99.909	0.135963
635.88	300.00	432.775	99.909	0.188551
636.96	300.00	432.776	99.909	0.211096
638.04	300.00	432.776	99.909	0.202242
639.13	300.00	432.771	99.908	0.156477
640.21	300.00	432.774	99.908	0.102122
641.29	300.00	432.771	99.908	0.0713218
642.38	300.00	432.774	99.908	-0.0329080
643.46	300.00	432.777	99.909	-0.118914
644.54	300.00	432.773	99.908	-0.0921194
645.63	300.00	432.772	99.908	-0.0816200
646.71	300.00	432.772	99.908	-0.0527797
647.79	300.00	432.774	99.908	-0.0121479
648.88	300.00	432.775	99.909	0.0715916
649.96	300.00	432.771	99.908	0.0963906
651.04	300.00	432.770	99.907	0.167757
652.13	300.00	432.770	99.907	0.153559
653.21	300.00	432.769	99.907	0.107153
654.29	300.00	432.769	99.907	0.0643691
655.38	300.00	432.769	99.907	0.0671154
656.46	300.00	432.769	99.907	-0.0345534
657.54	300.00	432.769	99.907	-0.0396804
658.63	300.00	432.769	99.907	0.0556888
659.71	300.00	432.767	99.907	0.0366450
660.79	300.00	432.768	99.907	0.0575793
661.88	300.00	432.765	99.906	0.121911
662.96	300.00	432.766	99.906	0.145365
664.04	300.00	432.764	99.906	0.0901685
665.13	300.00	432.762	99.906	0.0352077
666.21	300.00	432.764	99.906	0.0470235
667.29	300.00	432.766	99.907	0.0822814
668.38	300.00	432.766	99.906	0.129052
669.46	300.00	432.764	99.906	0.0894088
670.54	300.00	432.764	99.906	0.0385206
671.63	300.00	432.761	99.905	6.96830e-3
672.71	300.00	432.762	99.906	-0.0637324
673.79	300.00	432.762	99.906	-0.0730112
674.88	300.00	432.761	99.905	-0.107149
675.96	300.00	432.761	99.905	-0.115275
677.04	300.00	432.761	99.905	-0.106435
678.13	300.00	432.760	99.905	-0.0656402
679.21	300.00	432.760	99.905	6.61598e-3
680.29	300.00	432.759	99.905	0.0154900
681.38	300.00	432.761	99.905	0.0113994
682.46	300.00	432.759	99.905	-0.0495650
683.54	300.00	432.758	99.905	-0.0617472
684.63	300.00	432.759	99.905	-0.0380124
685.71	300.00	432.758	99.905	6.15371e-3
686.79	300.00	432.757	99.904	0.0612961
687.88	300.00	432.759	99.905	0.102330
688.96	300.00	432.758	99.905	0.0837803
690.04	300.00	432.758	99.905	0.0456258
691.13	300.00	432.756	99.904	0.0274273
692.21	300.00	432.755	99.904	-9.05455e-3
693.29	300.00	432.757	99.904	1.37475e-3
694.38	300.00	432.755	99.904	0.0199965
695.46	300.00	432.755	99.904	0.0302202
696.54	300.00	432.754	99.904	0.125687
697.63	300.00	432.755	99.904	0.128145
698.71	300.00	432.753	99.903	0.0623363
699.79	300.00	432.753	99.903	-0.0172470
700.88	300.00	432.752	99.903	-0.0599660
701.96	300.00	432.752	99.903	-0.0839470
703.04	300.00	432.752	99.903	4.18448e-3
704.13	300.00	432.752	99.903	0.0733520
705.21	300.00	432.751	99.903	0.0491038
706.29	300.00	432.750	99.903	0.0444687
707.38	300.00	432.748	99.902	0.0270773
708.46	300.00	432.750	99.903	0.0425392
709.54	300.00	432.749	99.903	0.105631
710.63	300.00	432.751	99.903	0.141067
711.71	300.00	432.751	99.903	0.175921
712.79	300.00	432.749	99.903	0.122298
713.88	300.00	432.744	99.902	0.131958
714.96	300.00	432.747	99.902	0.0985623
716.04	300.00	432.749	99.903	0.0563221
717.13	300.00	432.743	99.901	0.0798555
718.21	300.00	432.747	99.902	0.0958016
719.29	300.00	432.745	99.902	0.159213
720.38	300.00	432.744	99.901	0.174466
721.46	300.00	432.743	99.901	0.113938
722.54	300.00	432.745	99.902	-4.83051e-3
723.63	300.00	432.744	99.902	-0.0388520
724.71	300.00	432.744	99.901	-0.0954457
725.79	300.00	432.743	99.901	-0.0982575
726.88	300.00	432.743	99.901	-0.0834561
727.96	300.00	432.743	99.901	-0.0554442
729.04	300.00	432.742	99.901	-0.0661475
730.13	300.00	432.742	99.901	-0.0782184
731.21	300.00	432.740	99.901	-0.107397
732.29	300.00	432.741	99.901	-0.0824885
733.38	300.00	432.740	99.900	4.55762e-4
734.46	300.00	432.739	99.900	0.0991761
735.54	300.00	432.742	99.901	0.165445
736.63	300.00	432.741	99.901	0.214940
737.71	300.00	432.738	99.900	0.183539
738.79	300.00	432.738	99.900	0.102420
739.88	300.00	432.737	99.900	0.0327465
740.96	300.00	432.736	99.900	-0.0234131
742.04	300.00	432.737	99.900	-0.0469913
743.13	300.00	432.737	99.900	-0.0326554
744.21	300.00	432.737	99.900	-0.0198954
745.29	300.00	432.736	99.900	-0.0212234
746.38	300.00	432.737	99.900	-0.0478722
747.46	300.00	432.734	99.899	-0.0536619
748.54	300.00	432.734	99.899	-0.0144163
749.63	300.00	432.734	99.899	0.0491904
750.71	300.00	432.733	99.899	0.0985292
751.79	300.00	432.733	99.899	0.149640
752.88	300.00	432.733	99.899	0.239794
753.96	300.00	432.735	99.899	0.288793
755.04	300.00	432.733	99.899	0.213792
756.13	300.00	432.732	99.899	0.112047
757.21	300.00	432.732	99.899	-1.24824e-3
758.29	300.00	432.731	99.898	-0.104359
759.38	300.00	432.730	99.898	-0.0780950
760.46	300.00	432.732	99.899	2.94454e-3
761.54	300.00	432.728	99.898	0.0515412
762.63	300.00	432.730	99.898	0.0586033
763.71	300.00	432.729	99.898	0.0787067
764.79	300.00	432.725	99.897	0.144700
765.88	300.00	432.726	99.897	0.206366
766.96	300.00	432.728	99.898	0.253319
768.04	300.00	432.726	99.897	0.292268
769.13	300.00	432.726	99.897	0.208730
770.21	300.00	432.726	99.897	0.102003
771.29	300.00	432.726	99.897	0.0607274
772.38	300.00	432.724	99.897	-0.0204103
773.46	300.00	432.725	99.897	-0.0622924
774.54	300.00	432.724	99.897	-0.113821
775.63	300.00	432.724	99.897	-0.159514
776.71	300.00	432.724	99.897	-0.194509
777.79	300.00	432.723	99.897	-0.177995
778.88	300.00	432.722	99.896	-0.132019
779.96	300.00	432.723	99.897	-0.0925791
781.04	300.00	432.721	99.896	-0.0910887
782.13	300.00	432.721	99.896	-0.0761723
783.21	300.00	432.720	99.896	-6.84619e-3
784.29	300.00	432.720	99.896	0.0637826
785.38	300.00	432.721	99.896	0.114269
786.46	300.00	432.719	99.896	0.106120
787.54	300.00	432.720	99.896	0.0199633
788.63	300.00	432.722	99.896	-8.47122e-3
789.71	300.00	432.717	99.895	-0.0986496
790.79	300.00	432.717	99.895	-0.0242276
791.88	300.00	432.717	99.895	-0.0578940
792.96	300.00	432.714	99.894	-0.0632020
794.04	300.00	432.715	99.895	-0.0705167
795.13	300.00	432.716	99.895	0.121198
796.21	300.00	432.715	99.895	0.237254
797.29	300.00	432.714	99.895	0.268369
798.38	300.00	432.715	99.895	0.253492
799.46	300.00	432.713	99.894	0.244061
800.54	300.00	432.712	99.894	0.234005
801.63	300.00	432.712	99.894	0.208323
802.71	300.00	432.714	99.894	0.215893
803.79	300.00	432.714	99.895	0.157354
804.88	300.00	432.711	99.894	0.107380
805.96	300.00	432.711	99.894	0.0492965
807.04	300.00	432.710	99.894	-0.0453860
808.13	300.00	432.709	99.893	-0.107286
809.21	300.00	432.708	99.893	-0.115556
810.29	300.00	432.712	99.894	-0.121858
811.38	300.00	432.711	99.894	-0.128220
812.46	300.00	432.707	99.893	-0.0327893
813.54	300.00	432.705	99.892	0.0527774
814.63	300.00	432.710	99.894	0.127325
815.71	300.00	432.708	99.893	0.196793
816.79	300.00	432.707	99.893	0.174073
817.88	300.00	432.704	99.892	0.194294
818.96	300.00	432.701	99.891	0.247545
820.04	300.00	432.705	99.892	0.276510
821.13	300.00	432.704	99.892	0.0752347
822.21	300.00	432.705	99.892	0.0162213
823.29	300.00	432.705	99.892	-8.68127e-3
824.38	300.00	432.704	99.892	-0.0999765
825.46	300.00	432.704	99.892	-0.159515
826.54	300.00	432.703	99.892	-0.129433
827.63	300.00	432.701	99.892	-0.181122
828.71	300.00	432.700	99.891	-0.0905112
829.79	300.00	432.702	99.892	0.0121382
830.88	300.00	432.701	99.892	0.0506195
831.96	300.00	432.700	99.891	0.0455127
833.04	300.00	432.701	99.892	0.0766213
834.13	300.00	432.701	99.891	0.0375375
835.21	300.00	432.697	99.891	0.0333672
836.29	300.00	432.702	99.892	0.0341598
837.38	300.00	432.701	99.892	-7.84826e-3
838.46	300.00	432.698	99.891	-0.106511
839.54	300.00	432.699	99.891	-0.154895
840.63	300.00	432.697	99.891	-0.182395
841.71	300.00	432.698	99.891	-0.230208
842.79	300.00	432.695	99.890	-0.242060
843.88	300.00	432.694	99.890	-0.257408
844.96	300.00	432.696	99.890	-0.215487
846.04	300.00	432.695	99.890	-0.0545615
847.13	300.00	432.695	99.890	0.118471
848.21	300.00	432.695	99.890	0.178232
849.29	300.00	432.695	99.890	0.195149
850.38	300.00	432.694	99.890	0.167094
851.46	300.00	432.697	99.890	0.0948007
852.54	300.00	432.693	99.890	0.0195019
853.63	300.00	432.693	99.890	-0.0169942
854.71	300.00	432.693	99.890	-0.0290539
855.79	300.00	432.692	99.890	-0.0324502
856.88	300.00	432.692	99.889	-7.45915e-3
857.96	300.00	432.691	99.889	-0.0183850
859.04	300.00	432.691	99.889	6.40980e-3
860.13	300.00	432.691	99.889	-8.53075e-3
861.21	300.00	432.690	99.889	0.0204939
862.29	300.00	432.692	99.890	0.0299945
863.38	300.00	432.689	99.889	0.0551345
864.46	300.00	432.689	99.889	0.108789
865.54	300.00	432.690	99.889	0.145147
866.63	300.00	432.690	99.889	0.147966
867.71	300.00	432.684	99.888	0.140920
868.79	300.00	432.688	99.889	0.110192
869.88	300.00	432.689	99.889	0.0868043
870.96	300.00	432.688	99.888	0.0266771
872.04	300.00	432.688	99.888	9.59031e-3
873.13	300.00	432.687	99.888	0.0335315
874.21	300.00	432.688	99.889	0.0335149
875.29	300.00	432.688	99.888	-0.0481592
876.38	300.00	432.686	99.888	-0.118582
877.46	300.00	432.685	99.888	-0.129111
878.54	300.00	432.686	99.888	-0.0937491
879.63	300.00	432.686	99.888	-0.0403436
880.71	300.00	432.684	99.888	0.0102182
881.79	300.00	432.685	99.888	0.0920694
882.88	300.00	432.685	99.888	0.106378
883.96	300.00	432.684	99.887	0.0953841
885.04	300.00	432.683	99.887	0.0100340
886.13	300.00	432.684	99.888	-0.0293655
887.21	300.00	432.683	99.887	-0.0371317
888.29	300.00	432.684	99.887	-0.0267839
889.38	300.00	432.683	99.887	-2.44206e-4
890.46	300.00	432.685	99.888	7.35903e-3
891.54	300.00	432.686	99.888	0.0151133
892.63	300.00	432.683	99.887	0.0203667
893.71	300.00	432.682	99.887	0.0198122
894.79	300.00	432.683	99.887	0.0175309
895.88	300.00	432.683	99.887	0.0246071
896.96	300.00	432.683	99.887	0.0487469
898.04	300.00	432.681	99.887	0.0731414
899.13	300.00	432.682	99.887	0.0910878
900.21	300.00	432.680	99.887	0.0920051
901.29	300.00	432.679	99.886	0.107103
902.38	300.00	432.683	99.887	0.122031
903.46	300.00	432.681	99.887	0.0945246
904.54	300.00	432.681	99.887	0.0354297
905.63	300.00	432.680	99.887	0.0290032
906.71	300.00	432.680	99.887	0.0294723
907.79	300.00	432.680	99.887	0.0420104
908.88	300.00	432.680	99.887	0.0487839
909.96	300.00	432.680	99.887	0.0340401
911.04	300.00	432.681	99.887	6.20328e-3
912.13	300.00	432.681	99.887	-0.0272037
913.21	300.00	432.680	99.887	-0.0455584
914.29	300.00	432.681	99.887	-0.0455104
915.38	300.00	432.678	99.886	-0.0365474
916.46	300.00	432.678	99.886	-8.62656e-3
917.54	300.00	432.678	99.886	0.0206135
918.63	300.00	432.677	99.886	0.0608167
919.71	300.00	432.679	99.886	0.0403767
920.79	300.00	432.678	99.886	-0.0137540
921.88	300.00	432.678	99.886	-0.0517220
922.96	300.00	432.677	99.886	-0.0948036
924.04	300.00	432.675	99.885	-0.0621752
925.13	300.00	432.677	99.886	-9.25917e-3
926.21	300.00	432.674	99.885	0.0205875
927.29	300.00	432.676	99.886	0.0440619
928.38	300.00	432.675	99.886	0.0867661
929.46	300.00	432.674	99.885	0.0930125
930.54	300.00	432.674	99.885	0.0749320
931.63	300.00	432.676	99.886	0.0561634
932.71	300.00	432.676	99.886	0.0517899
933.79	300.00	432.675	99.886	0.0473947
934.88	300.00	432.673	99.885	0.0430610
935.96	300.00	432.669	99.884	0.0205624
937.04	300.00	432.666	99.883	0.0215952
938.13	300.00	432.674	99.885	0.0174316
939.21	300.00	432.672	99.885	-2.33032e-3
940.29	300.00	432.676	99.886	-0.0194170
941.38	300.00	432.673	99.885	-9.92869e-3
942.46	300.00	432.674	99.885	0.0749126
943.54	300.00	432.673	99.885	0.137186
944.63	300.00	432.671	99.885	0.140572
945.71	300.00	432.673	99.885	0.143798
946.79	300.00	432.672	99.885	0.141903
947.88	300.00	432.672	99.885	0.131312
948.96	300.00	432.669	99.884	0.0940542
950.04	300.00	432.672	99.885	0.0707612
951.13	300.00	432.671	99.884	0.0553036
952.21	300.00	432.669	99.884	5.80254e-3
953.29	300.00	432.669	99.884	-0.0346189
954.38	300.00	432.673	99.885	-0.0579967
955.46	300.00	432.671	99.885	-0.0723814
956.54	300.00	432.670	99.884	-0.0896991
957.63	300.00	432.669	99.884	-0.0905602
958.71	300.00	432.672	99.885	-0.0551374
959.79	300.00	432.670	99.884	6.19679e-3
960.88	300.00	432.666	99.883	0.0892506
961.96	300.00	432.667	99.884	0.200190
963.04	300.00	432.669	99.884	0.240783
964.13	300.00	432.667	99.884	0.252728
965.21	300.00	432.666	99.883	0.212041
966.29	300.00	432.664	99.883	0.151198
967.38	300.00	432.668	99.884	0.120135
968.46	300.00	432.665	99.883	0.0777401
969.54	300.00	432.666	99.883	0.0510228
970.63	300.00	432.666	99.883	2.89874e-3
971.71	300.00	432.665	99.883	-0.0624247
972.79	300.00	432.664	99.883	-0.0793205
973.88	300.00	432.662	99.882	-0.0563761
974.96	300.00	432.659	99.882	-6.09550e-3
976.04	300.00	432.659	99.882	0.0554291
977.13	300.00	432.663	99.883	0.0983920
978.21	300.00	432.665	99.883	0.109337
979.29	300.00	432.663	99.883	0.110385
980.38	300.00	432.661	99.882	0.112520
981.46	300.00	432.663	99.883	0.109993
982.54	300.00	432.660	99.882	0.100559
983.63	300.00	432.656	99.881	0.0937914
984.71	300.00	432.660	99.882	0.0905638
985.79	300.00	432.662	99.883	0.0825057
986.88	300.00	432.662	99.882	0.0636760
987.96	300.00	432.661	99.882	0.0344222
989.04	300.00	432.658	99.881	-0.0397594
990.13	300.00	432.659	99.882	-0.107816
991.21	300.00	432.659	99.882	-0.149230
992.29	300.00	432.659	99.882	-0.150505
993.38	300.00	432.658	99.881	-0.157340
994.46	300.00	432.655	99.881	-0.188548
995.54	300.00	432.656	99.881	-0.185816
996.63	300.00	432.656	99.881	-0.192525
997.71	300.00	432.656	99.881	-0.222396
998.79	300.00	432.655	99.881	-0.216420
999.88	300.00	432.653	99.881	-0.230247
1000.96	300.00	432.653	99.880	-0.237175
1002.04	300.00	432.656	99.881	-0.234703
1003.13	300.00	432.653	99.880	-0.151506
1004.21	300.00	432.655	99.881	-0.0969629
1005.29	300.00	432.653	99.881	-0.0168197
1006.38	300.00	432.652	99.880	0.0341618
1007.46	300.00	432.653	99.880	0.0933360
1008.54	300.00	432.654	99.881	0.144222
1009.63	300.00	432.650	99.880	0.107800
1010.71	300.00	432.652	99.880	0.134860
1011.79	300.00	432.651	99.880	0.122706
1012.88	300.00	432.651	99.880	0.108543
1013.96	300.00	432.648	99.879	7.18590e-3
1015.04	300.00	432.649	99.880	-2.39418e-3
1016.13	300.00	432.650	99.880	0.0271180
1017.21	300.00	432.646	99.879	0.0357278
1018.29	300.00	432.646	99.879	0.0421932
1019.38	300.00	432.647	99.879	0.0624035
1020.46	300.00	432.645	99.879	0.0871918
1021.54	300.00	432.647	99.879	0.0833900
1022.63	300.00	432.647	99.879	0.0641014
1023.71	300.00	432.646	99.879	0.0495774
1024.79	300.00	432.648	99.879	0.0579627
1025.88	300.00	432.646	99.879	0.0701873
1026.96	300.00	432.647	99.879	0.0711094
1028.04	300.00	432.646	99.879	0.0538405
1029.13	300.00	432.646	99.879	0.0660422
1030.21	300.00	432.645	99.878	0.0395580
1031.29	300.00	432.645	99.878	0.0392843
1032.38	300.00	432.641	99.878	0.0482418
1033.46	300.00	432.641	99.878	0.107081
1034.54	300.00	432.643	99.878	0.0700063
1035.63	300.00	432.640	99.877	8.96150e-3
1036.71	300.00	432.644	99.878	-6.51982e-3
1037.79	300.00	432.641	99.878	-0.0481781
1038.88	300.00	432.641	99.878	-0.115702
1039.96	300.00	432.640	99.877	-0.174782
1041.04	300.00	432.641	99.878	-0.212208
1042.13	300.00	432.637	99.877	-0.220143
1043.21	300.00	432.638	99.877	-0.225456
1044.29	300.00	432.636	99.877	-0.228397
1045.38	300.00	432.636	99.877	-0.213003
1046.46	300.00	432.633	99.876	-0.183257
1047.54	300.00	432.635	99.876	-0.157340
1048.63	300.00	432.633	99.876	-0.128124
1049.71	300.00	432.637	99.877	-0.0470220
1050.79	300.00	432.634	99.876	0.0259407
1051.88	300.00	432.635	99.876	0.0500824
1052.96	300.00	432.633	99.876	0.128053
1054.04	300.00	432.633	99.876	0.186631
1055.13	300.00	432.633	99.876	0.156925
1056.21	300.00	432.633	99.876	0.0897232
1057.29	300.00	432.632	99.876	0.0419074
1058.38	300.00	432.631	99.875	0.0266144
1059.46	300.00	432.629	99.875	0.0631351
1060.54	300.00	432.629	99.875	0.0647488
1061.63	300.00	432.629	99.875	0.0767963
1062.71	300.00	432.632	99.875	0.0869193
1063.79	300.00	432.630	99.875	0.104493
1064.88	300.00	432.631	99.875	0.116267
1065.96	300.00	432.630	99.875	0.109392
1067.04	300.00	432.630	99.875	0.107295
1068.13	300.00	432.628	99.875	0.0882241
1069.21	300.00	432.630	99.875	0.100539
1070.29	300.00	432.630	99.875	0.110953
1071.38	300.00	432.631	99.875	0.118561
1072.46	300.00	432.627	99.874	0.131301
1073.54	300.00	432.626	99.874	0.135992
1074.63	300.00	432.629	99.875	0.0724636
1075.71	300.00	432.627	99.874	0.0341999
1076.79	300.00	432.629	99.875	0.0349153
1077.88	300.00	432.627	99.874	0.0520509
1078.96	300.00	432.626	99.874	0.0451418
1080.04	300.00	432.622	99.873	-0.0125294
1081.13	300.00	432.625	99.874	-0.0637950
1082.21	300.00	432.629	99.875	-0.0746424
1083.29	300.00	432.623	99.873	-0.105677
1084.38	300.00	432.628	99.875	-0.130016
1085.46	300.00	432.622	99.873	-0.183534
1086.54	300.00	432.623	99.874	-0.179673
1087.63	300.00	432.624	99.874	-0.171685
1088.71	300.00	432.622	99.873	-0.173760
1089.79	300.00	432.621	99.873	-0.161644
1090.88	300.00	432.621	99.873	-0.137686
1091.96	300.00	432.621	99.873	-0.134576
1093.04	300.00	432.620	99.873	-0.0922149
1094.13	300.00	432.622	99.873	-0.0505378
1095.21	300.00	432.619	99.873	-0.0309796
1096.29	300.00	432.620	99.873	2.15514e-3
1097.38	300.00	432.619	99.873	0.0298673
1098.46	300.00	432.616	99.872	0.0746717
1099.54	300.00	432.618	99.872	0.169551
1100.63	300.00	432.617	99.872	0.184902
1101.71	300.00	432.617	99.872	0.170706
1102.79	300.00	432.616	99.872	0.152199
1103.88	300.00	432.615	99.872	0.138609
1104.96	300.00	432.617	99.872	0.141983
1106.04	300.00	432.615	99.872	0.135203
1107.13	300.00	432.618	99.872	0.119250
1108.21	300.00	432.617	99.872	0.0974573
1109.29	300.00	432.614	99.871	0.0568491
1110.38	300.00	432.615	99.872	0.0153970
1111.46	300.00	432.616	99.872	-0.0273402
1112.54	300.00	432.614	99.871	-0.0833641
1113.63	300.00	432.613	99.871	-0.127405
1114.71	300.00	432.616	99.872	-0.128369
1115.79	300.00	432.613	99.871	-0.113841
1116.88	300.00	432.612	99.871	-0.0851859
1117.96	300.00	432.614	99.872	-0.0434753
1119.04	300.00	432.614	99.871	0.0174310
1120.13	300.00	432.613	99.871	0.0616993
1121.21	300.00	432.613	99.871	0.120636
1122.29	300.00	432.613	99.871	0.148403
1123.38	300.00	432.612	99.871	0.155255
1124.46	300.00	432.613	99.871	0.142432
1125.54	300.00	432.610	99.870	0.113095
1126.63	300.00	432.610	99.871	0.0554756
1127.71	300.00	432.610	99.870	-9.04979e-4
1128.79	300.00	432.609	99.870	-0.0379105
1129.88	300.00	432.608	99.870	-0.128582
1130.96	300.00	432.605	99.869	-0.195681
1132.04	300.00	432.611	99.871	-0.206542
1133.13	300.00	432.608	99.870	-0.213268
1134.21	300.00	432.607	99.870	-0.199967
1135.29	300.00	432.609	99.870	-0.149688
1136.38	300.00	432.607	99.870	-0.0677856
1137.46	300.00	432.603	99.869	0.0254351
1138.54	300.00	432.605	99.869	0.103518
1139.63	300.00	432.603	99.869	0.169417
1140.71	300.00	432.605	99.869	0.213819
1141.79	300.00	432.606	99.870	0.210717
1142.88	300.00	432.601	99.868	0.192784
1143.96	300.00	432.604	99.869	0.136146
1145.04	300.00	432.601	99.868	0.112579
1146.13	300.00	432.599	99.868	0.0988600
1147.21	300.00	432.600	99.868	0.0636771
1148.29	300.00	432.602	99.869	0.0647430
1149.38	300.00	432.599	99.868	0.0590423
1150.46	300.00	432.601	99.869	0.0542850
1151.54	300.00	432.600	99.868	0.0750412
1152.63	300.00	432.600	99.868	0.0959516
1153.71	300.00	432.601	99.868	0.0893070
1154.79	300.00	432.601	99.868	0.122884
1155.88	300.00	432.603	99.869	0.131727
1156.96	300.00	432.600	99.868	0.147171
1158.04	300.00	432.596	99.867	0.168856
1159.13	300.00	432.600	99.868	0.168484
1160.21	300.00	432.598	99.868	0.154726
1161.29	300.00	432.596	99.867	0.133168
1162.38	300.00	432.598	99.868	0.0696857
1163.46	300.00	432.597	99.868	-0.0198361
1164.54	300.00	432.597	99.868	-0.0520316
1165.63	300.00	432.598	99.868	-0.0600910
1166.71	300.00	432.597	99.867	-0.0835798
1167.79	300.00	432.598	99.868	-0.0378727
1168.88	300.00	432.597	99.867	0.0188232
1169.96	300.00	432.598	99.868	0.0109264
1171.04	300.00	432.595	99.867	-0.0975236
1172.13	300.00	432.596	99.867	-0.163475
1173.21	300.00	432.593	99.866	-0.191245
1174.29	300.00	432.594	99.867	-0.189884
1175.38	300.00	432.592	99.866	-0.182305
1176.46	300.00	432.592	99.866	-0.173440
1177.54	300.00	432.587	99.865	-0.150036
1178.63	300.00	432.591	99.866	-0.100097
1179.71	300.00	432.590	99.866	-0.0482693
1180.79	300.00	432.591	99.866	-0.0152360
1181.88	300.00	432.588	99.865	0.0117338
1182.96	300.00	432.588	99.865	0.0334691
1184.04	300.00	432.587	99.865	0.0405295
1185.13	300.00	432.587	99.865	0.0546392
1186.21	300.00	432.590	99.866	0.0394277
1187.29	300.00	432.587	99.865	0.0515920
1188.38	300.00	432.585	99.865	0.0421304
1189.46	300.00	432.586	99.865	0.0404875
1190.54	300.00	432.586	99.865	0.0374300
1191.63	300.00	432.584	99.865	0.0377510
1192.71	300.00	432.585	99.865	0.0194818
1193.79	300.00	432.587	99.865	0.0332225
1194.88	300.00	432.586	99.865	0.0574743
1195.96	300.00	432.584	99.864	0.0781703
1197.04	300.00	432.583	99.864	0.0866568
1198.13	300.00	432.584	99.865	0.0972532
1199.21	300.00	432.583	99.864	0.105020
1200.29	300.00	432.586	99.865	0.0880145
1201.38	300.00	432.584	99.865	0.0646094
1202.46	300.00	432.583	99.864	0.0349624
1203.54	300.00	432.584	99.865	-7.00416e-3
1204.63	300.00	432.581	99.864	-0.0235433
1205.71	300.00	432.582	99.864	-0.0433891
1206.79	300.00	432.583	99.864	-0.0549527
1207.88	300.00	432.581	99.864	-0.0803697
1208.96	300.00	432.580	99.864	-0.0658673
1210.04	300.00	432.581	99.864	-0.0661787
1211.13	300.00	432.579	99.863	-0.0711958
1212.21	300.00	432.580	99.863	-0.0765151
1213.29	300.00	432.580	99.863	-0.0896940
1214.38	300.00	432.581	99.864	-0.100321
1215.46	300.00	432.578	99.863	-0.102464
1216.54	300.00	432.578	99.863	-0.113885
1217.63	300.00	432.578	99.863	-0.127283
1218.71	300.00	432.576	99.863	-0.151854
1219.79	300.00	432.575	99.862	-0.134101
1220.88	300.00	432.575	99.862	-0.0805052
1221.96	300.00	432.575	99.862	-0.0325170
1223.04	300.00	432.576	99.863	0.109893
1224.13	300.00	432.575	99.862	0.267268
1225.21	300.00	432.575	99.862	0.299792
1226.29	300.00	432.576	99.863	0.271315
1227.38	300.00	432.569	99.861	0.247630
1228.46	300.00	432.573	99.862	0.206391
1229.54	300.00	432.572	99.862	0.196961
1230.63	300.00	432.574	99.862	0.129284
1231.71	300.00	432.570	99.861	0.0728665
1232.79	300.00	432.574	99.862	0.0450821
1233.88	300.00	432.571	99.862	0.0112403
1234.96	300.00	432.572	99.862	-0.0370409
1236.04	300.00	432.572	99.862	-0.0554001
1237.13	300.00	432.572	99.862	-0.0158597
1238.21	300.00	432.570	99.861	0.0374624
1239.29	300.00	432.571	99.862	0.0420625
1240.38	300.00	432.570	99.861	0.0560996
1241.46	300.00	432.569	99.861	0.0686707
1242.54	300.00	432.569	99.861	0.0840842
1243.63	300.00	432.570	99.861	0.103166
1244.71	300.00	432.571	99.861	0.0928558
1245.79	300.00	432.569	99.861	0.100248
1246.88	300.00	432.570	99.861	0.0881369
1247.96	300.00	432.569	99.861	0.0679077
1249.04	300.00	432.570	99.861	0.0423449
1250.13	300.00	432.567	99.861	-0.0114821
1251.21	300.00	432.566	99.860	-0.0847107
1252.29	300.00	432.570	99.861	-0.159112
1253.38	300.00	432.566	99.860	-0.193426
1254.46	300.00	432.564	99.860	-0.218151
1255.54	300.00	432.569	99.861	-0.226652
1256.63	300.00	432.566	99.860	-5.50329e-3
1257.71	300.00	432.566	99.860	-2.26162e-4
1258.79	300.00	432.566	99.860	-4.63770e-5
1259.88	300.00	432.565	99.860	-4.87798e-5
1260.96	300.00	432.565	99.860	-4.33678e-5
1262.04	300.00	432.562	99.859	-4.94414e-5
1263.13	300.00	432.562	99.859	-6.40209e-5
1264.21	300.00	432.562	99.859	-8.57259e-5
1265.29	300.95	432.562	99.859	-1.29290e-4
1266.38	307.39	432.564	99.860	-2.02767e-4
1267.46	316.92	432.563	99.860	-3.26310e-4
1268.54	326.89	432.560	99.859	-5.31764e-4
1269.63	337.09	432.558	99.858	-8.60136e-4
1270.71	347.64	432.551	99.857	-1.33464e-3
1271.79	358.49	432.539	99.854	-1.89860e-3
1272.88	369.51	432.517	99.849	-2.44703e-3
1273.96	380.57	432.470	99.838	-2.93247e-3
1275.04	391.59	432.383	99.818	-3.32653e-3
1276.13	402.55	432.225	99.782	-3.59955e-3
1277.21	413.46	431.953	99.719	-3.74699e-3
1278.29	424.34	431.532	99.622	-3.76904e-3
1279.38	435.20	431.065	99.514	-3.66531e-3
1280.46	446.06	430.762	99.444	-3.43252e-3
1281.54	456.91	430.645	99.417	-3.07759e-3
1282.63	467.77	430.610	99.409	-2.61023e-3
1283.71	478.64	430.599	99.406	-2.05350e-3
1284.79	489.51	430.601	99.407	-1.45016e-3
1285.88	500.39	430.602	99.407	-8.70317e-4
1286.96	511.26	430.595	99.405	-4.11667e-4
1288.04	522.12	430.605	99.408	-1.44704e-4
1289.13	532.98	430.600	99.407	-3.74029e-5
1290.21	543.84	430.601	99.407	-6.10373e-6
1291.29	554.70	430.593	99.405	1.83934e-6
1292.38	565.56	430.604	99.407	3.27554e-6
1293.46	576.42	430.597	99.406	4.33047e-6
1294.54	587.28	430.601	99.407	5.66154e-6
1295.63	598.13	430.602	99.407	6.56914e-6
1296.71	608.99	430.602	99.407	8.61099e-6
1297.79	619.84	430.602	99.407	9.63423e-6
1298.88	630.70	430.603	99.407	1.06567e-5
1299.96	641.55	430.602	99.407	1.09109e-5
1301.04	652.41	430.603	99.407	1.15534e-5
1302.13	663.26	430.604	99.407	1.29838e-5
1303.21	674.11	430.609	99.409	1.40320e-5
1304.29	684.96	430.606	99.408	1.77917e-5
1305.38	695.81	430.606	99.408	1.95043e-5
1306.46	706.66	430.606	99.408	2.04112e-5
1307.54	717.51	430.606	99.408	2.13304e-5
1308.63	728.36	430.615	99.410	2.23011e-5
1309.71	739.21	430.606	99.408	2.29614e-5
1310.79	750.06	430.609	99.408	2.37006e-5
1311.88	760.90	430.621	99.411	2.69466e-5
1312.96	771.75	430.609	99.408	2.98628e-5
1314.04	782.59	430.616	99.410	3.35750e-5
1314.46	786.76	430.615	99.410	3.40717e-5