File: data/TGA/005d-L_M/L2_000001 -temp_104 AMU_XIC
Time	Ion Current
min	mA
0.00	2.32518e-4
0.97	2.84536e-4
1.94	2.30317e-4
2.91	2.24640e-4
3.88	1.98573e-4
4.85	2.05872e-4
5.82	2.09811e-4
6.79	2.02975e-4
7.76	1.92780e-4
8.73	1.75750e-4
9.70	2.25914e-4
10.67	2.34719e-4
11.64	1.64049e-4
12.61	1.54201e-4
13.58	2.00079e-4
14.55	1.73201e-4
15.52	1.67408e-4
16.49	1.23847e-4
17.46	1.09366e-4
18.43	1.23036e-4
19.40	1.37171e-4
20.37	1.72622e-4
21.34	1.46786e-4
22.31	1.19329e-4
23.28	1.66250e-4
24.25	5.75792e-5
25.22	1.11799e-4
26.19	6.42987e-5
27.16	8.00548e-5
28.13	1.01719e-4
29.10	1.15853e-4
30.07	9.63901e-5
31.04	8.71218e-5
32.01	5.29450e-5
32.98	1.72622e-5
33.95	5.31767e-5
34.92	6.07072e-5
35.89	6.80060e-5
36.86	8.78169e-5
37.83	7.76218e-5
38.80	5.79267e-5
39.77	5.89694e-5
40.74	6.12865e-5
41.71	3.05853e-5
42.68	5.08597e-5
43.65	3.24390e-5
44.62	5.64206e-5
45.59	2.35183e-5
46.56	4.06646e-5
47.53	5.73475e-5
48.50	2.47926e-5
49.47	6.09389e-5
50.44	2.66463e-5
51.41	1.36707e-5
52.38	3.49877e-5
53.35	1.64512e-5
54.32	1.21646e-5
55.29	1.66829e-5
56.26	4.63414e-7
57.23	1.36707e-5
58.20	3.71890e-5
59.17	1.00000e-13
60.14	3.88109e-5
61.11	1.00000e-13
62.08	2.52561e-5
63.05	1.00000e-13
64.02	4.56463e-5
64.99	1.15853e-6
65.96	8.80486e-6
66.93	7.29877e-6
67.90	1.00000e-13
68.87	1.00000e-13
69.84	8.45730e-6
70.81	1.40183e-5
71.78	1.00000e-13
72.75	1.79573e-5
73.72	2.25914e-5
74.69	8.92072e-6
75.66	2.60670e-5
76.63	1.00000e-13
77.60	1.00000e-13
78.57	9.49998e-6
79.54	1.00000e-13
80.51	2.20122e-5
81.48	1.00000e-13
82.45	1.00000e-13
83.42	1.59878e-5
84.39	7.06706e-6
85.36	1.04268e-6
86.33	1.00000e-13
87.30	5.56097e-6
88.27	1.04268e-5
89.24	3.01219e-6
90.21	1.00000e-13
91.18	1.70305e-5
92.15	1.00000e-13
93.12	1.00000e-13
94.09	1.00000e-13
95.06	1.00000e-13
96.03	1.00000e-13
97.00	1.00000e-13
97.97	5.09755e-6
98.94	1.00000e-13
99.91	1.58719e-5
100.88	1.00000e-13
101.85	2.50244e-5
102.82	3.90426e-5
103.79	2.61829e-5
104.76	1.00000e-13
105.73	1.00000e-13
106.70	4.74999e-6
107.67	1.00000e-13
108.64	1.00000e-13
109.61	1.00000e-13
110.58	1.43658e-5
111.55	1.36707e-5
112.52	1.00000e-13
113.49	6.37194e-6
114.46	1.00000e-13
115.43	1.00000e-13
116.40	1.00000e-13
117.37	1.00000e-13
118.34	1.00000e-13
119.31	1.15853e-6
120.28	1.00000e-13
121.25	1.00000e-13
122.22	1.00000e-13
123.19	1.00000e-13
124.16	1.00000e-13
125.13	1.00000e-13
126.10	2.31707e-6
127.07	1.00000e-13
128.04	1.00000e-13
129.01	1.00000e-13
129.98	1.00000e-13
130.95	1.00000e-13
131.92	1.00000e-13
132.89	1.00000e-13
133.86	1.00000e-13
134.83	1.00000e-13
135.80	1.00000e-13
136.77	3.24390e-6
137.74	1.00000e-13
138.71	4.17073e-6
139.68	4.63414e-6
140.65	1.00000e-13
141.62	1.00000e-13
142.59	1.00000e-13
143.55	1.00000e-13
144.52	1.00000e-13
145.50	1.00000e-13
146.47	1.23963e-5
147.44	1.96951e-6
148.41	1.00000e-13
149.38	1.00000e-13
150.35	6.48779e-6
151.32	1.00000e-13
152.29	1.00000e-13
153.26	1.00000e-13
154.23	1.00000e-13
155.20	1.00000e-13
156.17	9.49998e-6
157.13	1.00000e-13
158.11	1.00000e-13
159.08	1.00000e-13
160.05	1.00000e-13
161.02	1.00000e-13
161.98	1.00000e-13
162.96	1.00000e-13
163.93	1.96951e-6
164.90	1.00000e-13
165.87	1.00000e-13
166.84	1.00000e-13
167.80	1.00000e-13
168.77	1.00000e-13
169.75	1.00000e-13
170.72	1.00000e-13
171.69	8.92072e-6
172.65	1.00000e-13
173.62	1.00000e-13
174.60	1.00000e-13
175.56	2.78048e-6
176.54	1.00000e-13
177.50	1.00000e-13
178.48	1.00000e-13
179.44	1.00000e-13
180.41	1.00000e-13
181.38	1.00000e-13
182.36	1.00000e-13
183.32	1.00000e-13
184.29	1.00000e-13
185.26	1.00000e-13
186.23	1.00000e-13
187.21	1.00000e-13
188.17	2.08536e-6
189.14	3.70731e-6
190.11	1.00000e-13
191.09	1.00000e-13
192.05	1.00000e-13
193.02	1.00000e-13
193.99	1.00000e-13
194.96	1.00000e-13
195.93	1.00000e-13
196.90	1.00000e-13
197.87	1.00000e-13
198.84	1.00000e-13
199.81	1.00000e-13
200.78	1.00000e-13
201.75	1.00000e-13
202.72	1.15853e-6
203.69	1.00000e-13
204.66	1.00000e-13
205.64	1.00793e-5
206.60	1.00000e-13
207.57	4.28658e-6
208.54	2.60670e-5
209.51	1.40183e-5
210.48	1.00000e-13
211.45	1.00000e-13
212.42	1.00000e-13
213.39	1.00000e-13
214.36	1.00000e-13
215.33	1.00000e-13
216.30	1.00000e-13
217.27	1.00000e-13
218.24	1.51768e-5
219.21	1.00000e-13
220.18	1.00000e-13
221.15	1.00000e-13
222.12	1.00000e-13
223.09	1.00000e-13
224.06	1.00000e-13
225.03	1.00000e-13
226.00	1.00000e-13
226.97	6.88170e-5
227.94	4.63414e-7
228.91	1.00000e-13
229.88	1.00000e-13
230.85	1.00000e-13
231.82	1.00000e-13
232.79	1.00000e-13
233.76	1.11219e-5
234.73	1.00000e-13
235.70	1.00000e-13
236.67	1.00000e-13
237.64	1.00000e-13
238.61	1.00000e-13
239.58	1.00000e-13
240.55	2.09695e-5
241.52	2.06219e-5
242.49	1.00000e-13
243.46	1.00000e-13
244.43	1.00000e-13
245.40	1.00000e-13
246.37	1.00000e-13
247.34	2.16646e-5
248.31	1.00000e-13
249.28	1.00000e-13
250.25	3.82316e-6
251.22	1.00000e-13
252.19	1.00000e-13
253.16	1.00000e-13
254.13	1.00000e-13
255.10	1.00000e-13
256.07	1.00000e-13
257.04	1.00000e-13
258.01	1.00000e-13
258.98	1.00000e-13
259.95	1.00000e-13
260.92	1.00000e-13
261.89	1.00000e-13
262.86	1.00000e-13
263.83	1.61036e-5
264.80	1.00000e-13
265.77	1.00000e-13
266.74	1.00000e-13
267.71	1.00000e-13
268.68	3.61463e-5
269.65	1.00000e-13
270.62	1.00000e-13
271.59	1.00000e-13
272.56	1.00000e-13
273.53	1.00000e-13
274.50	1.00000e-13
275.47	1.00000e-13
276.44	1.00000e-13
277.41	1.00000e-13
278.38	1.00000e-13
279.35	1.00000e-13
280.32	1.00000e-13
281.29	1.00000e-13
282.26	1.00000e-13
283.23	1.00000e-13
284.20	1.00000e-13
285.17	1.00000e-13
286.14	1.00000e-13
287.11	1.00000e-13
288.08	1.00000e-13
289.05	1.00000e-13
290.02	1.00000e-13
290.99	1.00000e-13
291.96	1.00000e-13
292.93	1.00000e-13
293.90	1.66829e-5
294.87	1.00000e-13
295.84	3.47560e-7
296.81	1.00000e-13
297.78	1.00000e-13
298.75	1.00000e-13
299.72	1.00000e-13
300.69	1.00000e-13
301.66	1.00000e-13
302.63	1.00000e-13
303.60	1.00000e-13
304.57	3.57987e-5
305.54	1.00000e-13
306.51	1.00000e-13
307.48	1.00000e-13
308.45	1.00000e-13
309.42	1.00000e-13
310.39	1.00000e-13
311.36	1.00000e-13
312.33	1.00000e-13
313.30	1.00000e-13
314.27	1.00000e-13
315.24	1.00000e-13
316.21	1.00000e-13
317.18	1.00000e-13
318.15	8.80486e-6
319.12	1.00000e-13
320.09	1.22805e-5
321.06	1.00000e-13
322.03	1.00000e-13
323.00	1.27439e-6
323.97	1.00000e-13
324.94	3.70731e-6
325.91	1.00000e-13
326.88	1.00000e-13
327.85	1.00000e-13
328.82	1.00000e-13
329.79	1.00000e-13
330.76	1.00000e-13
331.73	1.15853e-7
332.70	1.00000e-13
333.67	1.00000e-13
334.64	1.00000e-13
335.61	1.39024e-6
336.58	2.78048e-6
337.55	1.00000e-13
338.52	1.00000e-13
339.49	1.00000e-13
340.46	1.00000e-13
341.43	1.00000e-13
342.40	1.00000e-13
343.37	1.00000e-13
344.34	1.00000e-13
345.31	1.00000e-13
346.28	1.00000e-13
347.25	1.00000e-13
348.22	1.00000e-13
349.19	4.74999e-6
350.16	1.00000e-13
351.13	1.00000e-13
352.10	1.00000e-13
353.07	1.00000e-13
354.04	1.00000e-13
355.01	1.00000e-13
355.98	1.00000e-13
356.95	1.00000e-13
357.92	1.00000e-13
358.89	1.00000e-13
359.86	1.00000e-13
360.83	1.00000e-13
361.80	4.63414e-7
362.77	1.00000e-13
363.74	1.00000e-13
364.71	6.71950e-6
365.68	1.00000e-13
366.65	1.00000e-13
367.62	3.70731e-6
368.59	1.00000e-13
369.56	1.00000e-13
370.53	1.00000e-13
371.50	1.00000e-13
372.47	1.00000e-13
373.44	1.00000e-13
374.41	1.00000e-13
375.38	1.51768e-5
376.35	1.00000e-13
377.32	1.00000e-13
378.29	1.00000e-13
379.26	1.00000e-13
380.23	1.00000e-13
381.20	1.00000e-13
382.17	1.00000e-13
383.14	3.35975e-6
384.11	1.00000e-13
385.08	1.00000e-13
386.05	7.06706e-6
387.02	1.00000e-13
387.99	1.00000e-13
388.96	1.00000e-13
389.92	1.00000e-13
390.90	1.00000e-13
391.86	1.00000e-13
392.84	1.00000e-13
393.81	1.00000e-13
394.78	1.00000e-13
395.75	1.00000e-13
396.71	1.00000e-13
397.68	1.00000e-13
398.66	1.00000e-13
399.63	1.00000e-13
400.59	1.00000e-13
401.56	1.00000e-13
402.53	1.00000e-13
403.51	1.00000e-13
404.47	1.00000e-13
405.44	1.00000e-13
406.41	1.00000e-13
407.39	1.00000e-13
408.36	1.00000e-13
409.32	1.00000e-13
410.30	1.00000e-13
411.26	1.00000e-13
412.23	1.00000e-13
413.20	1.00000e-13
414.18	1.00000e-13
415.14	1.00000e-13
416.11	1.00000e-13
417.09	2.31707e-7
418.06	1.00000e-13
419.03	2.01585e-5
420.00	1.00000e-13
420.96	1.85366e-6
421.94	1.00000e-13
422.90	1.00000e-13
423.87	1.00000e-13
424.85	1.00000e-13
425.82	1.00000e-13
426.78	1.00000e-13
427.76	1.00000e-13
428.72	1.00000e-13
429.69	1.00000e-13
430.66	1.00000e-13
431.63	1.00000e-13
432.60	1.00000e-13
433.57	1.00000e-13
434.54	1.00000e-13
435.51	1.00000e-13
436.48	1.00000e-13
437.46	1.00000e-13
438.42	1.00000e-13
439.39	1.00000e-13
440.37	1.00000e-13
441.33	1.00000e-13
442.30	1.00000e-13
443.27	1.00000e-13
444.24	1.00000e-13
445.21	1.00000e-13
446.19	1.00000e-13
447.15	1.00000e-13
448.13	1.00000e-13
449.09	1.00000e-13
450.06	1.00000e-13
451.03	1.00000e-13
452.00	1.00000e-13
452.97	1.00000e-13
453.94	1.00000e-13
454.91	1.00000e-13
455.88	1.00000e-13
456.86	1.00000e-13
457.83	1.00000e-13
458.79	1.00000e-13
459.76	1.00000e-13
460.73	1.21646e-5
461.70	1.00000e-13
462.67	1.00000e-13
463.64	1.00000e-13
464.62	2.89634e-6
465.58	1.00000e-13
466.56	1.00000e-13
467.52	1.00000e-13
468.49	1.00000e-13
469.46	1.00000e-13
470.43	9.03657e-6
471.40	1.00000e-13
472.37	5.32926e-6
473.34	1.00000e-13
474.31	1.00000e-13
475.28	1.00000e-13
476.25	1.00000e-13
477.22	1.00000e-13
478.19	1.00000e-13
479.16	8.10974e-6
480.13	1.00000e-13
481.10	1.58719e-5
482.07	1.00000e-13
483.04	1.00000e-13
484.01	1.00000e-13
484.98	1.00000e-13
485.95	1.00000e-13
486.92	1.00000e-13
487.89	1.00000e-13
488.86	1.76097e-5
489.83	1.00000e-13
490.80	1.00000e-13
491.77	1.00000e-13
492.74	1.00000e-13
493.71	3.01219e-6
494.68	1.00000e-13
495.65	1.00000e-13
496.62	1.00000e-13
497.59	1.00000e-13
498.56	6.25609e-6
499.53	1.00000e-13
500.50	1.00000e-13
501.47	1.00000e-13
502.44	1.00000e-13
503.41	1.00000e-13
504.38	1.00000e-13
505.35	1.00000e-13
506.32	1.00000e-13
507.29	1.00000e-13
508.26	5.79267e-6
509.23	4.98170e-6
510.20	1.00000e-13
511.17	1.00000e-13
512.14	1.00000e-13
513.11	1.00000e-13
514.08	1.00000e-13
515.05	1.00000e-13
516.02	1.00000e-13
516.99	1.00000e-13
517.96	1.00000e-13
518.93	1.00000e-13
519.90	1.00000e-13
520.87	1.00000e-13
521.84	1.00000e-13
522.81	1.00000e-13
523.78	1.00000e-13
524.75	1.00000e-13
525.72	1.00000e-13
526.69	1.00000e-13
527.66	1.62195e-6
528.63	1.00000e-13
529.60	1.00000e-13
530.57	1.00000e-13
531.54	8.45730e-6
532.51	1.00000e-13
533.48	1.00000e-13
534.45	1.00000e-13
535.42	1.00000e-13
536.39	1.00000e-13
537.36	1.00000e-13
538.33	1.00000e-13
539.30	1.00000e-13
540.27	3.15121e-5
541.24	1.00000e-13
542.21	1.00000e-13
543.18	1.00000e-13
544.15	1.00000e-13
545.12	5.44511e-6
546.09	1.00000e-13
547.06	2.68780e-5
548.03	1.00000e-13
549.00	1.00000e-13
549.97	1.00000e-13
550.94	1.00000e-13
551.91	1.00000e-13
552.88	1.00000e-13
553.85	1.00000e-13
554.82	1.00000e-13
555.79	1.00000e-13
556.76	1.00000e-13
557.73	1.00000e-13
558.70	1.00000e-13
559.67	2.57195e-5
560.64	1.00000e-13
561.61	1.00000e-13
562.58	1.00000e-13
563.55	1.00000e-13
564.52	1.00000e-13
565.49	1.00000e-13
566.46	1.00000e-13
567.43	1.00000e-13
568.40	1.00000e-13
569.37	3.47560e-6
570.34	1.00000e-13
571.31	2.08536e-6
572.28	1.00000e-13
573.25	1.00000e-13
574.22	1.00000e-13
575.19	1.00000e-13
576.16	1.08902e-5
577.13	1.00000e-13
578.10	1.00000e-13
579.07	1.00000e-13
580.04	1.00000e-13
581.01	1.00000e-13
581.98	1.00000e-13
582.95	5.09755e-6
583.92	1.00000e-13
584.89	1.00000e-13
585.86	1.00000e-13
586.83	1.00000e-13
587.80	1.00000e-13
588.77	1.07744e-5
589.74	1.00000e-13
590.71	1.00000e-13
591.68	1.00000e-13
592.65	1.00000e-13
593.62	1.00000e-13
594.59	1.00000e-13
595.56	1.00000e-13
596.53	1.00000e-13
597.50	1.00000e-13
598.47	1.00000e-13
599.44	1.00000e-13
600.41	1.00000e-13
601.38	1.00000e-13
602.35	3.12804e-6
603.32	1.00000e-13
604.29	1.00000e-13
605.26	1.00000e-13
606.23	1.00000e-13
607.20	1.00000e-13
608.17	1.00000e-13
609.14	1.00000e-13
610.11	1.00000e-13
611.08	1.00000e-13
612.05	1.00000e-13
613.02	1.00000e-13
613.99	1.00000e-13
614.96	1.00000e-13
615.93	1.00000e-13
616.90	1.00000e-13
617.87	1.00000e-13
618.84	1.00000e-13
619.81	1.00000e-13
620.78	1.00000e-13
621.75	1.00000e-13
622.72	1.00000e-13
623.69	3.24390e-5
624.66	1.00000e-13
625.63	1.00000e-13
626.60	1.00000e-13
627.57	1.00000e-13
628.54	1.00000e-13
629.51	1.00000e-13
630.48	1.00000e-13
631.45	1.00000e-13
632.42	1.00000e-13
633.39	3.76524e-5
634.36	1.00000e-13
635.33	1.00000e-13
636.30	1.00000e-13
637.27	1.00000e-13
638.24	1.00000e-13
639.21	1.00000e-13
640.18	1.00000e-13
641.15	1.00000e-13
642.12	1.00000e-13
643.09	1.00000e-13
644.06	1.00000e-13
645.03	1.00000e-13
646.00	1.00000e-13
646.97	1.00000e-13
647.94	1.00000e-13
648.91	1.00000e-13
649.88	1.72622e-5
650.85	1.00000e-13
651.82	1.00000e-13
652.79	1.00000e-13
653.76	1.00000e-13
654.73	1.00000e-13
655.70	1.00000e-13
656.67	1.00000e-13
657.64	1.00000e-13
658.61	1.00000e-13
659.58	1.00000e-13
660.55	1.00000e-13
661.52	2.27073e-5
662.49	1.00000e-13
663.46	1.00000e-13
664.42	1.73780e-5
665.39	1.00000e-13
666.37	1.00000e-13
667.34	1.00000e-13
668.31	1.00000e-13
669.27	1.00000e-13
670.25	1.00000e-13
671.22	1.00000e-13
672.19	1.00000e-13
673.16	1.00000e-13
674.12	1.00000e-13
675.10	1.00000e-13
676.07	1.00000e-13
677.03	1.00000e-13
678.01	1.00000e-13
678.98	1.00000e-13
679.95	1.00000e-13
680.92	1.00000e-13
681.89	6.95121e-7
682.86	1.00000e-13
683.82	1.00000e-13
684.80	1.00000e-13
685.76	1.00000e-13
686.73	1.00000e-13
687.71	1.00000e-13
688.67	1.00000e-13
689.65	1.00000e-13
690.62	1.00000e-13
691.59	1.00000e-13
692.56	1.00000e-13
693.52	1.00000e-13
694.49	1.00000e-13
695.47	1.00000e-13
696.44	1.00000e-13
697.41	1.00000e-13
698.37	1.00000e-13
699.35	1.00000e-13
700.31	1.00000e-13
701.28	1.00000e-13
702.26	1.00000e-13
703.23	5.21341e-6
704.19	1.00000e-13
705.16	1.00000e-13
706.14	1.00000e-13
707.10	1.00000e-13
708.07	1.00000e-13
709.04	2.89634e-5
710.01	1.00000e-13
710.99	1.00000e-13
711.95	1.00000e-13
712.93	1.00000e-13
713.89	1.00000e-13
714.86	1.00000e-13
715.83	1.00000e-13
716.80	1.00000e-13
717.77	1.00000e-13
718.74	1.00000e-13
719.71	1.00000e-13
720.68	1.00000e-13
721.65	1.00000e-13
722.62	1.00000e-13
723.59	1.00000e-13
724.56	1.00000e-13
725.54	1.00000e-13
726.51	1.00000e-13
727.48	1.00000e-13
728.44	1.00000e-13
729.42	1.00000e-13
730.38	1.00000e-13
731.35	1.00000e-13
732.33	1.00000e-13
733.29	1.00000e-13
734.26	1.15853e-5
735.23	1.00000e-13
736.20	1.00000e-13
737.18	1.00000e-13
738.14	1.00000e-13
739.12	1.00000e-13
740.08	1.00000e-13
741.05	1.00000e-13
742.02	1.00000e-13
742.99	1.00000e-13
743.96	1.00000e-13
744.93	1.00000e-13
745.90	1.00000e-13
746.87	1.00000e-13
747.84	1.00000e-13
748.81	1.00000e-13
749.79	1.00000e-13
750.75	1.00000e-13
751.72	1.00000e-13
752.69	6.37194e-6
753.66	9.26828e-6
754.63	1.00000e-13
755.60	1.00000e-13
756.57	1.00000e-13
757.54	1.00000e-13
758.51	1.00000e-13
759.48	1.00000e-13
760.45	1.00000e-13
761.42	1.00000e-13
762.39	1.00000e-13
763.36	1.00000e-13
764.33	1.00000e-13
765.30	1.00000e-13
766.27	1.00000e-13
767.24	1.00000e-13
768.21	1.00000e-13
769.18	1.00000e-13
770.15	1.00000e-13
771.12	1.00000e-13
772.09	6.95121e-7
773.06	1.00000e-13
774.03	1.00000e-13
775.00	1.00000e-13
775.97	1.00000e-13
776.94	1.00000e-13
777.91	1.00000e-13
778.88	1.00000e-13
779.85	1.00000e-13
780.82	1.00000e-13
781.79	1.00000e-13
782.76	1.00000e-13
783.73	1.00000e-13
784.70	1.00000e-13
785.67	1.00000e-13
786.64	1.00000e-13
787.61	1.00000e-13
788.58	1.00000e-13
789.55	1.00000e-13
790.52	1.00000e-13
791.49	1.00000e-13
792.46	1.00000e-13
793.43	1.00000e-13
794.40	1.00000e-13
795.37	1.00000e-13
796.34	2.14329e-5
797.31	1.00000e-13
798.28	1.00000e-13
799.25	1.00000e-13
800.22	1.00000e-13
801.19	1.00000e-13
802.16	1.00000e-13
803.13	1.00000e-13
804.10	1.00000e-13
805.07	1.00000e-13
806.04	1.00000e-13
807.01	1.00000e-13
807.98	1.00000e-13
808.95	1.00000e-13
809.92	1.00000e-13
810.89	1.00000e-13
811.86	1.00000e-13
812.83	1.00000e-13
813.80	1.00000e-13
814.77	1.00000e-13
815.74	1.39024e-6
816.71	1.00000e-13
817.68	1.00000e-13
818.65	1.00000e-13
819.62	1.00000e-13
820.59	1.00000e-13
821.56	1.00000e-13
822.53	1.00000e-13
823.50	1.00000e-13
824.47	1.00000e-13
825.44	1.00000e-13
826.41	1.00000e-13
827.38	1.00000e-13
828.35	1.00000e-13
829.32	1.00000e-13
830.29	1.00000e-13
831.26	1.00000e-13
832.23	1.00000e-13
833.20	1.00000e-13
834.17	1.00000e-13
835.14	1.00000e-13
836.11	1.00000e-13
837.08	1.00000e-13
838.05	1.00000e-13
839.02	1.00000e-13
839.99	1.00000e-13
840.96	1.00000e-13
841.93	1.00000e-13
842.90	1.00000e-13
843.87	1.00000e-13
844.84	1.00000e-13
845.81	1.00000e-13
846.78	1.00000e-13
847.75	1.00000e-13
848.72	1.00000e-13
849.69	1.00000e-13
850.66	1.00000e-13
851.63	1.00000e-13
852.60	1.00000e-13
853.57	6.95121e-7
854.54	1.00000e-13
855.51	1.00000e-13
856.48	1.00000e-13
857.45	1.00000e-13
858.42	1.00000e-13
859.39	1.00000e-13
860.36	1.00000e-13
861.33	1.00000e-13
862.30	1.00000e-13
863.27	1.00000e-13
864.24	1.00000e-13
865.21	1.00000e-13
866.18	1.00000e-13
867.15	1.00000e-13
868.12	1.00000e-13
869.09	1.00000e-13
870.06	1.00000e-13
871.03	1.00000e-13
872.00	1.00000e-13
872.97	1.00000e-13
873.94	1.00000e-13
874.91	1.00000e-13
875.88	1.00000e-13
876.85	1.00000e-13
877.82	1.00000e-13
878.79	1.00000e-13
879.76	1.00000e-13
880.73	1.00000e-13
881.70	4.17073e-6
882.67	1.00000e-13
883.64	1.00000e-13
884.61	1.00000e-13
885.58	1.00000e-13
886.55	1.00000e-13
887.52	1.00000e-13
888.49	1.00000e-13
889.46	1.96951e-6
890.43	1.00000e-13
891.40	1.00000e-13
892.37	1.00000e-13
893.34	1.00000e-13
894.31	1.00000e-13
895.28	1.00000e-13
896.25	1.00000e-13
897.22	1.00000e-13
898.19	1.00000e-13
899.16	1.00000e-13
900.13	1.00000e-13
901.10	1.00000e-13
902.07	1.00000e-13
903.04	1.00000e-13
904.00	1.00000e-13
904.98	1.00000e-13
905.94	1.00000e-13
906.92	1.00000e-13
907.89	1.00000e-13
908.86	1.00000e-13
909.83	1.00000e-13
910.80	1.00000e-13
911.77	1.00000e-13
912.74	1.00000e-13
913.71	1.00000e-13
914.68	1.00000e-13
915.64	1.00000e-13
916.61	1.00000e-13
917.58	1.00000e-13
918.56	1.00000e-13
919.52	1.00000e-13
920.50	7.53048e-6
921.47	1.00000e-13
922.44	1.00000e-13
923.40	1.00000e-13
924.38	1.00000e-13
925.34	1.00000e-13
926.32	1.00000e-13
927.29	1.00000e-13
928.26	1.00000e-13
929.22	1.00000e-13
930.19	1.00000e-13
931.17	1.00000e-13
932.13	1.00000e-13
933.10	1.00000e-13
934.07	1.00000e-13
935.05	1.00000e-13
936.02	1.00000e-13
936.98	1.00000e-13
937.96	1.00000e-13
938.92	1.00000e-13
939.89	1.00000e-13
940.87	1.00000e-13
941.84	1.00000e-13
942.81	1.00000e-13
943.77	2.08536e-6
944.74	1.00000e-13
945.72	1.00000e-13
946.68	1.00000e-13
947.65	1.00000e-13
948.62	1.00000e-13
949.59	1.00000e-13
950.56	1.00000e-13
951.53	1.00000e-13
952.50	1.00000e-13
953.48	1.00000e-13
954.45	1.00000e-13
955.42	1.00000e-13
956.38	1.00000e-13
957.35	1.00000e-13
958.32	1.12378e-5
959.29	1.00000e-13
960.26	1.00000e-13
961.23	1.00000e-13
962.20	1.00000e-13
963.17	1.00000e-13
964.14	1.00000e-13
965.11	1.00000e-13
966.08	1.00000e-13
967.06	1.00000e-13
968.02	1.00000e-13
968.99	1.00000e-13
969.97	1.00000e-13
970.94	1.00000e-13
971.91	1.03110e-5
972.87	1.00000e-13
973.85	1.00000e-13
974.81	1.00000e-13
975.78	1.00000e-13
976.75	1.00000e-13
977.72	1.00000e-13
978.69	1.00000e-13
979.66	3.23231e-5
980.63	1.00000e-13
981.60	1.00000e-13
982.57	1.00000e-13
983.54	1.00000e-13
984.51	1.00000e-13
985.48	1.00000e-13
986.45	1.00000e-13
987.42	1.00000e-13
988.39	1.00000e-13
989.36	1.00000e-13
990.33	1.00000e-13
991.30	1.00000e-13
992.27	1.00000e-13
993.24	1.00000e-13
994.21	1.00000e-13
995.18	1.00000e-13
996.15	1.00000e-13
997.12	1.00000e-13
998.09	2.31707e-7
999.06	1.00000e-13
1000.03	1.00000e-13
1001.00	1.00000e-13
1001.97	1.00000e-13
1002.94	1.00000e-13
1003.91	1.00000e-13
1004.88	1.00000e-13
1005.85	1.00000e-13
1006.82	1.00000e-13
1007.79	1.00000e-13
1008.76	1.00000e-13
1009.73	1.00000e-13
1010.70	1.00000e-13
1011.67	1.00000e-13
1012.64	1.00000e-13
1013.61	1.00000e-13
1014.58	1.00000e-13
1015.55	1.00000e-13
1016.52	1.00000e-13
1017.49	1.00000e-13
1018.46	1.00000e-13
1019.43	1.00000e-13
1020.40	1.00000e-13
1021.37	1.00000e-13
1022.34	1.00000e-13
1023.31	1.00000e-13
1024.28	3.82316e-6
1025.25	1.00000e-13
1026.22	1.00000e-13
1027.19	1.00000e-13
1028.16	1.00000e-13
1029.13	1.00000e-13
1030.10	1.00000e-13
1031.07	1.00000e-13
1032.04	1.00000e-13
1033.01	1.00000e-13
1033.98	1.00000e-13
1034.95	1.00000e-13
1035.92	1.00000e-13
1036.89	1.00000e-13
1037.86	1.00000e-13
1038.83	1.00000e-13
1039.80	1.00000e-13
1040.77	1.00000e-13
1041.74	1.00000e-13
1042.71	1.00000e-13
1043.68	1.00000e-13
1044.65	1.00000e-13
1045.62	1.00000e-13
1046.59	1.00000e-13
1047.56	1.00000e-13
1048.53	1.00000e-13
1049.50	1.00000e-13
1050.47	1.00000e-13
1051.44	1.00000e-13
1052.41	1.00000e-13
1053.38	1.00000e-13
1054.35	1.00000e-13
1055.32	1.00000e-13
1056.29	1.00000e-13
1057.26	1.00000e-13
1058.23	1.00000e-13
1059.20	1.00000e-13
1060.17	1.00000e-13
1061.14	1.00000e-13
1062.11	1.00000e-13
1063.08	1.00000e-13
1064.05	1.00000e-13
1065.02	1.00000e-13
1065.99	1.00000e-13
1066.96	1.00000e-13
1067.93	1.00000e-13
1068.90	1.00000e-13
1069.87	1.00000e-13
1070.84	1.00000e-13
1071.81	1.00000e-13
1072.78	1.00000e-13
1073.75	1.00000e-13
1074.72	1.00000e-13
1075.69	1.00000e-13
1076.66	1.00000e-13
1077.63	1.00000e-13
1078.60	1.00000e-13
1079.57	1.00000e-13
1080.54	1.00000e-13
1081.51	1.00000e-13
1082.48	1.00000e-13
1083.45	1.00000e-13
1084.42	1.27439e-6
1085.39	1.00000e-13
1086.36	1.00000e-13
1087.33	1.00000e-13
1088.30	1.00000e-13
1089.27	1.00000e-13
1090.24	1.00000e-13
1091.21	1.00000e-13
1092.18	1.00000e-13
1093.15	1.00000e-13
1094.12	1.00000e-13
1095.09	1.00000e-13
1096.06	1.00000e-13
1097.03	1.00000e-13
1098.00	1.00000e-13
1098.97	1.77256e-5
1099.94	1.00000e-13
1100.91	1.00000e-13
1101.88	1.00000e-13
1102.85	1.00000e-13
1103.82	1.00000e-13
1104.79	1.00000e-13
1105.76	1.00000e-13
1106.73	1.00000e-13
1107.70	1.00000e-13
1108.67	1.00000e-13
1109.64	1.62195e-5
1110.61	1.00000e-13
1111.58	1.00000e-13
1112.55	1.00000e-13
1113.52	7.87804e-6
1114.49	1.00000e-13
1115.46	1.00000e-13
1116.43	1.00000e-13
1117.40	1.00000e-13
1118.37	1.00000e-13
1119.34	2.01585e-5
1120.31	1.00000e-13
1121.28	1.00000e-13
1122.25	1.00000e-13
1123.22	1.00000e-13
1124.19	1.00000e-13
1125.16	1.00000e-13
1126.13	1.00000e-13
1127.10	1.00000e-13
1128.07	1.00000e-13
1129.04	1.00000e-13
1130.01	1.00000e-13
1130.98	1.00000e-13
1131.95	1.00000e-13
1132.92	1.00000e-13
1133.89	1.00000e-13
1134.85	1.00000e-13
1135.83	1.00000e-13
1136.80	1.00000e-13
1137.76	1.00000e-13
1138.74	1.00000e-13
1139.71	1.00000e-13
1140.67	1.00000e-13
1141.65	1.00000e-13
1142.62	1.00000e-13
1143.59	2.66463e-6
1144.56	1.00000e-13
1145.53	1.00000e-13
1146.50	4.86585e-6
1147.46	1.00000e-13
1148.44	1.00000e-13
1149.41	1.00000e-13
1150.37	1.00000e-13
1151.35	1.00000e-13
1152.32	1.00000e-13
1153.29	1.00000e-13
1154.25	1.00000e-13
1155.23	1.00000e-13
1156.19	1.00000e-13
1157.17	1.00000e-13
1158.14	1.25122e-5
1159.11	1.00000e-13
1160.07	1.00000e-13
1161.05	1.00000e-13
1162.01	1.00000e-13
1162.98	1.00000e-13
1163.95	1.00000e-13
1164.93	1.00000e-13
1165.89	1.00000e-13
1166.86	1.00000e-13
1167.84	1.00000e-13
1168.81	1.00000e-13
1169.77	1.00000e-13
1170.75	1.00000e-13
1171.71	1.00000e-13
1172.68	1.00000e-13
1173.65	1.00000e-13
1174.62	1.00000e-13
1175.59	1.00000e-13
1176.56	4.98170e-6
1177.54	1.00000e-13
1178.50	1.00000e-13
1179.47	1.00000e-13
1180.44	1.00000e-13
1181.41	1.00000e-13
1182.38	1.00000e-13
1183.35	1.00000e-13
1184.33	2.31707e-7
1185.29	1.00000e-13
1186.26	1.00000e-13
1187.24	1.00000e-13
1188.20	1.00000e-13
1189.18	1.00000e-13
1190.14	1.00000e-13
1191.11	1.00000e-13
1192.08	1.00000e-13
1193.05	1.00000e-13
1194.02	1.00000e-13
1194.99	1.00000e-13
1195.96	1.00000e-13
1196.93	1.00000e-13
1197.90	1.00000e-13
1198.87	1.00000e-13
1199.84	1.00000e-13
1200.81	1.00000e-13
1201.79	1.00000e-13
1202.75	1.00000e-13
1203.72	1.00000e-13
1204.69	1.00000e-13
1205.66	1.00000e-13
1206.64	1.00000e-13
1207.60	1.00000e-13
1208.57	1.00000e-13
1209.54	1.00000e-13
1210.51	1.00000e-13
1211.48	1.00000e-13
1212.46	1.00000e-13
1213.42	1.00000e-13
1214.39	1.00000e-13
1215.36	1.00000e-13
1216.33	1.00000e-13
1217.30	1.00000e-13
1218.27	1.14695e-5
1219.24	1.00000e-13
1220.21	1.00000e-13
1221.18	1.00000e-13
1222.15	1.00000e-13
1223.12	1.00000e-13
1224.09	1.00000e-13
1225.06	1.00000e-13
1226.03	1.00000e-13
1227.00	1.00000e-13
1227.97	5.09755e-6
1228.94	1.00000e-13
1229.91	1.00000e-13
1230.88	1.00000e-13
1231.85	1.00000e-13
1232.82	1.00000e-13
1233.79	1.00000e-13
1234.76	1.00000e-13
1235.73	1.00000e-13
1236.70	1.00000e-13
1237.67	1.00000e-13
1238.64	1.12378e-5
1239.61	1.00000e-13
1240.58	1.00000e-13
1241.55	1.00000e-13
1242.52	1.00000e-13
1243.49	2.31707e-7
1244.46	1.00000e-13
1245.43	1.00000e-13
1246.40	1.00000e-13
1247.37	1.00000e-13
1248.34	1.00000e-13
1249.31	1.00000e-13
1250.28	1.00000e-13
1251.25	1.00000e-13
1252.22	1.00000e-13
1253.19	1.00000e-13
1254.16	1.00000e-13
1255.13	1.00000e-13
1256.10	1.00000e-13
1257.07	1.00000e-13
1258.04	1.00000e-13
1259.01	1.00000e-13
1259.98	1.00000e-13
1260.95	1.00000e-13
1261.92	1.00000e-13
1262.89	1.00000e-13
1263.86	1.00000e-13
1264.83	1.00000e-13
1265.80	1.00000e-13
1266.77	1.00000e-13
1267.74	1.00000e-13
1268.71	1.00000e-13
1269.68	1.00000e-13
1270.65	1.00000e-13
1271.62	1.00000e-13
1272.59	1.00000e-13
1273.56	1.00000e-13
1274.53	6.71950e-6
1275.50	6.09389e-5
1276.47	1.04384e-4
1277.44	4.02938e-4
1278.41	8.74230e-4
1279.38	1.98781e-3
1280.35	3.53330e-3
1281.32	4.54053e-3
1282.29	5.95197e-3
1283.26	6.24207e-3
1284.23	5.77321e-3
1285.20	5.13521e-3
1286.17	4.28554e-3
1287.14	3.90774e-3
1288.11	3.23764e-3
1289.08	2.91429e-3
1290.05	2.61771e-3
1291.02	2.24223e-3
1291.99	2.00635e-3
1292.96	1.69552e-3
1293.93	1.45118e-3
1294.90	1.34564e-3
1295.87	1.23233e-3
1296.84	9.89273e-4
1297.81	9.02383e-4
1298.78	8.43182e-4
1299.75	8.75041e-4
1300.72	5.90389e-4
1301.69	4.42560e-4
1302.66	4.71408e-4
1303.63	4.16725e-4
1304.60	3.95292e-4
1305.57	3.15817e-4
1306.54	2.72140e-4
1307.51	2.93573e-4
1308.48	1.97646e-4
1309.45	1.72158e-4
1310.42	2.54530e-4
1311.39	1.65670e-4
1312.36	1.94402e-4
1313.33	1.32768e-4
1314.14	1.35433e-4