File: data/TGA/005d-L_M/L3-corrected.txt
Filename	L3
Instrument name
Operator	Galyna
rundate	2025-02-24
Sample name	L3
[step]
Step 1
Time	Temperature	Weight	Weight	Deriv. Weight
min	°C	mg	%	% / °C
0.01	25.98	1.798	100	-2.13348E-05
0.96	27.22	1.794	99.7775	-1.98564E-05
1.96	28.75	1.795	99.8331	-2.05437E-05
2.96	31.87	1.796	99.8888	-2.09935E-05
3.96	36.38	1.797	99.9444	-1.91036E-05
4.96	41.56	1.796	99.8888	-1.84725E-05
5.96	46.78	1.795	99.8331	-1.80368E-05
6.96	51.74	1.793	99.7219	-1.96936E-05
7.96	56.46	1.794	99.7775	-2.03431E-05
8.96	61.04	1.793	99.7219	-2.22951E-05
9.96	65.65	1.792	99.6663	-2.85452E-05
10.96	70.37	1.793	99.7219	-3.60322E-05
11.96	75.25	1.792	99.6663	-4.43745E-05
12.96	80.24	1.791	99.6107	-5.27858E-05
13.96	85.33	1.791	99.6107	-6.16434E-05
14.96	90.43	1.789	99.4994	-7.29946E-05
15.96	95.55	1.789	99.4994	-8.54939E-05
16.96	99.73	1.786	99.3326	-0.000100591
17.96	102.11	1.785	99.277	-0.000116691
18.96	102.96	1.782	99.1101	-0.000137145
19.96	102.9	1.777	98.832	-0.000159744
20.96	102.4	1.776	98.7764	-0.000172679
21.96	101.75	1.776	98.7764	-0.000167565
22.96	101.1	1.774	98.6652	-0.000134286
23.96	100.52	1.775	98.7208	-0.000108703
24.96	100.06	1.772	98.5539	-9.48223E-05
25.96	100.44	1.772	98.5539	-8.81752E-05
26.96	102.94	1.775	98.7208	-8.77257E-05
27.96	107.13	1.775	98.7208	-8.59977E-05
28.96	111.96	1.774	98.6652	-8.33438E-05
29.96	116.81	1.771	98.4983	-8.18644E-05
30.96	121.54	1.77	98.4427	-0.000078211
31.96	126.26	1.767	98.2759	-7.63196E-05
32.96	131.05	1.764	98.109	-7.47198E-05
33.96	135.95	1.762	97.9978	-7.40992E-05
34.96	140.93	1.759	97.8309	-7.20248E-05
35.96	145.98	1.758	97.7753	-0.000066547
36.96	151.04	1.757	97.7197	-6.05799E-05
37.96	156.11	1.756	97.6641	-5.34782E-05
38.96	161.17	1.756	97.6641	-4.79101E-05
39.96	166.22	1.755	97.6085	-4.28554E-05
40.96	171.24	1.756	97.6641	-3.79051E-05
41.96	176.25	1.754	97.5528	-3.47447E-05
42.96	181.25	1.754	97.5528	-3.16524E-05
43.96	186.27	1.752	97.4416	-2.94674E-05
44.96	191.27	1.75	97.3304	-2.83772E-05
45.96	196.28	1.751	97.386	-2.74366E-05
46.96	201.27	1.748	97.2191	-0.00002719
47.96	206.26	1.751	97.386	-2.52458E-05
48.96	211.26	1.749	97.2747	-2.42748E-05
49.96	216.26	1.747	97.1635	-2.33559E-05
50.96	221.26	1.748	97.2191	-2.19934E-05
51.96	226.28	1.748	97.2191	-2.03239E-05
52.96	231.28	1.746	97.1079	-1.87276E-05
53.96	236.3	1.747	97.1635	-1.71754E-05
54.96	241.31	1.748	97.2191	-1.60373E-05
55.96	246.32	1.747	97.1635	-1.61693E-05
56.96	251.33	1.747	97.1635	-1.62996E-05
57.96	256.34	1.746	97.1079	-1.70596E-05
58.96	261.35	1.747	97.1635	-1.99524E-05
59.96	266.35	1.745	97.0523	-2.13006E-05
60.96	271.36	1.745	97.0523	-2.30381E-05
61.96	276.37	1.744	96.9967	-2.58291E-05
62.96	281.38	1.745	97.0523	-2.92038E-05
63.96	286.39	1.743	96.941	-3.28062E-05
64.96	291.4	1.743	96.941	-3.78239E-05
65.96	296.28	1.744	96.9967	-4.30659E-05
66.96	299.48	1.737	96.6073	-4.88306E-05
67.96	301	1.741	96.8298	-0.000055127
68.96	301.73	1.738	96.663	-6.33316E-05
69.96	301.89	1.739	96.7186	-7.63185E-05
70.96	301.6	1.737	96.6073	-9.44116E-05
71.96	301.1	1.737	96.6073	-0.000117212
72.96	300.56	1.738	96.663	-9.32381E-05
73.96	300.11	1.737	96.6073	-5.74877E-05
74.96	299.82	1.737	96.6073	0.000295808
75.96	299.68	1.736	96.5517	0.000370934
76.96	299.66	1.735	96.4961	0.000316179
77.96	299.73	1.736	96.5517	0.000276559
78.96	299.84	1.735	96.4961	0.000229396
79.96	299.94	1.737	96.6073	0.000158487
80.96	300.01	1.735	96.4961	-0.000203678
81.96	300.06	1.736	96.5517	-0.000936322
82.96	300.08	1.735	96.4961	-0.00110326
83.96	300.07	1.734	96.4405	-0.0010935
84.96	300.05	1.735	96.4961	-0.00102463
85.96	300.03	1.735	96.4961	-0.000936154
86.96	300.01	1.735	96.4961	-0.000171011
87.96	299.99	1.734	96.4405	0.00258264
88.96	299.99	1.736	96.5517	0.00541531
89.96	299.99	1.733	96.3849	0.00564186
90.96	299.99	1.733	96.3849	0.00552453
91.96	299.99	1.734	96.4405	0.00609262
92.96	300	1.733	96.3849	0.00668446
93.96	300	1.734	96.4405	0.00421478
94.96	300.01	1.735	96.4961	-0.00613733
95.96	300	1.734	96.4405	-0.0128684
96.96	300	1.732	96.3293	-0.0117562
97.96	300	1.732	96.3293	-0.00778552
98.96	300	1.73	96.218	-0.00512476
99.96	300	1.734	96.4405	0.00651326
100.96	300	1.731	96.2736	0.0139708
101.96	300	1.732	96.3293	0.0222192
102.96	300	1.732	96.3293	0.0289068
103.96	300	1.732	96.3293	0.00969533
104.96	300	1.732	96.3293	0.0192509
105.96	300	1.729	96.1624	0.0113672
106.96	300	1.731	96.2736	0.013169
107.96	300.01	1.733	96.3849	0.0226194
108.96	300	1.728	96.1068	0.0273249
109.96	300	1.729	96.1624	0.0470371
110.96	300	1.732	96.3293	0.0742091
111.96	300	1.73	96.218	0.078453
112.96	300	1.729	96.1624	0.0970085
113.96	300	1.731	96.2736	0.102071
114.96	300	1.73	96.218	0.092391
115.96	300	1.727	96.0512	0.0822879
116.96	300	1.731	96.2736	0.0788327
117.96	300	1.726	95.9956	0.0661517
118.96	300	1.725	95.9399	0.0143279
119.96	300	1.732	96.3293	-0.0353269
120.96	300	1.729	96.1624	-0.0572668
121.96	300	1.725	95.9399	-0.0642704
122.96	300	1.727	96.0512	-0.0701276
123.96	300	1.727	96.0512	-0.0792734
124.96	300	1.726	95.9956	-0.0879195
125.96	300	1.727	96.0512	-0.063205
126.96	300	1.726	95.9956	-0.0435133
127.96	300	1.724	95.8843	-0.0465658
128.96	300	1.728	96.1068	-0.0259105
129.96	300	1.726	95.9956	-0.00646609
130.96	300	1.727	96.0512	0.0393363
131.96	300	1.727	96.0512	0.0695681
132.96	300	1.719	95.6062	0.0594968
133.96	300	1.721	95.7175	0.0857065
134.96	300	1.724	95.8843	0.0957631
135.96	300	1.724	95.8843	0.0863541
136.96	300	1.722	95.7731	0.0697696
137.96	300	1.723	95.8287	0.0443546
138.96	300	1.722	95.7731	0.0362821
139.96	300	1.72	95.6618	0.0363724
140.96	300	1.723	95.8287	0.0376568
141.96	300	1.72	95.6618	0.0600356
142.96	300	1.72	95.6618	0.108181
143.96	300	1.719	95.6062	0.146187
144.96	300	1.72	95.6618	0.144275
145.96	300	1.724	95.8843	0.194489
146.96	300	1.721	95.7175	0.192603
147.96	300	1.718	95.5506	0.191811
148.96	300	1.721	95.7175	0.156505
149.96	300	1.72	95.6618	0.175671
150.96	300	1.72	95.6618	0.198113
151.96	300	1.717	95.495	0.210396
152.96	300	1.708	94.9944	0.208365
153.96	300	1.707	94.9388	0.183822
154.96	300	1.717	95.495	0.164025
155.96	300	1.716	95.4394	0.156702
156.96	300	1.72	95.6618	0.158518
157.96	300	1.716	95.4394	0.157982
158.96	300	1.711	95.1613	0.158595
159.96	300	1.72	95.6618	0.157505
160.96	300	1.715	95.3838	0.145314
161.96	300	1.715	95.3838	0.146423
162.96	300	1.714	95.3281	0.0867135
163.96	300	1.715	95.3838	0.0795388
164.96	300	1.715	95.3838	0.0795642
165.96	300	1.713	95.2725	0.0867569
166.96	299.99	1.717	95.495	0.0567914
167.96	300	1.713	95.2725	0.0432979
168.96	300	1.712	95.2169	0.0317928
169.96	300	1.71	95.1057	0.0153281
170.96	300	1.712	95.2169	0.00895148
171.96	300	1.713	95.2725	0.00696596
172.96	300	1.708	94.9944	-0.0385173
173.96	300	1.709	95.0501	-0.077532
174.96	300	1.709	95.0501	-0.0906939
175.96	300	1.713	95.2725	-0.00576691
176.96	300	1.709	95.0501	-0.0209427
177.96	300	1.708	94.9944	-0.0266909
178.96	300	1.708	94.9944	-0.035898
179.96	300	1.706	94.8832	-0.0363299
180.96	300	1.709	95.0501	-0.0274542
181.96	300	1.704	94.772	-0.0346141
182.96	300	1.704	94.772	-0.0442792
183.96	300	1.704	94.772	-0.0423645
184.96	300	1.703	94.7164	-0.0138055
185.96	300	1.704	94.772	-0.000572796
186.96	300	1.703	94.7164	-0.0211405
187.96	300	1.704	94.772	0.021493
188.96	300	1.7	94.5495	0.0711306
189.96	300	1.703	94.7164	0.105418
190.96	300	1.704	94.772	0.133183
191.96	300	1.701	94.6051	0.111983
192.96	300	1.698	94.4383	0.158928
193.96	300	1.698	94.4383	0.142522
194.96	300	1.699	94.4939	0.126918
195.96	300	1.7	94.5495	0.0676136
196.96	300	1.697	94.3826	0.0983416
197.96	300	1.695	94.2714	0.0189091
198.96	300	1.696	94.327	-0.0180148
199.96	300	1.696	94.327	-0.00816219
200.96	300	1.696	94.327	0.0162268
201.96	300	1.696	94.327	0.0185455
202.96	300	1.693	94.1602	-0.0133176
203.96	300	1.694	94.2158	-0.0437219
204.96	300	1.696	94.327	-0.0722297
205.96	300	1.691	94.0489	-0.0601647
206.96	300	1.693	94.1602	-0.0585137
207.96	300	1.691	94.0489	-0.00239081
208.96	300	1.693	94.1602	-0.0205021
209.96	300	1.687	93.8265	-0.0604753
210.96	300	1.689	93.9377	-0.0695676
211.96	300	1.691	94.0489	-0.0549696
212.96	300	1.693	94.1602	-0.0575924
213.96	300	1.691	94.0489	-0.0317877
214.96	300	1.692	94.1046	-0.0533553
215.96	300	1.686	93.7709	-0.0417748
216.96	300	1.687	93.8265	-0.00738712
217.96	300	1.687	93.8265	0.0244333
218.96	300	1.688	93.8821	0.0316432
219.96	300	1.686	93.7709	0.0437918
220.96	300	1.687	93.8265	0.0225588
221.96	300	1.686	93.7709	-0.00978849
222.96	300	1.685	93.7152	0.0170219
223.96	300	1.684	93.6596	0.0297627
224.96	300	1.685	93.7152	0.0807424
225.96	300	1.685	93.7152	0.0884656
226.96	300	1.684	93.6596	0.0474969
227.96	300	1.682	93.5484	0.0337593
228.96	300	1.685	93.7152	0.0319053
229.96	300	1.68	93.4372	0.0554241
230.96	300	1.682	93.5484	0.0782088
231.96	300	1.683	93.604	0.0742475
232.96	300	1.682	93.5484	0.0252235
233.96	300	1.68	93.4372	0.0395788
234.96	300	1.68	93.4372	0.0617418
235.96	300	1.681	93.4928	0.0774836
236.96	300	1.68	93.4372	0.0440816
237.96	300	1.679	93.3815	0.0300188
238.96	300	1.682	93.5484	0.0304177
239.96	300	1.678	93.3259	0.0577812
240.96	300	1.678	93.3259	0.0577299
241.96	300	1.677	93.2703	0.0553074
242.96	300	1.68	93.4372	0.0674128
243.96	300	1.674	93.1034	0.0467546
244.96	300	1.672	92.9922	0.0334695
245.96	300	1.677	93.2703	0.035434
246.96	300	1.676	93.2147	0.0160742
247.96	300	1.676	93.2147	0.0158981
248.96	300	1.675	93.1591	0.0454833
249.96	300	1.673	93.0478	-0.0214072
250.96	300	1.675	93.1591	-0.028689
251.96	300	1.675	93.1591	-0.0389699
252.96	300	1.675	93.1591	-0.0226103
253.96	300	1.674	93.1034	0.0173156
254.96	300	1.673	93.0478	0.0451984
255.96	300	1.672	92.9922	0.0476439
256.96	300	1.673	93.0478	0.0444381
257.96	300	1.673	93.0478	0.00240937
258.96	300	1.672	92.9922	-0.0238993
259.96	300	1.672	92.9922	-0.00318871
260.96	300	1.67	92.881	0.00963527
261.96	300	1.667	92.7141	0.00847367
262.96	300	1.669	92.8254	0.0176904
263.96	300	1.672	92.9922	0.0167761
264.96	300	1.668	92.7697	0.0280547
265.96	300	1.668	92.7697	0.0399729
266.96	300	1.669	92.8254	0.0545035
267.96	300	1.671	92.9366	0.0462464
268.96	300	1.678	93.3259	0.0725121
269.96	300	1.668	92.7697	0.0906484
270.96	300	1.667	92.7141	0.122715
271.96	300	1.667	92.7141	0.156259
272.96	300	1.667	92.7141	0.134889
273.96	300	1.666	92.6585	0.14444
274.96	300	1.665	92.6029	0.130585
275.96	300	1.666	92.6585	0.0656865
276.96	300	1.666	92.6585	0.0556255
277.96	300	1.668	92.7697	0.0306342
278.96	300	1.665	92.6029	0.00494792
279.96	300	1.664	92.5473	-0.0278976
280.96	300	1.664	92.5473	-0.0359788
281.96	300	1.66	92.3248	-0.0249706
282.96	300	1.665	92.6029	-0.0222633
283.96	300	1.66	92.3248	-0.0217585
284.96	300	1.663	92.4917	-0.0063709
285.96	300	1.661	92.3804	-0.00368477
286.96	300	1.663	92.4917	-0.0148018
287.96	300	1.662	92.436	0.0104058
288.96	300	1.662	92.436	0.0232103
289.96	300	1.661	92.3804	0.0464262
290.96	300	1.661	92.3804	0.0668447
291.96	300	1.659	92.2692	0.0978113
292.96	300	1.661	92.3804	0.0953862
293.96	300	1.661	92.3804	0.098481
294.96	300	1.66	92.3248	0.131961
295.96	300	1.658	92.2136	0.0978011
296.96	300	1.658	92.2136	0.0528244
297.96	300	1.658	92.2136	0.0481551
298.96	300	1.659	92.2692	0.00790616
299.96	300	1.658	92.2136	-0.0219834
300.96	300	1.657	92.158	-0.0181355
301.96	300	1.655	92.0467	-0.00919531
302.96	300	1.658	92.2136	-0.0170468
303.96	300	1.656	92.1023	-0.0161748
304.96	300	1.656	92.1023	0.0180624
305.96	300	1.655	92.0467	0.0601617
306.96	300	1.657	92.158	0.0546538
307.96	300	1.656	92.1023	0.0719488
308.96	300	1.652	91.8799	0.092241
309.96	300	1.655	92.0467	0.0888367
310.96	300	1.653	91.9355	0.112256
311.96	300	1.654	91.9911	0.113748
312.96	300	1.651	91.8242	0.0960161
313.96	300	1.653	91.9355	0.0801074
314.96	300	1.653	91.9355	0.0523362
315.96	299.99	1.65	91.7686	0.0199106
316.96	300	1.652	91.8799	-0.0236847
317.96	300	1.649	91.713	-0.0423678
318.96	300	1.651	91.8242	-0.093734
319.96	300	1.651	91.8242	-0.0969056
320.96	300	1.65	91.7686	-0.0912351
321.96	300	1.649	91.713	-0.0859729
322.96	300	1.65	91.7686	-0.0676319
323.96	300	1.649	91.713	-0.0689384
324.96	300	1.649	91.713	-0.0306556
325.96	300	1.647	91.6018	-0.0424615
326.96	300	1.644	91.4349	-0.0359581
327.96	300	1.648	91.6574	0.0170633
328.96	300	1.647	91.6018	0.0324408
329.96	300	1.647	91.6018	0.0291692
330.96	300	1.647	91.6018	0.0432031
331.96	300	1.647	91.6018	0.0627673
332.96	300	1.645	91.4905	0.0645948
333.96	300	1.646	91.5462	0.114296
334.96	300	1.647	91.6018	0.099089
335.96	300	1.645	91.4905	0.0597204
336.96	300	1.643	91.3793	0.0632161
337.96	300	1.644	91.4349	0.0489812
338.96	300	1.644	91.4349	0.0350839
339.96	300	1.644	91.4349	0.0123062
340.96	300	1.64	91.2125	0.0218583
341.96	300	1.642	91.3237	0.0198564
342.96	300	1.643	91.3793	-0.0205887
343.96	300	1.644	91.4349	-0.0261107
344.96	300	1.642	91.3237	-0.0331811
345.96	300	1.642	91.3237	-1.60905E-05
346.96	300	1.641	91.2681	-0.00366833
347.96	300	1.642	91.3237	0.00677276
348.96	300	1.641	91.2681	-0.00552535
349.96	300	1.639	91.1568	-0.00204597
350.96	300	1.643	91.3793	0.0253649
351.96	300	1.64	91.2125	0.0215561
352.96	300	1.64	91.2125	0.0152968
353.96	300	1.64	91.2125	0.0072713
354.96	300	1.642	91.3237	0.00789803
355.96	300	1.643	91.3793	-0.00576906
356.96	300	1.637	91.0456	-0.0339231
357.96	300	1.64	91.2125	-0.0191032
358.96	300	1.639	91.1568	-0.00875755
359.96	300	1.636	90.99	-0.0135713
360.96	300	1.638	91.1012	0.00653849
361.96	300	1.638	91.1012	-0.00134204
362.96	300	1.638	91.1012	0.0143192
363.96	300	1.638	91.1012	0.0358361
364.96	300	1.64	91.2125	0.0305719
365.96	300	1.639	91.1568	0.0131804
366.96	300	1.638	91.1012	0.0176776
367.96	300	1.638	91.1012	0.0368665
368.96	300	1.637	91.0456	0.0407635
369.96	300	1.638	91.1012	0.0476758
370.96	300	1.638	91.1012	0.0483865
371.96	300	1.638	91.1012	0.0477642
372.96	300	1.637	91.0456	0.0483186
373.96	300	1.638	91.1012	0.0552897
374.96	300	1.639	91.1568	0.0532559
375.96	300	1.637	91.0456	0.0495422
376.96	300	1.637	91.0456	0.04789
377.96	300	1.634	90.8788	0.0689397
378.96	300	1.636	90.99	0.0677888
379.96	300	1.636	90.99	0.0715316
380.96	300	1.637	91.0456	0.0757869
381.96	300	1.636	90.99	0.0833125
382.96	300	1.636	90.99	0.0786775
383.96	300	1.639	91.1568	0.08317
384.96	300	1.642	91.3237	0.0803665
385.96	300	1.628	90.5451	0.0795724
386.96	300	1.636	90.99	0.0840398
387.96	300	1.636	90.99	0.0791429
388.96	300	1.637	91.0456	0.083235
389.96	300	1.634	90.8788	0.0703544
390.96	300	1.64	91.2125	0.0506509
391.96	300	1.636	90.99	0.0396804
392.96	300	1.635	90.9344	0.0371936
393.96	300	1.636	90.99	-0.00729921
394.96	300	1.635	90.9344	-0.0272783
395.96	300	1.635	90.9344	-0.0308187
396.96	300	1.634	90.8788	-0.0119027
397.96	300	1.635	90.9344	-0.0289502
398.96	300	1.632	90.7675	-0.048394
399.96	300	1.636	90.99	-0.0425789
400.96	300	1.631	90.7119	-0.0459057
401.96	300	1.631	90.7119	-0.0376101
402.96	300	1.634	90.8788	-0.0324096
403.96	300	1.631	90.7119	-0.0252711
404.96	300	1.635	90.9344	-0.0014608
405.96	300	1.631	90.7119	0.0208192
406.96	300	1.631	90.7119	0.0306103
407.96	300	1.632	90.7675	0.0454099
408.96	300	1.629	90.6007	0.0449159
409.96	300	1.629	90.6007	0.0160276
410.96	300	1.632	90.7675	0.00275466
411.96	300	1.63	90.6563	0.0145207
412.96	300	1.63	90.6563	0.0469632
413.96	300	1.629	90.6007	0.0589517
414.96	300	1.625	90.3782	0.0576982
415.96	300	1.63	90.6563	0.0676216
416.96	300	1.63	90.6563	0.0743398
417.96	300	1.628	90.5451	0.0709629
418.96	300	1.629	90.6007	0.0576238
419.96	300	1.628	90.5451	0.0339477
420.96	300	1.628	90.5451	0.0425168
421.96	300	1.629	90.6007	0.0532584
422.96	300	1.626	90.4338	0.0667525
423.96	300	1.628	90.5451	0.0712849
424.96	300	1.629	90.6007	0.0768013
425.96	300	1.628	90.5451	0.07373
426.96	300	1.628	90.5451	0.0782254
427.96	300	1.627	90.4894	0.072781
428.96	300	1.628	90.5451	0.0737371
429.96	300	1.626	90.4338	0.085235
430.96	300	1.626	90.4338	0.0810932
431.96	300	1.625	90.3782	0.084633
432.96	300	1.626	90.4338	0.0950405
433.96	300	1.626	90.4338	0.107058
434.96	300	1.625	90.3782	0.100507
435.96	300	1.626	90.4338	0.095537
436.96	300	1.625	90.3782	0.0760917
437.96	300	1.622	90.2113	0.0343221
438.96	300	1.624	90.3226	-0.000945757
439.96	300	1.625	90.3782	-0.0182454
440.96	300	1.625	90.3782	-0.0106857
441.96	300	1.623	90.267	-0.00331402
442.96	300	1.626	90.4338	-0.00683457
443.96	300	1.623	90.267	-0.0309094
444.96	300	1.621	90.1557	-0.0463286
445.96	300	1.622	90.2113	-0.0668584
446.96	300	1.621	90.1557	-0.0706195
447.96	300	1.623	90.267	-0.0838692
448.96	300	1.621	90.1557	-0.0514163
449.96	300	1.62	90.1001	-0.0446745
450.96	300	1.621	90.1557	-0.0365069
451.96	300	1.619	90.0445	-0.0497393
452.96	300	1.62	90.1001	-0.0191833
453.96	300	1.618	89.9889	-0.0172445
454.96	300	1.618	89.9889	-0.00546804
455.96	300	1.619	90.0445	0.0172593
456.96	300	1.617	89.9333	0.0251173
457.96	300	1.62	90.1001	0.0513194
458.96	300	1.617	89.9333	0.0794338
459.96	300	1.617	89.9333	0.0784363
460.96	300	1.62	90.1001	0.0682635
461.96	300	1.622	90.2113	0.0700342
462.96	300	1.619	90.0445	0.0666218
463.96	300	1.616	89.8776	0.0698027
464.96	300	1.616	89.8776	0.0690808
465.96	300	1.617	89.9333	0.0819642
466.96	300	1.616	89.8776	0.0814475
467.96	300	1.614	89.7664	0.0838231
468.96	300	1.614	89.7664	0.0881299
469.96	300	1.615	89.822	0.0792064
470.96	300	1.616	89.8776	0.0796674
471.96	300	1.615	89.822	0.0828033
472.96	300	1.615	89.822	0.0926101
473.96	300	1.614	89.7664	0.0936684
474.96	300	1.614	89.7664	0.101763
475.96	300	1.617	89.9333	0.103292
476.96	300	1.613	89.7108	0.0873231
477.96	300	1.615	89.822	0.0455107
478.96	300	1.614	89.7664	0.00153506
479.96	300	1.615	89.822	-0.00697198
480.96	300	1.613	89.7108	-0.0447153
481.96	300	1.612	89.6552	-0.0663985
482.96	300	1.615	89.822	-0.0942122
483.96	300	1.612	89.6552	-0.096305
484.96	300	1.612	89.6552	-0.098758
485.96	300	1.613	89.7108	-0.092699
486.96	300	1.61	89.5439	-0.100615
487.96	300	1.609	89.4883	-0.106185
488.96	300	1.607	89.3771	-0.0930105
489.96	300	1.609	89.4883	-0.0270893
490.96	300	1.609	89.4883	0.0227625
491.96	300	1.607	89.3771	0.0789671
492.96	300	1.609	89.4883	0.135487
493.96	300	1.608	89.4327	0.121998
494.96	300	1.61	89.5439	0.0880389
495.96	300	1.608	89.4327	0.0411129
496.96	300	1.604	89.2102	0.0618282
497.96	300	1.606	89.3215	0.0376288
498.96	300	1.605	89.2659	0.0461088
499.96	300	1.607	89.3771	0.049177
500.96	300	1.607	89.3771	0.0635245
501.96	300	1.603	89.1546	0.0739018
502.96	300	1.607	89.3771	0.0692238
503.96	300	1.603	89.1546	0.0525838
504.96	300	1.6	88.9878	0.0268889
505.96	300	1.603	89.1546	0.024155
506.96	300	1.603	89.1546	0.0399888
507.96	300	1.607	89.3771	0.0441474
508.96	300	1.605	89.2659	0.0572871
509.96	300	1.604	89.2102	0.0696696
510.96	300	1.602	89.099	0.0604607
511.96	300	1.605	89.2659	0.045182
512.96	300	1.601	89.0434	0.0194148
513.96	300	1.602	89.099	0.0155852
514.96	300	1.602	89.099	-0.0248197
515.96	300	1.6	88.9878	-0.0226568
516.96	300	1.599	88.9321	-0.00328288
517.96	300	1.602	89.099	0.0159
518.96	300	1.599	88.9321	0.0475923
519.96	300	1.601	89.0434	0.030716
520.96	300	1.6	88.9878	0.0469502
521.96	300	1.6	88.9878	0.0238021
522.96	300	1.599	88.9321	0.0223633
523.96	300	1.598	88.8765	0.0379799
524.96	300	1.601	89.0434	0.0521223
525.96	300	1.599	88.9321	0.0513685
526.96	300	1.599	88.9321	0.0777013
527.96	300	1.598	88.8765	0.073307
528.96	300	1.597	88.8209	0.0683315
529.96	300	1.597	88.8209	0.0444555
530.96	300	1.597	88.8209	0.0177077
531.96	300	1.593	88.5984	-0.0126758
532.96	300	1.595	88.7097	-0.0162994
533.96	300	1.598	88.8765	-0.045031
534.96	300	1.596	88.7653	-0.0397239
535.96	300	1.591	88.4872	-0.0701384
536.96	300	1.596	88.7653	-0.0779363
537.96	300	1.594	88.6541	-0.0730163
538.96	300	1.591	88.4872	-0.070207
539.96	300	1.592	88.5428	-0.03587
540.96	300	1.593	88.5984	-0.00675921
541.96	300	1.593	88.5984	0.0277431
542.96	300	1.588	88.3204	0.0463132
543.96	300	1.592	88.5428	0.0713856
544.96	300	1.592	88.5428	0.0805893
545.96	300	1.589	88.376	0.106941
546.96	300	1.593	88.5984	0.105689
547.96	300	1.592	88.5428	0.102553
548.96	300	1.588	88.3204	0.100758
549.96	300	1.591	88.4872	0.117288
550.96	300	1.591	88.4872	0.114888
551.96	300	1.588	88.3204	0.103089
552.96	300	1.59	88.4316	0.0978713
553.96	300	1.591	88.4872	0.0885948
554.96	300	1.591	88.4872	0.0876553
555.96	300	1.594	88.6541	0.0857047
556.96	300	1.586	88.2091	0.0403202
557.96	300	1.588	88.3204	0.00824716
558.96	300	1.588	88.3204	-0.0201829
559.96	300	1.588	88.3204	0.00174143
560.96	300	1.59	88.4316	0.0253989
561.96	300	1.586	88.2091	0.0532514
562.96	300	1.586	88.2091	0.036854
563.96	300	1.586	88.2091	0.0552949
564.96	300	1.588	88.3204	0.0796432
565.96	300	1.586	88.2091	0.0809797
566.96	300	1.588	88.3204	0.102124
567.96	300	1.587	88.2647	0.112499
568.96	300	1.585	88.1535	0.15075
569.96	300	1.583	88.0423	0.136791
570.96	300	1.584	88.0979	0.114145
571.96	300	1.58	87.8754	0.100652
572.96	300	1.585	88.1535	0.0861091
573.96	300	1.584	88.0979	0.031343
574.96	300	1.581	87.931	0.00404649
575.96	300	1.582	87.9867	-0.0356706
576.96	300	1.581	87.931	-0.0541786
577.96	300	1.581	87.931	-0.0642873
578.96	300	1.579	87.8198	-0.0675739
579.96	300	1.58	87.8754	-0.0949974
580.96	300	1.58	87.8754	-0.107129
581.96	300	1.577	87.7086	-0.0991073
582.96	300	1.578	87.7642	-0.0599465
583.96	300	1.581	87.931	-0.0471553
584.96	300	1.577	87.7086	-0.00986605
585.96	300	1.581	87.931	0.0593997
586.96	300	1.577	87.7086	0.124866
587.96	300	1.577	87.7086	0.118303
588.96	300	1.576	87.6529	0.125518
589.96	300	1.574	87.5417	0.109459
590.96	300	1.578	87.7642	0.0494924
591.96	300	1.573	87.4861	0.0190268
592.96	300	1.576	87.6529	0.0246778
593.96	300	1.577	87.7086	0.068004
594.96	300	1.574	87.5417	0.0762465
595.96	300	1.577	87.7086	0.0758218
596.96	300	1.576	87.6529	0.0784868
597.96	300	1.57	87.3192	0.0796428
598.96	300	1.574	87.5417	0.0840093
599.96	300	1.575	87.5973	0.084418
600.96	300	1.576	87.6529	0.0820914
601.96	300	1.572	87.4305	0.07731
602.96	299.99	1.574	87.5417	0.0827727
603.96	300	1.573	87.4861	0.0672661
604.96	300	1.572	87.4305	0.0548043
605.96	300	1.569	87.2636	0.0410406
606.96	300	1.568	87.208	0.0308183
607.96	300	1.576	87.6529	-0.00167065
608.96	300	1.572	87.4305	-0.0375659
609.96	300	1.571	87.3749	-0.110827
610.96	300	1.569	87.2636	-0.113725
611.96	300	1.569	87.2636	-0.130952
612.96	300	1.569	87.2636	-0.104389
613.96	300	1.571	87.3749	-0.110582
614.96	300	1.569	87.2636	-0.0415849
615.96	300	1.567	87.1524	-0.0519937
616.96	300	1.566	87.0968	-0.0488092
617.96	300	1.567	87.1524	-0.0259567
618.96	300	1.57	87.3192	-0.0105138
619.96	300	1.568	87.208	-0.0402578
620.96	300	1.565	87.0412	-0.0296388
621.96	300	1.564	86.9855	-0.0773069
622.96	300	1.563	86.9299	-0.0844212
623.96	300	1.563	86.9299	-0.0632066
624.96	300	1.564	86.9855	-0.0475563
625.96	300	1.564	86.9855	-0.00989388
626.96	300	1.562	86.8743	-0.0255354
627.96	300	1.559	86.7075	-0.0223263
628.96	300	1.563	86.9299	-0.0183106
629.96	300	1.561	86.8187	0.042566
630.96	300	1.561	86.8187	0.0599675
631.96	300	1.56	86.7631	0.12594
632.96	300	1.56	86.7631	0.0357304
633.96	300	1.56	86.7631	0.0676363
634.96	300	1.56	86.7631	0.0832096
635.96	300	1.558	86.6518	0.0761933
636.96	300	1.561	86.8187	0.0888139
637.96	300	1.559	86.7075	0.101792
638.96	300	1.558	86.6518	0.0942774
639.96	300	1.559	86.7075	0.0801758
640.96	300	1.557	86.5962	0.0525711
641.96	300	1.559	86.7075	0.0487761
642.96	300	1.559	86.7075	0.0301673
643.96	300	1.555	86.485	0.0308551
644.96	300	1.561	86.8187	0.0337289
645.96	300	1.557	86.5962	0.04394
646.96	300	1.557	86.5962	0.0701741
647.96	300	1.556	86.5406	0.0874344
648.96	300	1.557	86.5962	0.0937966
649.96	300	1.556	86.5406	0.109393
650.96	300	1.555	86.485	0.103808
651.96	300	1.557	86.5962	0.106987
652.96	300	1.556	86.5406	0.131934
653.96	300	1.557	86.5962	0.117142
654.96	300	1.555	86.485	0.114309
655.96	300	1.555	86.485	0.104777
656.96	300	1.555	86.485	0.105603
657.96	300	1.552	86.3181	0.0966751
658.96	300	1.55	86.2069	0.0896405
659.96	299.99	1.552	86.3181	0.0220903
660.96	300	1.553	86.3737	-0.0089678
661.96	300	1.552	86.3181	-0.0472484
662.96	300	1.552	86.3181	-0.0257285
663.96	300	1.551	86.2625	0.00461635
664.96	300	1.553	86.3737	0.0211262
665.96	300	1.553	86.3737	0.0211849
666.96	300	1.549	86.1513	0.0269976
667.96	300	1.544	85.8732	-0.0238151
668.96	300	1.551	86.2625	-0.0226457
669.96	300	1.548	86.0957	-0.0446886
670.96	300	1.549	86.1513	-0.0427017
671.96	300	1.548	86.0957	-0.0359875
672.96	300	1.549	86.1513	-0.0583723
673.96	300	1.548	86.0957	-0.0505075
674.96	300	1.548	86.0957	-0.0749237
675.96	300	1.548	86.0957	-0.11547
676.96	300	1.544	85.8732	-0.103112
677.96	300	1.547	86.04	-0.0653873
678.96	300	1.546	85.9844	-0.0515241
679.96	300	1.546	85.9844	-0.082771
680.96	300	1.543	85.8176	-0.0676958
681.96	300	1.545	85.9288	-0.0519373
682.96	300	1.545	85.9288	0.0341495
683.96	300	1.542	85.762	0.0673109
684.96	300	1.542	85.762	0.0803843
685.96	300	1.542	85.762	0.0831326
686.96	300	1.541	85.7063	0.0791367
687.96	300	1.542	85.762	0.0768577
688.96	300	1.541	85.7063	0.0764202
689.96	300	1.541	85.7063	0.0711706
690.96	300	1.539	85.5951	0.0712801
691.96	300	1.539	85.5951	0.0696891
692.96	300	1.541	85.7063	0.067035
693.96	299.99	1.539	85.5951	0.0615766
694.96	300	1.538	85.5395	0.0548453
695.96	300	1.542	85.762	0.0517729
696.96	300	1.538	85.5395	0.0316498
697.96	300	1.54	85.6507	0.0120809
698.96	300	1.54	85.6507	-0.0271774
699.96	300	1.538	85.5395	-0.0440571
700.96	300	1.539	85.5951	-0.0561004
701.96	300	1.539	85.5951	-0.0769909
702.96	300	1.536	85.4283	-0.0923463
703.96	300	1.536	85.4283	-0.0889943
704.96	300	1.538	85.5395	-0.0879754
705.96	300	1.537	85.4839	-0.06913
706.96	300	1.54	85.6507	-0.0493644
707.96	300	1.535	85.3726	0.0329824
708.96	300	1.536	85.4283	0.0683903
709.96	300	1.533	85.2614	0.108384
710.96	300	1.535	85.3726	0.0911246
711.96	300	1.534	85.317	0.0291405
712.96	300	1.534	85.317	0.0423982
713.96	300	1.534	85.317	-0.00146416
714.96	300	1.531	85.1502	-0.028642
715.96	300	1.531	85.1502	-0.0442388
716.96	300	1.53	85.0945	-0.0671883
717.96	300	1.53	85.0945	-0.0781291
718.96	300	1.531	85.1502	-0.0806808
719.96	300.01	1.531	85.1502	-0.090701
720.96	300	1.529	85.0389	-0.077432
721.96	300	1.528	84.9833	-0.0701927
722.96	300.01	1.533	85.2614	-0.0288909
723.96	300	1.531	85.1502	0.0271469
724.96	300	1.529	85.0389	0.0476452
725.96	300	1.528	84.9833	0.0795323
726.96	300	1.53	85.0945	0.116569
727.96	300	1.528	84.9833	0.132766
728.96	300	1.528	84.9833	0.120858
729.96	300	1.527	84.9277	0.121798
730.96	300	1.526	84.8721	0.118851
731.96	300	1.529	85.0389	0.136896
732.96	300	1.526	84.8721	0.14377
733.96	300	1.526	84.8721	0.145001
734.96	300	1.525	84.8165	0.142376
735.96	300	1.525	84.8165	0.152073
736.96	300	1.526	84.8721	0.12753
737.96	300	1.527	84.9277	0.125727
738.96	300	1.527	84.9277	0.115505
739.96	300	1.524	84.7608	0.112461
740.96	300	1.524	84.7608	0.110085
741.96	300	1.523	84.7052	0.108104
742.96	300	1.525	84.8165	0.105139
743.96	300	1.525	84.8165	0.108383
744.96	299.99	1.521	84.594	0.0955236
745.96	300	1.523	84.7052	0.0944726
746.96	300	1.524	84.7608	0.0851821
747.96	300	1.523	84.7052	0.0351865
748.96	300	1.518	84.4271	0.0185513
749.96	300	1.525	84.8165	0.0232017
750.96	300	1.521	84.594	0.00179173
751.96	300	1.519	84.4828	-0.0402287
752.96	300	1.523	84.7052	-0.055816
753.96	300	1.518	84.4271	-0.0707055
754.96	300	1.518	84.4271	-0.0839033
755.96	300	1.523	84.7052	-0.0767861
756.96	300	1.52	84.5384	-0.0593822
757.96	300	1.518	84.4271	-0.0815903
758.96	300	1.518	84.4271	-0.0449566
759.96	300	1.518	84.4271	-0.0442243
760.96	300	1.519	84.4828	-0.0512341
761.96	300	1.517	84.3715	-0.0578175
762.96	300	1.517	84.3715	-0.0586355
763.96	300	1.52	84.5384	-0.0119251
764.96	300	1.517	84.3715	-0.0198491
765.96	300	1.514	84.2047	0.0342388
766.96	300	1.514	84.2047	0.038511
767.96	300	1.515	84.2603	0.0641895
768.96	300	1.513	84.1491	0.0609919
769.96	300	1.513	84.1491	0.0596309
770.96	300	1.515	84.2603	0.0160633
771.96	300	1.511	84.0378	8.09251E-05
772.96	300	1.514	84.2047	-0.00998475
773.96	300	1.513	84.1491	0.0318533
774.96	300	1.509	83.9266	0.0619713
775.96	300	1.51	83.9822	0.105326
776.96	300	1.513	84.1491	0.0963633
777.96	300	1.512	84.0934	0.0833512
778.96	300	1.513	84.1491	0.077249
779.96	300	1.511	84.0378	0.0606282
780.96	300	1.51	83.9822	0.0643032
781.96	300	1.511	84.0378	0.0383514
782.96	300	1.511	84.0378	0.0526354
783.96	300	1.51	83.9822	0.040194
784.96	300	1.511	84.0378	0.0420813
785.96	299.99	1.509	83.9266	0.0592467
786.96	300	1.511	84.0378	0.0570983
787.96	300	1.513	84.1491	0.0447794
788.96	300	1.508	83.871	0.062802
789.96	300	1.507	83.8154	0.0331893
790.96	300	1.507	83.8154	0.0275356
791.96	300	1.507	83.8154	0.0183707
792.96	300	1.507	83.8154	-0.00970644
793.96	300	1.506	83.7597	-0.0308651
794.96	300	1.507	83.8154	-0.00428362
795.96	300	1.505	83.7041	-0.0468088
796.96	300	1.505	83.7041	-0.0861893
797.96	300	1.508	83.871	-0.128702
798.96	300	1.504	83.6485	-0.161002
799.96	300	1.507	83.8154	-0.148226
800.96	300	1.504	83.6485	-0.136878
801.96	300	1.505	83.7041	-0.0938476
802.96	300	1.5	83.426	-0.085186
803.96	300	1.503	83.5929	-0.0899245
804.96	300	1.503	83.5929	-0.05023
805.96	300	1.501	83.4816	0.00152531
806.96	300	1.503	83.5929	0.00153578
807.96	300	1.501	83.4816	0.0129458
808.96	300	1.5	83.426	0.0462538
809.96	300	1.501	83.4816	0.0510062
810.96	300	1.5	83.426	0.0236667
811.96	300	1.5	83.426	0.061636
812.96	300	1.5	83.426	0.076182
813.96	300	1.494	83.0923	0.0774132
814.96	300	1.499	83.3704	0.0460124
815.96	300	1.498	83.3148	0.0416398
816.96	300	1.499	83.3704	0.0824078
817.96	300	1.498	83.3148	0.0975917
818.96	300	1.497	83.2592	0.124166
819.96	300	1.495	83.1479	0.121633
820.96	300	1.496	83.2036	0.108142
821.96	300	1.498	83.3148	0.0853851
822.96	300	1.493	83.0367	0.08356
823.96	300	1.496	83.2036	0.0718455
824.96	300	1.495	83.1479	0.0633953
825.96	300	1.496	83.2036	0.0268118
826.96	300	1.496	83.2036	0.0141043
827.96	300	1.497	83.2592	-0.0187588
828.96	300	1.495	83.1479	-0.0400898
829.96	300	1.496	83.2036	-0.0524742
830.96	300	1.494	83.0923	-0.0476991
831.96	300	1.495	83.1479	-0.0288484
832.96	300	1.494	83.0923	-0.00114207
833.96	300	1.494	83.0923	0.0451325
834.96	300	1.493	83.0367	0.120607
835.96	300	1.491	82.9255	0.141951
836.96	300	1.492	82.9811	0.129555
837.96	300	1.493	83.0367	0.117051
838.96	300	1.493	83.0367	0.0624513
839.96	300	1.491	82.9255	0.105853
840.96	300	1.492	82.9811	0.111782
841.96	300	1.49	82.8699	0.0570827
842.96	300	1.49	82.8699	0.0261759
843.96	300	1.491	82.9255	0.00746617
844.96	300	1.491	82.9255	-0.0108406
845.96	300	1.488	82.7586	-0.0629376
846.96	300	1.491	82.9255	-0.116452
847.96	300	1.486	82.6474	-0.121569
848.96	300	1.489	82.8142	-0.135984
849.96	300	1.488	82.7586	-0.127383
850.96	300	1.487	82.703	-0.105731
851.96	300	1.491	82.9255	-0.0730234
852.96	300	1.486	82.6474	-0.0756535
853.96	300	1.486	82.6474	-0.0819503
854.96	300	1.486	82.6474	-0.0818196
855.96	300	1.484	82.5362	-0.0841658
856.96	300	1.483	82.4805	-0.0420533
857.96	300	1.485	82.5918	0.025838
858.96	300	1.484	82.5362	0.01628
859.96	300	1.482	82.4249	0.0450859
860.96	300	1.485	82.5918	0.0660482
861.96	300	1.486	82.6474	0.106294
862.96	300	1.481	82.3693	0.081516
863.96	300	1.481	82.3693	0.0740245
864.96	300	1.482	82.4249	0.0839398
865.96	300	1.482	82.4249	0.0878495
866.96	300	1.48	82.3137	0.0967969
867.96	300	1.482	82.4249	0.101964
868.96	300	1.478	82.2024	0.118578
869.96	300	1.48	82.3137	0.11572
870.96	300	1.484	82.5362	0.0873972
871.96	300	1.482	82.4249	0.0716362
872.96	300	1.481	82.3693	0.0767907
873.96	300	1.478	82.2024	0.0777854
874.96	300	1.479	82.2581	0.0911594
875.96	300	1.475	82.0356	0.0855573
876.96	300	1.478	82.2024	0.0815313
877.96	300	1.477	82.1468	0.115213
878.96	300	1.478	82.2024	0.0902918
879.96	300	1.478	82.2024	0.0371613
880.96	300	1.477	82.1468	0.0418026
881.96	300	1.478	82.2024	-0.0098275
882.96	300	1.476	82.0912	-0.0637033
883.96	300	1.475	82.0356	-0.068685
884.96	300	1.479	82.2581	-0.0660603
885.96	300	1.477	82.1468	-0.0884384
886.96	300	1.477	82.1468	-0.0743485
887.96	300	1.476	82.0912	-0.098089
888.96	300	1.475	82.0356	-0.121469
889.96	300	1.474	81.98	-0.120366
890.96	300	1.474	81.98	-0.121124
891.96	300	1.473	81.9244	-0.123385
892.96	300	1.472	81.8687	-0.116329
893.96	300	1.471	81.8131	-0.106954
894.96	300	1.471	81.8131	-0.0844325
895.96	300	1.47	81.7575	-0.020548
896.96	300	1.472	81.8687	0.0492947
897.96	300	1.469	81.7019	0.0792506
898.96	300	1.471	81.8131	0.0869754
899.96	300	1.472	81.8687	0.0564822
900.96	300	1.467	81.5907	0.0293684
901.96	300	1.471	81.8131	0.0443076
902.96	300	1.468	81.6463	0.0626335
903.96	300	1.468	81.6463	0.0813353
904.96	300	1.468	81.6463	0.0970248
905.96	300	1.468	81.6463	0.0960707
906.96	300	1.467	81.5907	0.10623
907.96	300	1.469	81.7019	0.0963085
908.96	300	1.468	81.6463	0.106158
909.96	300	1.466	81.535	0.0918236
910.96	300	1.468	81.6463	0.0772675
911.96	300	1.466	81.535	0.0875071
912.96	300	1.465	81.4794	0.121693
913.96	300	1.464	81.4238	0.136812
914.96	300	1.465	81.4794	0.142202
915.96	300	1.467	81.5907	0.128221
916.96	300	1.464	81.4238	0.116577
917.96	300	1.466	81.535	0.0811414
918.96	300	1.464	81.4238	0.0493492
919.96	300	1.464	81.4238	0.036391
920.96	300	1.464	81.4238	-0.0370931
921.96	300	1.463	81.3682	-0.100018
922.96	300	1.463	81.3682	-0.105061
923.96	300	1.463	81.3682	-0.0891915
924.96	300	1.46	81.2013	-0.0596965
925.96	300	1.465	81.4794	-0.0297724
926.96	300	1.462	81.3126	-0.0867714
927.96	300	1.462	81.3126	-0.0843812
928.96	300	1.46	81.2013	-0.113052
929.96	300	1.459	81.1457	-0.0936652
930.96	300	1.459	81.1457	-0.106246
931.96	300	1.458	81.0901	-0.0737647
932.96	300	1.461	81.257	-0.1232
933.96	300	1.462	81.3126	-0.101415
934.96	300	1.455	80.9232	-0.0811486
935.96	300	1.456	80.9789	-0.0271756
936.96	300	1.456	80.9789	0.0218129
937.96	300	1.455	80.9232	-0.0474987
938.96	300	1.455	80.9232	-0.0865104
939.96	300	1.457	81.0345	-0.0898085
940.96	300	1.456	80.9789	-0.0528559
941.96	300	1.452	80.7564	0.0124233
942.96	300	1.455	80.9232	0.026482
943.96	300	1.454	80.8676	0.0166004
944.96	300	1.453	80.812	0.0366733
945.96	300	1.454	80.8676	0.0481366
946.96	300	1.454	80.8676	0.0439843
947.96	300	1.455	80.9232	0.0295641
948.96	300	1.452	80.7564	0.0254506
949.96	300	1.45	80.6452	0.0169386
950.96	300	1.452	80.7564	0.0254131
951.96	300	1.453	80.812	0.0662207
952.96	300	1.452	80.7564	0.130148
953.96	300	1.451	80.7008	0.148199
954.96	300	1.452	80.7564	0.153959
955.96	300	1.45	80.6452	0.148229
956.96	300	1.45	80.6452	0.147842
957.96	300	1.45	80.6452	0.16166
958.96	300	1.448	80.5339	0.168507
959.96	300	1.45	80.6452	0.183304
960.96	300	1.448	80.5339	0.139056
961.96	300	1.446	80.4227	0.148179
962.96	300	1.45	80.6452	0.0907947
963.96	300	1.448	80.5339	0.0686862
964.96	300	1.45	80.6452	0.0277023
965.96	300	1.451	80.7008	-0.0291109
966.96	300	1.45	80.6452	-0.0627507
967.96	300	1.447	80.4783	-0.0868453
968.96	300	1.446	80.4227	-0.128367
969.96	300	1.448	80.5339	-0.147498
970.96	300	1.448	80.5339	-0.128634
971.96	300	1.446	80.4227	-0.115186
972.96	300	1.445	80.3671	-0.0739641
973.96	300	1.445	80.3671	-0.0646597
974.96	300	1.447	80.4783	-0.0728109
975.96	300	1.444	80.3115	-0.0543885
976.96	300	1.443	80.2558	-0.0515997
977.96	300	1.444	80.3115	-0.0416085
978.96	300	1.443	80.2558	-0.0384677
979.96	300	1.442	80.2002	-0.0746776
980.96	300	1.443	80.2558	-0.0439717
981.96	300	1.443	80.2558	-0.0319077
982.96	300	1.442	80.2002	-0.0550129
983.96	300	1.443	80.2558	-0.0452143
984.96	300	1.443	80.2558	-0.0198715
985.96	300	1.439	80.0334	0.033787
986.96	300	1.441	80.1446	0.00582052
987.96	300	1.439	80.0334	0.0227641
988.96	300	1.44	80.089	0.0291027
989.96	300	1.439	80.0334	0.0779252
990.96	300	1.44	80.089	0.0854784
991.96	300	1.436	79.8665	0.0265459
992.96	300	1.442	80.2002	0.024113
993.96	300	1.438	79.9778	0.0281144
994.96	300	1.438	79.9778	0.0162327
995.96	300	1.437	79.9221	0.035591
996.96	300	1.437	79.9221	0.0552174
997.96	300	1.442	80.2002	0.100202
998.96	300	1.438	79.9778	0.123776
999.96	300	1.437	79.9221	0.112053
1000.96	300	1.436	79.8665	0.119937
1001.96	300	1.436	79.8665	0.112946
1002.96	300	1.436	79.8665	0.119149
1003.96	300	1.435	79.8109	0.117025
1004.96	300	1.434	79.7553	0.104419
1005.96	300	1.434	79.7553	0.0893455
1006.96	300	1.435	79.8109	0.0705531
1007.96	299.99	1.43	79.5328	0.0668171
1008.96	300	1.432	79.644	0.0528629
1009.96	300	1.432	79.644	0.0500548
1010.96	300	1.433	79.6997	0.0494536
1011.96	300	1.435	79.8109	0.0219359
1012.96	300	1.434	79.7553	-0.0163579
1013.96	300	1.433	79.6997	-0.0601749
1014.96	300	1.432	79.644	-0.091464
1015.96	300	1.43	79.5328	-0.125944
1016.96	300	1.434	79.7553	-0.131485
1017.96	300	1.434	79.7553	-0.153087
1018.96	300	1.431	79.5884	-0.129001
1019.96	300	1.432	79.644	-0.118726
1020.96	300	1.43	79.5328	-0.133096
1021.96	300	1.427	79.366	-0.162573
1022.96	300	1.427	79.366	-0.2088
1023.96	300	1.428	79.4216	-0.181401
1024.96	300	1.427	79.366	-0.173177
1025.96	300	1.426	79.3103	-0.16554
1026.96	300	1.426	79.3103	-0.134636
1027.96	300	1.425	79.2547	-0.0682248
1028.96	300	1.426	79.3103	0.0315928
1029.96	300	1.426	79.3103	0.113891
1030.96	300	1.425	79.2547	0.0967718
1031.96	300	1.425	79.2547	0.0834969
1032.96	300	1.423	79.1435	0.0508468
1033.96	300	1.423	79.1435	0.042804
1034.96	300	1.424	79.1991	-0.00335956
1035.96	300	1.423	79.1435	0.0583436
1036.96	300	1.421	79.0323	0.0738189
1037.96	300	1.422	79.0879	0.0433803
1038.96	300	1.42	78.9766	0.0445898
1039.96	300	1.423	79.1435	0.0505287
1040.96	300	1.423	79.1435	0.0895496
1041.96	300	1.421	79.0323	0.0938145
1042.96	300	1.42	78.9766	0.0772446
1043.96	300	1.42	78.9766	0.0626395
1044.96	300	1.421	79.0323	0.0944014
1045.96	300	1.422	79.0879	0.11594
1046.96	300	1.422	79.0879	0.154582
1047.96	300	1.418	78.8654	0.157425
1048.96	300	1.419	78.921	0.138792
1049.96	300	1.42	78.9766	0.141785
1050.96	300	1.418	78.8654	0.146649
1051.96	300	1.418	78.8654	0.140256
1052.96	300	1.419	78.921	0.143251
1053.96	300	1.418	78.8654	0.157887
1054.96	300	1.419	78.921	0.134747
1055.96	300	1.42	78.9766	0.105155
1056.96	300	1.419	78.921	0.0643482
1057.96	300	1.417	78.8098	-0.0284228
1058.96	300	1.417	78.8098	-0.078647
1059.96	300	1.416	78.7542	-0.132657
1060.96	300	1.419	78.921	-0.160961
1061.96	300	1.418	78.8654	-0.165052
1062.96	300	1.414	78.6429	-0.146531
1063.96	300	1.413	78.5873	-0.0939109
1064.96	300	1.415	78.6986	-0.0263779
1065.96	300	1.414	78.6429	0.0256153
1066.96	300	1.413	78.5873	0.0687826
1067.96	300	1.413	78.5873	0.0954825
1068.96	300	1.413	78.5873	0.104839
1069.96	300	1.411	78.4761	0.120343
1070.96	300	1.414	78.6429	0.133652
1071.96	300	1.411	78.4761	0.102823
1072.96	300	1.411	78.4761	0.0751036
1073.96	300	1.41	78.4205	0.0562624
1074.96	300	1.411	78.4761	0.0115607
1075.96	300	1.411	78.4761	-0.0133609
1076.96	300	1.41	78.4205	-0.0625699
1077.96	300	1.408	78.3092	-0.134416
1078.96	300	1.407	78.2536	-0.154391
1079.96	300	1.407	78.2536	-0.146534
1080.96	300	1.409	78.3648	-0.144476
1081.96	300	1.407	78.2536	-0.158556
1082.96	300	1.407	78.2536	-0.169962
1083.96	300	1.405	78.1424	-0.154886
1084.96	300	1.405	78.1424	-0.145728
1085.96	300	1.404	78.0868	-0.10814
1086.96	300	1.407	78.2536	-0.0545751
1087.96	300	1.406	78.198	0.0191171
1088.96	300	1.407	78.2536	0.0476653
1089.96	300	1.404	78.0868	0.0584146
1090.96	300	1.402	77.9755	0.077002
1091.96	300	1.404	78.0868	0.111644
1092.96	300	1.404	78.0868	0.135802
1093.96	300	1.405	78.1424	0.141955
1094.96	300	1.402	77.9755	0.14081
1095.96	300	1.409	78.3648	0.134384
1096.96	300	1.403	78.0311	0.157673
1097.96	300	1.403	78.0311	0.163033
1098.96	300	1.403	78.0311	0.179964
1099.96	300	1.402	77.9755	0.198701
1100.96	300	1.402	77.9755	0.196369
1101.96	300	1.401	77.9199	0.219738
1102.96	300	1.399	77.8087	0.210236
1103.96	300	1.402	77.9755	0.202657
1104.96	300	1.401	77.9199	0.181804
1105.96	300	1.4	77.8643	0.183738
1106.96	300	1.399	77.8087	0.149327
1107.96	300	1.4	77.8643	0.0627933
1108.96	300	1.398	77.7531	0.0157611
1109.96	300	1.399	77.8087	-0.0868719
1110.96	300	1.398	77.7531	-0.140544
1111.96	300	1.398	77.7531	-0.170552
1112.96	300	1.397	77.6974	-0.169815
1113.96	300	1.395	77.5862	-0.163207
1114.96	300	1.397	77.6974	-0.170963
1115.96	300	1.395	77.5862	-0.170932
1116.96	300	1.397	77.6974	-0.169212
1117.96	300	1.396	77.6418	-0.174797
1118.96	300	1.394	77.5306	-0.171829
1119.96	300	1.397	77.6974	-0.149615
1120.96	300	1.396	77.6418	-0.147375
1121.96	300	1.394	77.5306	-0.131326
1122.96	300	1.393	77.475	-0.133619
1123.96	300	1.393	77.475	-0.0933406
1124.96	300	1.392	77.4194	-0.0600872
1125.96	300	1.392	77.4194	0.0389755
1126.96	300	1.391	77.3637	0.0160108
1127.96	300	1.392	77.4194	0.0184444
1128.96	300	1.391	77.3637	-0.0110189
1129.96	300	1.39	77.3081	0.0440341
1130.96	300	1.389	77.2525	0.100162
1131.96	300	1.39	77.3081	0.0608512
1132.96	300	1.389	77.2525	0.072707
1133.96	300	1.389	77.2525	0.106327
1134.96	300	1.386	77.0857	0.135382
1135.96	300	1.389	77.2525	0.133183
1136.96	300	1.384	76.9744	0.13686
1137.96	300	1.387	77.1413	0.151653
1138.96	300	1.387	77.1413	0.131064
1139.96	300	1.386	77.0857	0.132916
1140.96	300	1.387	77.1413	0.134673
1141.96	300	1.385	77.03	0.129725
1142.96	300	1.386	77.0857	0.133229
1143.96	300	1.387	77.1413	0.143125
1144.96	300	1.383	76.9188	0.158684
1145.96	300	1.384	76.9744	0.17106
1146.96	300	1.384	76.9744	0.172143
1147.96	300	1.385	77.03	0.180335
1148.96	300	1.385	77.03	0.179928
1149.96	300	1.384	76.9744	0.181558
1150.96	300	1.384	76.9744	0.203723
1151.96	300	1.384	76.9744	0.112177
1152.96	300	1.382	76.8632	0.00229039
1153.96	300	1.386	77.0857	-0.0479364
1154.96	300	1.385	77.03	-0.0956206
1155.96	300	1.382	76.8632	-0.122667
1156.96	300	1.381	76.8076	-0.132964
1157.96	300	1.382	76.8632	-0.128035
1158.96	300	1.379	76.6963	-0.143084
1159.96	300	1.381	76.8076	-0.159659
1160.96	300	1.38	76.7519	-0.161589
1161.96	300	1.381	76.8076	-0.169965
1162.96	300	1.38	76.7519	-0.149739
1163.96	300	1.376	76.5295	-0.109144
1164.96	300	1.378	76.6407	-0.0462394
1165.96	300	1.379	76.6963	0.0423697
1166.96	300	1.379	76.6963	0.0906375
1167.96	300	1.378	76.6407	0.15541
1168.96	300	1.38	76.7519	0.0820571
1169.96	300	1.376	76.5295	0.048573
1170.96	300	1.376	76.5295	0.0139739
1171.96	300	1.376	76.5295	-0.0151263
1172.96	300	1.376	76.5295	-0.0806145
1173.96	300	1.376	76.5295	-0.0989658
1174.96	300	1.374	76.4182	-0.0443643
1175.96	300	1.375	76.4739	-0.0280884
1176.96	300	1.374	76.4182	-0.0790314
1177.96	300	1.374	76.4182	-0.0445757
1178.96	300	1.374	76.4182	-0.0511602
1179.96	300	1.373	76.3626	0.0135666
1180.96	300	1.373	76.3626	0.0247372
1181.96	300	1.374	76.4182	0.0625561
1182.96	300	1.374	76.4182	0.0691388
1183.96	300	1.364	75.8621	0.0650386
1184.96	300	1.37	76.1958	0.0714412
1185.96	300	1.374	76.4182	0.0739023
1186.96	300	1.372	76.307	0.0920418
1187.96	300	1.372	76.307	0.0943632
1188.96	300	1.369	76.1402	0.0987066
1189.96	300	1.372	76.307	0.093371
1190.96	300	1.369	76.1402	0.118188
1191.96	300	1.367	76.0289	0.12814
1192.96	300	1.371	76.2514	0.0947576
1193.96	300	1.365	75.9177	0.102532
1194.96	300	1.368	76.0845	0.10405
1195.96	300	1.37	76.1958	0.125554
1196.96	300	1.368	76.0845	0.141439
1197.96	300	1.367	76.0289	0.124026
1198.96	300	1.368	76.0845	0.0989075
1199.96	300	1.367	76.0289	0.107319
1200.96	300	1.366	75.9733	0.0845365
1201.96	300	1.362	75.7508	-0.0071827
1202.96	300	1.368	76.0845	-0.0756976
1203.96	300	1.367	76.0289	-0.0538575
1204.96	300	1.366	75.9733	-0.0617222
1205.96	300	1.364	75.8621	-0.0871675
1206.96	300	1.366	75.9733	-0.116708
1207.96	300	1.363	75.8065	-0.118946
1208.96	300	1.364	75.8621	-0.0937283
1209.96	300	1.365	75.9177	-0.109401
1210.96	300	1.36	75.6396	-0.100032
1211.96	300	1.363	75.8065	-0.107007
1212.96	300	1.371	76.2514	-0.0812766
1213.96	300	1.361	75.6952	-0.0425971
1214.96	300	1.361	75.6952	-0.0211543
1215.96	300	1.361	75.6952	0.00511212
1216.96	300	1.359	75.584	0.0690354
1217.96	300	1.355	75.3615	0.0338159
1218.96	300	1.359	75.584	-0.0113259
1219.96	300	1.359	75.584	-0.044332
1220.96	300	1.358	75.5284	-0.0991517
1221.96	300	1.358	75.5284	-0.146372
1222.96	300	1.358	75.5284	-0.136263
1223.96	300	1.357	75.4727	-0.137342
1224.96	300	1.357	75.4727	-0.101218
1225.96	300	1.358	75.5284	-0.0206093
1226.96	300	1.357	75.4727	0.0196729
1227.96	300	1.354	75.3059	0.0760227
1228.96	300	1.356	75.4171	0.103559
1229.96	300	1.355	75.3615	0.149966
1230.96	300	1.353	75.2503	0.143914
1231.96	300	1.356	75.4171	0.171412
1232.96	300	1.353	75.2503	0.174268
1233.96	300	1.352	75.1947	0.163644
1234.96	300	1.354	75.3059	0.16009
1235.96	300	1.355	75.3615	0.122211
1236.96	300	1.353	75.2503	0.110199
1237.96	300	1.352	75.1947	0.0988702
1238.96	300	1.354	75.3059	0.112161
1239.96	300	1.352	75.1947	0.091453
1240.96	300	1.352	75.1947	0.0860734
1241.96	300	1.353	75.2503	0.105068
1242.96	300	1.352	75.1947	0.20654
1243.96	300	1.352	75.1947	0.268209
1244.96	300	1.351	75.139	0.291074
1245.96	300	1.352	75.1947	0.281903
1246.96	300	1.351	75.139	0.256318
1247.96	300	1.351	75.139	0.200978
1248.96	300	1.35	75.0834	0.169636
1249.96	300	1.35	75.0834	0.103056
1250.96	300	1.339	74.4716	0.0823052
1251.96	300	1.339	74.4716	0.0919976
1252.96	300	1.35	75.0834	0.0805732
1253.96	300	1.349	75.0278	0.0827314
1254.96	300	1.345	74.8053	0.0865106
1255.96	300	1.35	75.0834	0.0718459
1256.96	300	1.347	74.9166	-0.00179807
1257.96	300	1.347	74.9166	-9.68713E-05
1258.96	300	1.349	75.0278	-0.000029764
1259.96	300	1.346	74.861	-3.16482E-05
1260.96	300	1.344	74.7497	-3.55796E-05
1261.96	300	1.343	74.6941	-3.82476E-05
1262.96	300	1.344	74.7497	-0.000047686
1263.96	300	1.345	74.8053	-6.39663E-05
1264.96	300.04	1.346	74.861	-9.04131E-05
1265.96	302.9	1.345	74.8053	-0.000133681
1266.96	310.42	1.342	74.6385	-0.000201723
1267.96	319.45	1.343	74.6941	-0.000307503
1268.96	328.69	1.342	74.6385	-0.00047019
1269.96	338.14	1.338	74.416	-0.000707227
1270.96	347.9	1.334	74.1935	-0.00102209
1271.96	357.92	1.324	73.6374	-0.00137617
1272.96	368.09	1.307	72.6919	-0.00171431
1273.96	378.3	1.276	70.9677	-0.0020123
1274.96	388.49	1.219	67.7976	-0.00225924
1275.96	398.62	1.127	62.6808	-0.00243782
1276.96	408.72	0.972	54.0601	-0.00254319
1277.96	418.79	0.74	41.1568	-0.00257658
1278.96	428.81	0.449	24.9722	-0.00253639
1279.96	438.83	0.197	10.9566	-0.00242295
1280.96	448.85	0.064	3.55951	-0.00223664
1281.96	458.86	0.017	0.945495	-0.00198229
1282.96	468.88	0.004	0.222469	-0.00166705
1283.96	478.91	0.005	0.278087	-0.0013077
1284.96	488.95	0.004	0.222469	-0.000929081
1285.96	498.99	0.003	0.166852	-0.000571057
1286.96	509.03	0.005	0.278087	-0.00028339
1287.96	519.06	0.003	0.166852	-0.000104994
1288.96	529.08	0.005	0.278087	-2.60696E-05
1289.96	539.11	0.002	0.111235	-1.7469E-06
1290.96	549.13	0.002	0.111235	4.09997E-06
1291.96	559.16	0.004	0.222469	5.40714E-06
1292.96	569.18	0.005	0.278087	6.99384E-06
1293.96	579.2	0.009	0.500556	9.58147E-06
1294.96	589.22	0.005	0.278087	1.17438E-05
1295.96	599.24	0.006	0.333704	1.38485E-05
1296.96	609.26	0.007	0.389321	1.54278E-05
1297.96	619.28	0.01	0.556174	1.72691E-05
1298.96	629.3	0.007	0.389321	1.85185E-05
1299.96	639.32	0.007	0.389321	1.94138E-05
1300.96	649.33	0.012	0.667408	2.02932E-05
1301.96	659.35	0.014	0.778643	2.12462E-05
1302.96	669.37	0.01	0.556174	2.13159E-05
1303.96	679.39	0.013	0.723026	2.06483E-05
1304.96	689.41	0.014	0.778643	1.97327E-05
1305.96	699.42	0.016	0.889878	1.90834E-05
1306.96	709.44	0.016	0.889878	1.83485E-05
1307.96	719.45	0.019	1.05673	1.69335E-05
1308.96	729.46	0.018	1.00111	1.49972E-05
1309.96	739.48	0.019	1.05673	0.000013059
1310.96	749.49	0.007	0.389321	1.32917E-05
1311.96	759.5	0.013	0.723026	1.40271E-05
1312.96	769.52	0.013	0.723026	1.33955E-05
1313.96	779.53	0.023	1.2792	1.25994E-05
1314.71	787.04			1.31465E-05