File: data/TGA/005d-L_M/L3-seferosTGA.txt
Filename	F1
Instrument name
Operator	Gwenael
rundate	2025-02-10
Sample name	F1
[step]
Step 1
Time	Temperature	Weight	Weight	Deriv. Weight
min	°C	mg	%	% / °C
0	30.466	0.74533	100	50
0.56	32.288	0.56555	99.69149	50
1.12	34.34	0.58387	100.046	50
1.68	36.779	0.69902	92.37389	50
2.24	39.534	0.8251	93.07408	50
2.8	42.63	0.96129	93.26015	50
3.36	46.194	1.13695	93.58839	50
3.92	50.348	1.36514	94.03907	50
4.48	55.125	1.62124	94.51393	50
5.04	60.441	1.87436	94.97795	50
5.6	66.227	2.11389	95.33017	50
6.16	72.359	2.33609	95.66054	50
6.72	78.868	2.54855	95.9472	50
7.12	83.65	2.6864	96.09168	50
7.4	86.876	2.69031	96.03926	50
7.68	89.853	2.58861	95.80948	50
7.96	92.506	2.40343	95.5205	50
8.24	94.782	2.16738	95.12456	50
8.52	96.755	1.91051	94.72843	50
8.8	98.431	1.66964	94.36944	50
9.08	99.917	1.46265	94.07408	50
9.36	101.25	1.3005	93.7853	50
9.64	102.516	1.17654	93.51838	50
9.92	103.667	1.07412	93.28201	50
10.2	104.745	0.98493	93.08066	50
10.48	105.69	0.89277	92.84217	50
10.76	106.533	0.79685	92.57292	50
11.04	107.245	0.6925	92.32573	50
11.32	107.84	0.58536	92.02805	50
11.6	108.317	0.47912	91.76538	50
11.88	108.685	0.37942	91.52031	50
12.16	108.962	0.28644	91.27969	50
12.44	109.147	0.20211	91.03462	50
12.72	109.28	0.12709	90.80271	50
13	109.355	6.19E-02	90.71954	50
13.28	109.35	4.82E-04	90.41973	50
13.56	109.308	-5.24E-02	90.18549	50
13.84	109.23	-0.10266	89.98201	50
14.12	109.112	-0.14588	89.8441	50
14.4	108.938	-0.18523	89.6472	50
14.68	108.747	-0.22039	89.50716	50
14.96	108.504	-0.25138	89.34739	50
15.24	108.273	-0.27706	89.1942	50
15.52	107.999	-0.30032	89.04101	50
15.8	107.717	-0.32005	88.93598	50
16.08	107.416	-0.33591	88.83095	50
16.36	107.121	-0.34856	88.69304	50
16.64	106.797	-0.3588	88.58801	50
16.92	106.473	-0.36583	88.45687	50
17.44	105.977	-0.33801	88.3648	50
18	105.913	-0.14717	88.57718	50
18.56	106.514	0.12714	88.88356	50
19.12	107.565	0.35632	89.1176	50
19.68	108.903	0.52563	89.25106	50
20.24	110.517	0.67346	89.43714	50
20.8	112.457	0.83329	89.60135	50
21.36	114.701	1.00022	89.78956	50
21.92	117.232	1.1526	89.94913	50
22.48	119.967	1.28121	90.05416	50
23.04	122.881	1.38781	90.10677	50
23.6	125.906	1.47847	90.15919	50
24.16	129.061	1.5527	90.16151	50
24.72	132.294	1.61334	90.18781	50
25.28	135.58	1.65773	90.18781	50
25.84	138.882	1.68839	90.16151	50
26.4	142.191	1.70785	90.16809	50
26.96	145.51	1.71965	90.16809	50
27.52	148.776	1.72451	90.18124	50
28.08	152.035	1.72243	90.18124	50
28.64	155.243	1.71678	90.22708	50
29.2	158.416	1.70771	90.25783	50
29.76	161.554	1.69553	90.2118	50
30.32	164.636	1.67985	90.2381	50
30.88	167.675	1.66331	90.26441	50
31.44	170.673	1.64624	90.26441	50
32	173.659	1.63015	90.28395	50
32.56	176.6	1.61334	90.29052	50
33.12	179.524	1.59785	90.31683	50
33.68	182.413	1.58164	90.31683	50
34.24	185.307	1.56744	90.36286	50
34.8	188.15	1.55418	90.36286	50
35.36	191.006	1.54312	90.38897	50
35.92	193.835	1.53506	90.3824	50
36.48	196.669	1.52348	90.4087	50
37.04	199.487	1.51374	90.47215	50
37.6	202.283	1.50058	90.47215	50
38.16	205.077	1.49301	90.55106	50
38.72	207.883	1.48462	90.45029	50
39.28	210.663	1.47586	90.48975	50
39.84	213.458	1.4666	90.48975	50
40.4	216.242	1.45801	90.53559	50
40.96	219.02	1.44804	90.5619	50
41.52	221.805	1.43996	90.56847	50
42.08	224.583	1.42945	90.5882	50
42.64	227.358	1.41579	90.59478	50
43.2	230.14	1.4082	90.63404	50
43.76	232.941	1.40132	90.62766	50
44.32	235.734	1.38988	90.6472	50
44.88	238.515	1.37858	90.69981	50
45.44	241.304	1.36444	90.69323	50
46	244.089	1.35166	90.71296	50
46.56	246.873	1.3406	90.73926	50
47.12	249.666	1.32793	90.76538	50
47.68	252.454	1.31254	90.76538	50
48.24	255.239	1.29619	90.79168	50
48.8	258.022	1.28138	90.78511	50
49.36	260.799	1.26775	90.80484	50
49.92	263.588	1.25354	90.83114	50
50.48	266.37	1.2371	90.85725	50
51.04	269.161	1.21823	90.87041	50
51.6	271.959	1.202	90.87041	50
52.16	274.75	1.18277	90.89671	50
52.72	277.531	1.16342	90.87041	50
53.28	280.32	1.14454	90.89671	50
53.84	283.096	1.12626	90.89671	50
54.4	285.891	1.10515	90.91644	50
54.96	288.67	1.08537	90.91644	50
55.52	291.454	1.06548	90.91644	50
56.08	294.249	1.04326	90.90986	50
56.64	297.04	1.0237	90.88356	50
57.56	301.055	0.61846	91.34526	50
58.96	302.489	-0.73176	90.94275	50
60.36	303.211	-0.96272	90.6472	50
61.76	302.912	-1.20918	90.37814	50
63.16	302.434	-1.26564	90.10464	50
64.56	301.894	-1.2808	89.86828	50
65.96	301.432	-1.26226	89.68433	50
67.36	301.059	-1.23974	89.47427	50
68.76	300.76	-1.21866	89.31683	50
70.16	300.556	-1.20392	89.15261	50
71.56	300.394	-1.18718	89.01044	50
72.96	300.277	-1.18046	88.80039	50
74.36	300.201	-1.1721	88.67118	50
75.76	300.148	-1.16809	88.47427	50
77.16	300.101	-1.16615	88.38453	50
78.56	300.064	-1.16366	88.22263	50
79.96	300.052	-1.16346	88.1176	50
81.36	300.035	-1.161	87.97544	50
82.76	300.025	-1.16117	87.83965	50
84.16	300.007	-1.16114	87.73462	50
85.56	300.006	-1.16171	87.6559	50
86.96	300.005	-1.16058	87.50716	50
88.36	300.008	-1.15908	87.37582	50
89.76	300.011	-1.16134	87.27737	50
91.16	300.004	-1.16133	87.17234	50
92.56	300.011	-1.16115	87.04758	50
93.96	300.007	-1.16339	86.96441	50
95.36	300.009	-1.16452	86.87253	50
96.76	300.01	-1.16284	86.7675	50
98.16	300.021	-1.16304	86.68859	50
99.56	300.02	-1.16604	86.60986	50
100.96	300.018	-1.1681	86.51141	50
102.36	300.017	-1.16603	86.41296	50
103.76	300.022	-1.16679	86.33424	50
105.16	300.028	-1.1683	86.29265	50
106.56	300.016	-1.17259	86.17002	50
107.96	300.018	-1.17203	86.08259	50
109.36	300.011	-1.1709	86.01683	50
110.76	300.005	-1.17351	85.92495	50
112.16	300.009	-1.16958	85.83308	50
113.56	300.018	-1.17072	85.74778	50
114.96	300.018	-1.17091	85.69516	50
116.36	300.014	-1.17015	85.60986	50
117.76	300.02	-1.17335	85.53114	50
119.16	300.008	-1.17277	85.42611	50
120.56	300.016	-1.17334	85.34952	50
121.96	300.013	-1.17315	85.2706	50
123.36	300.025	-1.17223	85.21161	50
124.76	300.007	-1.17408	85.10658	50
126.16	300.015	-1.17259	85.02785	50
127.56	300.008	-1.17427	84.91625	50
128.96	300.014	-1.17203	84.85048	50
130.36	300.014	-1.17559	84.77834	50
131.76	300.017	-1.17409	84.73888	50
133.16	300.02	-1.17222	84.66228	50
134.56	300.022	-1.17504	84.57041	50
135.96	300.015	-1.17765	84.49168	50
137.36	300.022	-1.17541	84.45222	50
138.76	300.009	-1.17446	84.39323	50
140.16	300.008	-1.17558	84.29478	50
141.56	300.006	-1.17483	84.22244	50
142.96	300.014	-1.17578	84.15687	50
144.36	300.023	-1.17729	84.05184	50
145.76	300.015	-1.17671	83.97737	50
147.16	300.024	-1.17616	83.92263	50
148.56	300.022	-1.17916	83.86364	50
149.96	300.007	-1.17802	83.78491	50
151.36	300.018	-1.17747	83.70174	50
152.76	300.016	-1.17559	83.6383	50
154.16	300.034	-1.1788	83.58569	50
155.56	300.012	-1.17821	83.51354	50
156.96	300.011	-1.17877	83.4412	50
158.36	300.006	-1.18101	83.36905	50
159.76	299.999	-1.17932	83.29033	50
161.16	300.009	-1.18027	83.21799	50
162.56	300.014	-1.17746	83.15899	50
163.96	300.011	-1.18121	83.09342	50
165.36	300.026	-1.17898	82.99923	50
166.76	300.017	-1.18197	82.92708	50
168.16	300.01	-1.18214	82.88104	50
169.56	300.019	-1.18216	82.80445	50
170.96	300.025	-1.17992	82.72128	50
172.36	300.016	-1.18421	82.66228	50
173.76	300.033	-1.18349	82.58356	50
175.16	300.007	-1.18345	82.52437	50
176.56	300.008	-1.18214	82.43907	50
177.96	300.018	-1.18309	82.37988	50
179.36	300.014	-1.18215	82.27485	50
180.76	300.007	-1.18308	82.20928	50
182.16	300.016	-1.18271	82.12398	50
183.56	300.025	-1.18291	82.05164	50
184.96	300.015	-1.1844	81.99923	50
186.36	300.02	-1.18534	81.9205	50
187.76	300.015	-1.18234	81.84391	50
189.16	300.027	-1.18311	81.75841	50
190.56	300.029	-1.18573	81.706	50
191.96	300.034	-1.18611	81.61838	50
193.36	300.022	-1.18554	81.56596	50
194.76	300.02	-1.18478	81.48723	50
196.16	300.018	-1.18478	81.40832	50
197.56	300.011	-1.18514	81.36905	50
198.96	300.01	-1.18514	81.29014	50
200.36	300.03	-1.18667	81.18956	50
201.76	300.029	-1.18573	81.14352	50
203.16	300.013	-1.18608	81.07137	50
204.56	300.03	-1.18855	80.98607	50
205.96	300.023	-1.18554	80.92689	50
207.36	300.016	-1.18778	80.83288	50
208.76	300.026	-1.18742	80.73443	50
210.16	300.011	-1.18664	80.68182	50
211.56	300.018	-1.18422	80.60967	50
212.96	300.019	-1.18947	80.54391	50
214.36	300.015	-1.18927	80.46518	50
215.76	300.025	-1.18873	80.39304	50
217.16	300.015	-1.18871	80.30774	50
218.56	300.022	-1.18966	80.25513	50
219.96	300.018	-1.18628	80.18956	50
221.36	300.029	-1.1803	80.09749	50
222.76	300.018	-1.17991	80.03849	50
224.16	300.029	-1.17205	79.97505	50
225.56	300.017	-1.17503	79.87002	50
226.96	300.035	-1.17524	79.81083	50
228.36	300.034	-1.1743	79.74526	50
229.76	300.033	-1.17655	79.64023	50
231.16	300.025	-1.17392	79.58762	50
232.56	300.018	-1.17372	79.5352	50
233.96	300.017	-1.17784	79.45648	50
235.36	300.012	-1.17334	79.37756	50
236.76	300.012	-1.17559	79.31199	50
238.16	300.014	-1.17615	79.27253	50
239.56	300.004	-1.1752	79.19381	50
240.96	300.013	-1.17409	79.12166	50
242.36	300.011	-1.17465	79.03636	50
243.76	300.01	-1.17577	78.9706	50
245.16	300.012	-1.17446	78.9793	50
246.56	300.015	-1.17315	78.82186	50
247.96	300.027	-1.17523	78.74313	50
249.36	300.028	-1.17373	78.6795	50
250.76	300.018	-1.17784	78.60077	50
252.16	300.008	-1.17689	78.52631	50
253.56	300.022	-1.17372	78.46518	50
254.96	300.037	-1.17356	78.38627	50
256.36	300.033	-1.17636	78.33385	50
257.76	300.03	-1.1788	78.2617	50
259.16	300.027	-1.17936	78.20251	50
260.56	300.021	-1.1771	78.09091	50
261.96	300.022	-1.17504	78.03849	50
263.36	300.024	-1.1786	77.98588	50
264.76	300.024	-1.17766	77.8853	50
266.16	300.023	-1.18104	77.82611	50
267.56	300.007	-1.17989	77.74739	50
268.96	300.013	-1.17877	77.67524	50
270.36	300.011	-1.18027	77.5942	50
271.76	300.007	-1.17895	77.52205	50
273.16	300.019	-1.17897	77.44313	50
274.56	300.003	-1.17895	77.3381	50
275.96	300.011	-1.17821	77.28569	50
277.36	300.007	-1.17745	77.20039	50
278.76	300.019	-1.17784	77.12147	50
280.16	300.02	-1.17785	77.04275	50
281.56	300.027	-1.17861	76.98375	50
282.96	300.019	-1.18047	76.90484	50
284.36	300.029	-1.1773	76.84584	50
285.76	300.029	-1.18067	76.71451	50
287.16	300.024	-1.18029	76.65319	50
288.56	300.023	-1.17935	76.58762	50
289.96	300.019	-1.18159	76.51528	50
291.36	300.026	-1.1801	76.4323	50
292.76	300.019	-1.17972	76.36867	50
294.16	300.019	-1.18253	76.27679	50
295.56	300.009	-1.17914	76.18491	50
296.96	300.026	-1.1831	76.12592	50
298.36	300.02	-1.18272	76.03404	50
299.76	300.006	-1.1812	75.96828	50
301.16	300.015	-1.18328	75.88956	50
302.56	300.027	-1.18086	75.80426	50
303.96	300.02	-1.18216	75.75822	50
305.36	300.019	-1.18647	75.6795	50
306.76	300.012	-1.18177	75.58762	50
308.16	300.019	-1.18384	75.53501	50
309.56	300.018	-1.1859	75.44313	50
310.96	300.008	-1.18327	75.39052	50
312.36	300.024	-1.1816	75.28549	50
313.76	300.013	-1.18515	75.20677	50
315.16	300.011	-1.18458	75.1412	50
316.56	300.003	-1.18476	75.06886	50
317.96	300.017	-1.18103	74.99671	50
319.36	300.017	-1.1874	74.90484	50
320.76	300.02	-1.18572	74.8325	50
322.16	300.021	-1.18385	74.7735	50
323.56	300.025	-1.1861	74.65532	50
324.96	300.016	-1.18478	74.61586	50
326.36	300.012	-1.18533	74.51083	50
327.76	300.019	-1.18422	74.45841	50
329.16	300.018	-1.18759	74.37969	50
330.56	300.019	-1.18628	74.30077	50
331.96	300.01	-1.18589	74.22863	50
333.36	300.017	-1.18647	74.14333	50
334.76	300.016	-1.18478	74.09072	50
336.16	300.024	-1.18629	74.01199	50
337.56	300.022	-1.18778	73.94642	50
338.96	300.019	-1.18647	73.84139	50
340.36	300.03	-1.18498	73.76248	50
341.76	300.01	-1.18833	73.68375	50
343.16	300.021	-1.18778	73.59845	50
344.56	300.022	-1.18741	73.53269	50
345.96	300.021	-1.18928	73.45397	50
347.36	300.01	-1.19077	73.39497	50
348.76	300.017	-1.18665	73.29632	50
350.16	300.005	-1.19076	73.21103	50
351.56	300.008	-1.18683	73.16944	50
352.96	300.006	-1.18682	73.08414	50
354.36	300.008	-1.18908	73.01857	50
355.76	300.002	-1.18794	72.95938	50
357.16	300.021	-1.18628	72.84778	50
358.56	300.024	-1.18816	72.79536	50
359.96	300.018	-1.1889	72.68375	50
361.36	300.016	-1.19021	72.61799	50
362.76	300.01	-1.18927	72.53926	50
364.16	300.015	-1.18815	72.48685	50
365.56	300.013	-1.19302	72.42108	50
366.96	300.015	-1.19059	72.34236	50
368.36	300.017	-1.18928	72.25706	50
369.76	300.024	-1.19172	72.17814	50
371.16	300.021	-1.19116	72.09942	50
372.56	300.015	-1.19021	72.0207	50
373.96	300.022	-1.1921	71.94836	50
375.36	300.019	-1.18984	71.86306	50
376.76	300.019	-1.19003	71.78221	50
378.16	300.032	-1.19361	71.70986	50
379.56	300.025	-1.19248	71.62244	50
380.96	300.022	-1.19303	71.54352	50
382.36	300.017	-1.19584	71.4911	50
383.76	300.005	-1.19189	71.38607	50
385.16	300.005	-1.19395	71.32689	50
386.56	300.017	-1.19603	71.24816	50
387.96	300.005	-1.19076	71.18917	50
389.36	300.018	-1.19134	71.09072	50
390.76	300.009	-1.19377	71.0118	50
392.16	300.013	-1.19096	70.96596	50
393.56	300.017	-1.19209	70.85861	50
394.96	300.035	-1.1923	70.78646	50
396.36	300.022	-1.19416	70.72089	50
397.76	300.026	-1.19585	70.61586	50
399.16	300.007	-1.19639	70.56112	50
400.56	300.024	-1.19304	70.50193	50
401.96	300.008	-1.1947	70.38375	50
403.36	300.014	-1.1949	70.33133	50
404.76	300.02	-1.19416	70.25261	50
406.16	300.012	-1.19564	70.18685	50
407.56	300.009	-1.19733	70.13443	50
408.96	300.009	-1.19339	70.05551	50
410.36	300.011	-1.19621	69.95048	50
411.76	300.026	-1.1951	69.89807	50
413.16	300.024	-1.1966	69.79961	50
414.56	300.011	-1.19789	69.74487	50
415.96	300.01	-1.1977	69.63985	50
417.36	300.007	-1.19639	69.58066	50
418.76	300.016	-1.1934	69.53482	50
420.16	300.014	-1.19658	69.44952	50
421.56	300.013	-1.19921	69.34429	50
422.96	300.011	-1.19789	69.2853	50
424.36	300.007	-1.19414	69.20658	50
425.76	300.006	-1.1932	69.12766	50
427.16	300.005	-1.19601	69.04681	50
428.56	300.007	-1.1932	68.97021	50
429.96	300.01	-1.19564	68.90464	50
431.36	300.012	-1.19527	68.83888	50
432.76	300.012	-1.19677	68.72727	50
434.16	300.027	-1.19567	68.6617	50
435.56	300.015	-1.19565	68.58936	50
436.96	300.007	-1.19545	68.49749	50
438.36	300.022	-1.19622	68.41876	50
439.76	300.016	-1.19846	68.36615	50
441.16	300.012	-1.19414	68.30716	50
442.56	300.018	-1.19153	68.22843	50
443.96	300.013	-1.19696	68.16925	50
445.36	300.014	-1.19565	68.06422	50
446.76	300.029	-1.19717	68.0118	50
448.16	300.033	-1.19567	67.91973	50
449.56	300.02	-1.19772	67.86731	50
450.96	300.026	-1.19904	67.75571	50
452.36	300.019	-1.19809	67.70309	50
453.76	300.019	-1.1979	67.62437	50
455.16	300.015	-1.19865	67.54565	50
456.56	300.012	-1.19958	67.48646	50
457.96	300.015	-1.20015	67.44062	50
459.36	300.011	-1.1992	67.33559	50
460.76	300.009	-1.20033	67.2764	50
462.16	300.018	-1.20015	67.17137	50
463.56	300.02	-1.1994	67.1058	50
464.96	300.02	-1.20015	67.0205	50
466.36	300.014	-1.20165	66.95474	50
467.76	300.007	-1.20276	66.86944	50
469.16	300.001	-1.20238	66.79072	50
470.56	300.014	-1.20052	66.74468	50
471.96	300.004	-1.20032	66.66596	50
473.36	300.011	-1.19864	66.57408	50
474.76	300.01	-1.2007	66.49516	50
476.16	300.021	-1.20259	66.41644	50
477.56	300.018	-1.20071	66.36402	50
478.96	300.015	-1.1979	66.28511	50
480.36	300.019	-1.2024	66.21296	50
481.76	300.024	-1.20391	66.12766	50
483.16	300.019	-1.20297	66.06847	50
484.56	300.016	-1.20165	65.98762	50
485.96	300.002	-1.20482	65.9087	50
487.36	300.011	-1.20033	65.82998	50
488.76	300.015	-1.20258	65.77756	50
490.16	300.024	-1.20278	65.71838	50
491.56	300.033	-1.2028	65.61335	50
492.96	300.033	-1.20598	65.55435	50
494.36	300.024	-1.20803	65.46886	50
495.76	300.015	-1.20652	65.41644	50
497.16	300.025	-1.2026	65.33772	50
498.56	300.018	-1.20428	65.27195	50
499.96	300.018	-1.20334	65.23926	50
501.36	300.015	-1.20446	65.16035	50
502.76	300.013	-1.20633	65.07505	50
504.16	300.023	-1.20447	64.97002	50
505.56	300.024	-1.20597	64.9176	50
506.96	300.004	-1.20932	64.83868	50
508.36	300.012	-1.20333	64.78627	50
509.76	300.009	-1.20614	64.68124	50
511.16	300.01	-1.20689	64.62863	50
512.56	300.016	-1.2039	64.5236	50
513.96	300.023	-1.20916	64.44487	50
515.36	300.02	-1.20653	64.37253	50
516.76	300.015	-1.20671	64.28723	50
518.16	300.019	-1.20709	64.25455	50
519.56	300.035	-1.20974	64.18221	50
520.96	300.028	-1.20991	64.11663	50
522.36	300.019	-1.20878	64.05087	50
523.76	300.015	-1.20971	63.97215	50
525.16	300.007	-1.2112	63.89342	50
526.56	300.014	-1.20952	63.8147	50
527.96	300.01	-1.20989	63.73578	50
529.36	300	-1.21419	63.65706	50
530.76	300.01	-1.2097	63.59807	50
532.16	300.008	-1.21326	63.49284	50
533.56	300.016	-1.21346	63.43385	50
534.96	300.011	-1.21045	63.37485	50
536.36	300.004	-1.21138	63.29594	50
537.76	300.022	-1.21141	63.22379	50
539.16	300.022	-1.20747	63.15822	50
540.56	300.009	-1.2112	63.0793	50
541.96	300.035	-1.21142	63.00716	50
543.36	300.026	-1.21291	62.92843	50
544.76	300.023	-1.21347	62.88897	50
546.16	300.015	-1.2099	62.84294	50
547.56	300.03	-1.21217	62.74681	50
548.96	300.014	-1.21158	62.66132	50
550.36	300.014	-1.21271	62.60232	50
551.76	300.013	-1.21064	62.53017	50
553.16	300.01	-1.21214	62.45783	50
554.56	300.013	-1.21308	62.37911	50
555.96	300.011	-1.2112	62.30696	50
557.36	300.015	-1.21065	62.23462	50
558.76	300.011	-1.20839	62.17563	50
560.16	300.021	-1.2069	62.09691	50
561.56	300.016	-1.20952	62.05087	50
562.96	300.03	-1.2101	61.94584	50
564.36	300.026	-1.20729	61.88027	50
565.76	300.029	-1.20879	61.83424	50
567.16	300.01	-1.21364	61.75551	50
568.56	300.014	-1.21027	61.69632	50
569.96	300.02	-1.20634	61.62418	50
571.36	300.021	-1.21009	61.55203	50
572.76	300.022	-1.21309	61.47311	50
574.16	300.009	-1.2097	61.40754	50
575.56	300.019	-1.20878	61.32882	50
576.96	300.017	-1.20859	61.2499	50
578.36	300.012	-1.20895	61.1646	50
579.76	300.017	-1.21177	61.11219	50
581.16	300.012	-1.21027	61.00696	50
582.56	300.02	-1.21215	60.98085	50
583.96	300.006	-1.21176	60.87582	50
585.36	300.011	-1.21195	60.82979	50
586.76	300.015	-1.20971	60.74449	50
588.16	300.014	-1.21027	60.66576	50
589.56	300.014	-1.21177	60.61315	50
590.96	300	-1.21081	60.53443	50
592.36	300.011	-1.2127	60.44255	50
593.76	300.012	-1.20989	60.38994	50
595.16	300.022	-1.21009	60.31122	50
596.56	300.026	-1.2131	60.2325	50
597.96	300.022	-1.21253	60.16673	50
599.36	300.015	-1.21589	60.10774	50
600.76	300.017	-1.21234	60.02224	50
602.16	300.012	-1.21383	59.92379	50
603.56	299.999	-1.2125	59.85822	50
604.96	300.008	-1.21438	59.79903	50
606.36	300.008	-1.21382	59.70716	50
607.76	299.997	-1.21624	59.64816	50
609.16	300.007	-1.21401	59.55629	50
610.56	300.018	-1.21759	59.48395	50
611.96	300.012	-1.21383	59.40522	50
613.36	300.019	-1.2159	59.3265	50
614.76	300.016	-1.21815	59.26074	50
616.16	300.019	-1.21515	59.18201	50
617.56	300.027	-1.21629	59.10329	50
618.96	300.005	-1.21775	59.05068	50
620.36	300.014	-1.21683	58.9764	50
621.76	300.019	-1.21946	58.89749	50
623.16	300.014	-1.21777	58.82534	50
624.56	300.014	-1.21739	58.74662	50
625.96	300.013	-1.22039	58.68085	50
627.36	300.014	-1.21608	58.61528	50
628.76	300.017	-1.21965	58.56267	50
630.16	300.007	-1.21963	58.48395	50
631.56	300.021	-1.2174	58.39865	50
632.96	300.027	-1.22116	58.35919	50
634.36	300.028	-1.21666	58.26074	50
635.76	300.02	-1.22209	58.20832	50
637.16	300.009	-1.22095	58.13598	50
638.56	300.023	-1.22059	58.05725	50
639.96	300.019	-1.22265	57.99826	50
641.36	300.007	-1.22263	57.90619	50
642.76	300.012	-1.2217	57.84062	50
644.16	300.012	-1.22114	57.77505	50
645.56	300.001	-1.22206	57.70271	50
646.96	300.009	-1.22207	57.65029	50
648.36	300.015	-1.22152	57.57137	50
649.76	300.011	-1.22058	57.5058	50
651.16	300.016	-1.22189	57.44681	50
652.56	300.008	-1.21982	57.36789	50
653.96	300.017	-1.21946	57.34816	50
655.36	300.025	-1.2206	57.25629	50
656.76	300.018	-1.22021	57.21044	50
658.16	300.023	-1.22228	57.13153	50
659.56	300.021	-1.22228	57.0528	50
660.96	300.01	-1.22151	57.00696	50
662.36	300.016	-1.21983	56.9412	50
663.76	300.009	-1.22057	56.86248	50
665.16	300.019	-1.22002	56.79691	50
666.56	300.018	-1.21984	56.74429	50
667.96	300.027	-1.22135	56.67215	50
669.36	300.024	-1.21947	56.58665	50
670.76	300.023	-1.22041	56.51451	50
672.16	300.02	-1.21871	56.44236	50
673.56	300.014	-1.22377	56.38975	50
674.96	300.029	-1.22098	56.33733	50
676.36	300.032	-1.21948	56.26499	50
677.76	300.025	-1.2221	56.17969	50
679.16	300.023	-1.22209	56.14043	50
680.56	300.018	-1.22396	56.05493	50
681.96	300.027	-1.22172	55.97408	50
683.36	300.019	-1.22321	55.91489	50
684.76	300.033	-1.22042	55.83617	50
686.16	300.007	-1.22619	55.78356	50
687.56	300.024	-1.22209	55.73114	50
688.96	300.021	-1.22209	55.63269	50
690.36	300.025	-1.22397	55.55397	50
691.76	300.007	-1.22376	55.51451	50
693.16	300.011	-1.22357	55.43578	50
694.56	300.029	-1.22641	55.35687	50
695.96	300.007	-1.22188	55.2913	50
697.36	300.023	-1.22509	55.23868	50
698.76	300.02	-1.22584	55.17311	50
700.16	300.015	-1.22489	55.08124	50
701.56	300.019	-1.22471	55.01547	50
702.96	300.02	-1.22771	54.94333	50
704.36	300.025	-1.22716	54.89091	50
705.76	300.006	-1.22413	54.79226	50
707.16	300.013	-1.22377	54.75087	50
708.56	300.015	-1.22189	54.68511	50
709.96	300.011	-1.2262	54.62611	50
711.36	300.008	-1.22619	54.52108	50
712.76	300.01	-1.2262	54.45532	50
714.16	300.024	-1.22491	54.38975	50
715.56	300.014	-1.22902	54.35029	50
716.96	300.017	-1.22508	54.27157	50
718.36	300.009	-1.22376	54.19942	50
719.76	300.011	-1.22489	54.15996	50
721.16	300.018	-1.22621	54.07466	50
722.56	300.01	-1.2262	54.00232	50
723.96	300.01	-1.2307	53.93675	50
725.36	300.008	-1.22807	53.85803	50
726.76	300.004	-1.22694	53.80542	50
728.16	300.011	-1.22882	53.72669	50
729.56	300.018	-1.22715	53.67408	50
730.96	300.011	-1.22657	53.59536	50
732.36	300.022	-1.23015	53.51663	50
733.76	300.022	-1.22828	53.42476	50
735.16	300.022	-1.23259	53.37215	50
736.56	300.009	-1.22863	53.31315	50
737.96	300.012	-1.23201	53.20812	50
739.36	300.018	-1.23015	53.15551	50
740.76	300.023	-1.22828	53.08994	50
742.16	300.014	-1.2307	52.98491	50
743.56	300.02	-1.23071	52.9323	50
744.96	300.015	-1.23389	52.85358	50
746.36	300.028	-1.23204	52.8207	50
747.76	300.027	-1.23353	52.71567	50
749.16	300.018	-1.23408	52.66325	50
750.56	300.015	-1.23333	52.61064	50
751.96	300.026	-1.23203	52.54507	50
753.36	300.014	-1.23408	52.45957	50
754.76	300.005	-1.23538	52.40716	50
756.16	300.008	-1.23407	52.32843	50
757.56	300.021	-1.23521	52.2824	50
758.96	300.025	-1.23409	52.21683	50
760.36	300.011	-1.23745	52.14449	50
761.76	300.026	-1.23541	52.08549	50
763.16	300.016	-1.2367	52.03288	50
764.56	300.018	-1.23558	51.96074	50
765.96	300.021	-1.2354	51.88859	50
767.36	300.006	-1.23575	51.80967	50
768.76	300.016	-1.23633	51.75725	50
770.16	300.004	-1.23462	51.68491	50
771.56	300.012	-1.23351	51.6588	50
772.96	300.018	-1.23521	51.56692	50
774.36	300.021	-1.23484	51.51431	50
775.76	300.026	-1.23597	51.46828	50
777.16	300.016	-1.23446	51.38298	50
778.56	300.01	-1.23576	51.33714	50
779.96	300.025	-1.23316	51.25164	50
781.36	300.011	-1.23745	51.19923	50
782.76	300.02	-1.2324	51.15977	50
784.16	300.011	-1.23632	51.10077	50
785.56	300.019	-1.23333	51.02186	50
786.96	300.019	-1.23465	50.96944	50
788.36	300.023	-1.23128	50.91683	50
789.76	300.026	-1.23353	50.8381	50
791.16	300.016	-1.23577	50.78569	50
792.56	300.014	-1.23483	50.73308	50
793.96	300.013	-1.23464	50.62805	50
795.36	300.008	-1.23669	50.58859	50
796.76	300.019	-1.23615	50.52302	50
798.16	300.019	-1.23783	50.4706	50
799.56	300.012	-1.23651	50.39168	50
800.96	300.028	-1.2356	50.32398	50
802.36	300.015	-1.23895	50.2648	50
803.76	300.004	-1.23837	50.19923	50
805.16	300.011	-1.23632	50.15977	50
806.56	300.023	-1.23428	50.08762	50
807.96	300.019	-1.23765	50.03501	50
809.36	300.016	-1.23745	49.98259	50
810.76	300.011	-1.2382	49.87756	50
812.16	300.026	-1.23691	49.81838	50
813.56	300.018	-1.24196	49.77253	50
814.96	300.026	-1.23878	49.69362	50
816.36	300.022	-1.24046	49.61489	50
817.76	300.02	-1.24027	49.56228	50
819.16	300.008	-1.23988	49.52302	50
820.56	300.024	-1.23972	49.44429	50
821.96	300.014	-1.24008	49.33037	50
823.36	300.013	-1.23989	49.29768	50
824.76	300.008	-1.24082	49.23191	50
826.16	300.016	-1.24214	49.14662	50
827.56	300.007	-1.24157	49.10058	50
828.96	300.014	-1.24008	49.04159	50
830.36	300.015	-1.23877	48.99555	50
831.76	300.022	-1.24046	48.94313	50
833.16	300.019	-1.24065	48.88395	50
834.56	300.013	-1.24232	48.8118	50
835.96	300.019	-1.24552	48.7265	50
837.36	300.012	-1.24176	48.67389	50
838.76	300.007	-1.24419	48.61489	50
840.16	300.02	-1.23821	48.54255	50
841.56	300.018	-1.24308	48.47698	50
842.96	300.017	-1.24196	48.41141	50
844.36	300.018	-1.24139	48.33907	50
845.76	300.021	-1.24234	48.28665	50
847.16	299.994	-1.24211	48.21431	50
848.56	300.011	-1.24288	48.1619	50
849.96	300.019	-1.24065	48.13559	50
851.36	300.026	-1.24009	48.07427	50
852.76	300.011	-1.24345	47.98897	50
854.16	300.013	-1.23876	47.93656	50
855.56	300.03	-1.24347	47.85764	50
856.96	300.018	-1.24064	47.80522	50
858.36	300.011	-1.24307	47.75261	50
859.76	300.021	-1.24159	47.70232	50
861.16	300.003	-1.24362	47.63017	50
862.56	300.01	-1.24326	47.55126	50
863.96	300.012	-1.24139	47.49226	50
865.36	300.01	-1.24401	47.47253	50
866.76	300.012	-1.24326	47.39381	50
868.16	300.013	-1.24326	47.30851	50
869.56	300.031	-1.24141	47.26248	50
870.96	300.019	-1.24533	47.19033	50
872.36	300.019	-1.24365	47.13772	50
873.76	300.018	-1.24589	47.094	50
875.16	300.012	-1.2442	47.03482	50
876.56	300.006	-1.24513	46.94081	50
877.96	300.013	-1.24551	46.8882	50
879.36	300.022	-1.24346	46.83578	50
880.76	300.018	-1.24346	46.75706	50
882.16	300.018	-1.24402	46.70445	50
883.56	300.025	-1.24478	46.6323	50
884.96	300.018	-1.24683	46.56654	50
886.36	300.006	-1.24475	46.51412	50
887.76	300.013	-1.2427	46.45493	50
889.16	300.009	-1.24494	46.40251	50
890.56	300.02	-1.24477	46.33037	50
891.96	300.028	-1.2431	46.29749	50
893.36	300.011	-1.24401	46.21876	50
894.76	300.022	-1.24327	46.16615	50
896.16	300.019	-1.24346	46.094	50
897.56	300.016	-1.24645	46.03482	50
898.96	300.009	-1.24419	45.96925	50
900.36	300.022	-1.24421	45.90348	50
901.76	300.019	-1.24402	45.85764	50
903.16	300.014	-1.24439	45.77892	50
904.56	300.012	-1.2442	45.72631	50
905.96	300.013	-1.24607	45.66074	50
907.36	300.005	-1.24325	45.6147	50
908.76	300.018	-1.24233	45.55571	50
910.16	300.017	-1.24327	45.48337	50
911.56	300.016	-1.24195	45.45068	50
912.96	300.014	-1.24476	45.39807	50
914.36	300.017	-1.24739	45.31934	50
915.76	300.013	-1.24439	45.25358	50
917.16	300.011	-1.24232	45.22089	50
918.56	300.023	-1.24384	45.14197	50
919.96	300.022	-1.2429	45.09613	50
921.36	300.018	-1.24814	45.04352	50
922.76	300.017	-1.24439	44.99981	50
924.16	300.024	-1.24646	44.92108	50
925.56	300.029	-1.24628	44.83578	50
926.96	300.037	-1.24423	44.80948	50
928.36	300.037	-1.2478	44.73714	50
929.76	300.036	-1.24573	44.66499	50
931.16	300.022	-1.24927	44.61915	50
932.56	300.023	-1.24778	44.54681	50
933.96	300.029	-1.24835	44.48781	50
935.36	300.007	-1.24775	44.4089	50
936.76	300.031	-1.24835	44.38279	50
938.16	300.03	-1.24797	44.31044	50
939.56	300.024	-1.2474	44.25145	50
940.96	300.022	-1.24927	44.17273	50
942.36	300.033	-1.24873	44.10039	50
943.76	300.026	-1.2504	44.06112	50
945.16	300.001	-1.25168	43.98878	50
946.56	300.014	-1.24682	43.94294	50
947.96	300.023	-1.24909	43.89033	50
949.36	300.022	-1.24927	43.82476	50
950.76	300.012	-1.25057	43.75899	50
952.16	300.018	-1.24683	43.68472	50
953.56	300.025	-1.24834	43.63211	50
954.96	300.019	-1.25114	43.59284	50
956.36	300.011	-1.24982	43.51393	50
957.76	300.02	-1.24758	43.46151	50
959.16	300.031	-1.2491	43.36963	50
960.56	300.017	-1.2487	43.33017	50
961.96	300.032	-1.24985	43.27099	50
963.36	300.033	-1.24835	43.21199	50
964.76	300.032	-1.25135	43.14642	50
966.16	300.014	-1.25189	43.10039	50
967.56	300.03	-1.25004	43.02592	50
968.96	300.017	-1.24645	42.9735	50
970.36	300.021	-1.24646	42.92089	50
971.76	300.032	-1.2476	42.86847	50
973.16	300.016	-1.25133	42.78317	50
974.56	300.012	-1.24926	42.73056	50
975.96	300.018	-1.24646	42.67814	50
977.36	300.018	-1.25021	42.62553	50
978.76	300.011	-1.2457	42.57292	50
980.16	300.024	-1.24946	42.52708	50
981.56	300.008	-1.247	42.44836	50
982.96	300.021	-1.24609	42.39574	50
984.36	300.02	-1.24702	42.33675	50
985.76	300.007	-1.24925	42.27756	50
987.16	300.011	-1.24663	42.23172	50
988.56	300.012	-1.24645	42.15938	50
989.96	300.024	-1.24328	42.11354	50
991.36	300.014	-1.24607	42.03462	50
992.76	300.012	-1.24907	41.96905	50
994.16	300.021	-1.24534	41.89458	50
995.56	300.009	-1.24869	41.85532	50
996.96	300.009	-1.24757	41.7764	50
998.36	300.013	-1.24682	41.71741	50
999.76	300.019	-1.24702	41.67137	50
1001.16	300.012	-1.24813	41.61896	50
1002.56	300.02	-1.24702	41.57292	50
1003.96	300.016	-1.24926	41.50077	50
1005.36	300.017	-1.2487	41.44816	50
1006.76	300.006	-1.24681	41.39362	50
1008.16	300.009	-1.2485	41.34101	50
1009.56	300.016	-1.24739	41.27544	50
1010.96	300.025	-1.25115	41.20309	50
1012.36	300.016	-1.24608	41.17041	50
1013.76	300.018	-1.24814	41.08936	50
1015.16	300.01	-1.25038	41.0499	50
1016.56	300.012	-1.24851	40.99536	50
1017.96	299.999	-1.2483	40.91644	50
1019.36	300.015	-1.2472	40.8706	50
1020.76	300.019	-1.24852	40.79826	50
1022.16	300.02	-1.24983	40.74584	50
1023.56	300.003	-1.24868	40.66712	50
1024.96	300.001	-1.25074	40.61451	50
1026.36	300.008	-1.24869	40.5619	50
1027.76	300.008	-1.247	40.51605	50
1029.16	300.012	-1.2502	40.43733	50
1030.56	300.006	-1.25169	40.40445	50
1031.96	300.011	-1.25094	40.32573	50
1033.36	299.998	-1.25111	40.27311	50
1034.76	300.015	-1.2472	40.18781	50
1036.16	300.014	-1.24982	40.15493	50
1037.56	300.005	-1.24887	40.08279	50
1038.96	300.005	-1.25169	39.99749	50
1040.36	300	-1.24905	39.99516	50
1041.76	300.005	-1.24719	39.91644	50
1043.16	300.015	-1.24701	39.87041	50
1044.56	300.018	-1.25339	39.79826	50
1045.96	300.015	-1.25189	39.70638	50
1047.36	300.018	-1.25133	39.66692	50
1048.76	300.002	-1.24943	39.59265	50
1050.16	300.02	-1.25115	39.55977	50
1051.56	300.023	-1.24946	39.4853	50
1052.96	300.011	-1.25451	39.43288	50
1054.36	300.009	-1.25169	39.35184	50
1055.76	300.018	-1.25133	39.31257	50
1057.16	300.019	-1.25152	39.23366	50
1058.56	300.009	-1.25094	39.18124	50
1059.96	300.001	-1.25055	39.15493	50
1061.36	300.015	-1.24945	39.06306	50
1062.76	300.014	-1.25207	39.03017	50
1064.16	300.023	-1.25096	38.95145	50
1065.56	300.021	-1.2519	38.89226	50
1066.96	300.016	-1.25339	38.83327	50
1068.36	300.017	-1.25095	38.7675	50
1069.76	300.011	-1.25226	38.70851	50
1071.16	300.022	-1.24777	38.65377	50
1072.56	300.016	-1.24983	38.60135	50
1073.96	300.012	-1.25301	38.54874	50
1075.36	300.029	-1.24891	38.49632	50
1076.76	300.017	-1.25433	38.44371	50
1078.16	300.012	-1.25282	38.37814	50
1079.56	300.006	-1.25675	38.33868	50
1080.96	300.018	-1.25227	38.28627	50
1082.36	300.009	-1.25263	38.22708	50
1083.76	300.016	-1.24833	38.15493	50
1085.16	300.024	-1.25453	38.10232	50
1086.56	300.023	-1.25434	38.05648	50
1087.96	300.012	-1.25601	37.99729	50
1089.36	300.012	-1.25395	37.93172	50
1090.76	300.02	-1.25358	37.87698	50
1092.16	300.034	-1.25435	37.83095	50
1093.56	300.015	-1.25995	37.79826	50
1094.96	300.007	-1.25656	37.73907	50
1096.36	300.018	-1.25433	37.68433	50
1097.76	300.011	-1.25582	37.61876	50
1099.16	300.017	-1.25639	37.55977	50
1100.56	300.019	-1.25564	37.48743	50
1101.96	300.012	-1.25751	37.4087	50
1103.36	300.013	-1.2562	37.38897	50
1104.76	300.03	-1.25285	37.34526	50
1106.16	300.037	-1.25848	37.25338	50
1107.56	300.029	-1.25903	37.20735	50
1108.96	300.022	-1.25696	37.16132	50
1110.36	300.012	-1.25957	37.08046	50
1111.76	300.002	-1.25637	37.04758	50
1113.16	299.994	-1.25523	36.98859	50
1114.56	300.003	-1.25899	36.94468	50
1115.96	300	-1.2543	36.89884	50
1117.36	300.018	-1.25527	36.8528	50
1118.76	300.014	-1.25545	36.80039	50
1120.16	300.022	-1.25658	36.72805	50
1121.56	300.017	-1.25433	36.67563	50
1122.96	300.013	-1.25432	36.60348	50
1124.36	300.022	-1.25321	36.58375	50
1125.76	300.011	-1.25676	36.51373	50
1127.16	300.018	-1.25414	36.494	50
1128.56	300.022	-1.25565	36.44139	50
1129.96	300.023	-1.25546	36.36925	50
1131.36	300.017	-1.25489	36.34294	50
1132.76	300.005	-1.25337	36.26422	50
1134.16	300.019	-1.25414	36.23133	50
1135.56	300.01	-1.25394	36.17892	50
1136.96	300.011	-1.25526	36.10658	50
1138.36	300.019	-1.25246	36.1176	50
1139.76	300.023	-1.25434	36.006	50
1141.16	300.032	-1.25622	35.95338	50
1142.56	300.019	-1.25639	35.88781	50
1143.96	300.013	-1.25563	35.84178	50
1145.36	300.022	-1.25509	35.78723	50
1146.76	300.015	-1.25564	35.73462	50
1148.16	300.019	-1.25602	35.68878	50
1149.56	300.009	-1.25394	35.63617	50
1150.96	300.01	-1.25563	35.59014	50
1152.36	300.008	-1.25094	35.55745	50
1153.76	300.015	-1.25432	35.53327	50
1155.16	300.013	-1.25526	35.39555	50
1156.56	300.004	-1.2545	35.35609	50
1157.96	300.012	-1.2532	35.29691	50
1159.36	300.011	-1.25582	35.27079	50
1160.76	300.015	-1.2547	35.21161	50
1162.16	300.008	-1.25431	35.15919	50
1163.56	300.008	-1.25563	35.09342	50
1164.96	300.014	-1.25564	35.04101	50
1166.36	300.02	-1.25433	34.98839	50
1167.76	300.026	-1.25678	34.92282	50
1169.16	300.01	-1.25675	34.88337	50
1170.56	300.012	-1.25488	34.82437	50
1171.96	300.015	-1.25657	34.77176	50
1173.36	300.022	-1.25621	34.73907	50
1174.76	300.016	-1.25714	34.65803	50
1176.16	300.004	-1.25731	34.61857	50
1177.56	300.011	-1.25563	34.55513	50
1178.96	300.012	-1.25245	34.49613	50
1180.36	300.003	-1.25712	34.4501	50
1181.76	299.996	-1.2573	34.41721	50
1183.16	300	-1.25636	34.3648	50
1184.56	300.005	-1.25525	34.29033	50
1185.96	300.021	-1.25565	34.25764	50
1187.36	300.018	-1.25583	34.19845	50
1188.76	300.047	-1.26018	34.11973	50
1190.16	300.012	-1.25713	34.06712	50
1191.56	300.009	-1.26013	34.03443	50
1192.96	300.016	-1.26033	33.98839	50
1194.36	300.014	-1.25751	33.93598	50
1195.76	300.016	-1.25976	33.85706	50
1197.16	300.009	-1.25863	33.82437	50
1198.56	300.007	-1.25994	33.77834	50
1199.96	300.002	-1.25862	33.70619	50
1201.36	300.016	-1.26126	33.65358	50
1202.76	300.019	-1.25733	33.60774	50
1204.16	300.029	-1.25678	33.54197	50
1205.56	300.017	-1.25976	33.48956	50
1206.96	300.017	-1.26033	33.45455	50
1208.36	299.998	-1.26142	33.41509	50
1209.76	300.005	-1.259	33.36035	50
1211.16	300.009	-1.25713	33.2882	50
1212.56	300.019	-1.25639	33.2619	50
1213.96	300.017	-1.25958	33.20928	50
1215.36	300.021	-1.26052	33.15687	50
1216.76	300.007	-1.26125	33.07814	50
1218.16	300.014	-1.2592	33.03868	50
1219.56	300.015	-1.26032	33.01238	50
1220.96	300.001	-1.25862	32.95996	50
1222.36	300.018	-1.26014	32.90735	50
1223.76	300.022	-1.25846	32.86151	50
1225.16	300.023	-1.25884	32.8352	50
1226.56	300.017	-1.26051	32.7499	50
1227.96	300.026	-1.25959	32.71044	50
1229.36	300.013	-1.26032	32.67099	50
1230.76	300.013	-1.25788	32.59884	50
1232.16	300.027	-1.26128	32.58569	50
1233.56	300.022	-1.26165	32.53327	50
1234.96	300.017	-1.26351	32.48066	50
1236.36	300.01	-1.265	32.42166	50
1237.76	300.011	-1.26107	32.36905	50
1239.16	300.017	-1.26183	32.33617	50
1240.56	300.021	-1.25921	32.30348	50
1241.96	300.018	-1.2607	32.23114	50
1243.36	300.027	-1.25922	32.20503	50
1244.76	300.019	-1.26258	32.15899	50
1246.16	300.015	-1.26089	32.12611	50
1247.56	300.016	-1.25883	32.15242	50
1248.96	300.025	-1.26184	32.03868	50
1250.36	300.023	-1.26352	31.99497	50
1251.76	300.023	-1.26221	31.95551	50
1253.16	300.031	-1.26241	31.9029	50
1254.56	300.026	-1.26446	31.85048	50
1255.96	300.033	-1.26372	31.81103	50
1256.98	300.041	-1.26205	31.79787	50
1257.05	300.05	-1.263	31.76944	50
1257.12	300.103	-1.22915	31.71044	50
1257.19	300.238	-1.14102	31.71044	50
1257.26	300.437	-0.98843	31.71044	50
1257.33	300.75	-0.76684	31.68201	50
1257.4	301.164	-0.48413	31.65571	50
1257.47	301.694	-0.139	31.67544	50
1257.54	302.338	0.25622	31.71044	50
1257.61	303.093	0.69785	31.77176	50
1257.68	303.947	1.16434	31.87679	50
1257.75	304.903	1.65291	31.97292	50
1257.82	305.927	2.1456	32.09555	50
1257.89	307.044	2.62733	32.22031	50
1257.96	308.204	3.09424	32.31006	50
1258.03	309.416	3.53443	32.4325	50
1258.1	310.669	3.93625	32.55513	50
1258.17	311.949	4.29608	32.65145	50
1258.24	313.226	4.61378	32.71702	50
1258.31	314.518	4.88679	32.78704	50
1258.38	315.813	5.10623	32.87466	50
1258.45	317.075	5.28291	32.91838	50
1258.52	318.329	5.41467	32.93153	50
1258.59	319.589	5.5083	33.02128	50
1258.66	320.857	5.57133	33.04739	50
1258.73	322.035	5.60448	33.07369	50
1258.8	323.232	5.61627	33.1	50
1258.87	324.417	5.61006	33.1	50
1258.94	325.576	5.58992	33.12631	50
1259.01	326.751	5.56752	33.15242	50
1259.08	327.901	5.54236	33.15242	50
1259.15	329.066	5.52014	33.15242	50
1259.22	330.232	5.50546	33.15242	50
1259.29	331.415	5.49651	33.17872	50
1259.36	332.592	5.50368	33.20503	50
1259.43	333.802	5.52126	33.20503	50
1259.5	335.022	5.55639	33.25087	50
1259.57	336.262	5.6055	33.28375	50
1259.64	337.526	5.66455	33.31006	50
1259.71	338.807	5.74043	33.31006	50
1259.78	340.126	5.82649	33.33636	50
1259.85	341.467	5.92051	33.36248	50
1259.92	342.807	6.0271	33.38878	50
1259.99	344.188	6.13081	33.38878	50
1260.06	345.594	6.2462	33.41509	50
1260.13	347.018	6.35838	33.44139	50
1260.2	348.456	6.4669	33.4675	50
1260.27	349.903	6.5797	33.4675	50
1260.34	351.378	6.67797	33.49381	50
1260.41	352.846	6.77595	33.50039	50
1260.48	354.326	6.86257	33.52012	50
1260.55	355.813	6.94436	33.53985	50
1260.62	357.311	7.01931	33.52012	50
1260.69	358.807	7.0788	33.49381	50
1260.76	360.308	7.13452	33.4675	50
1260.83	361.814	7.17996	33.4675	50
1260.9	363.317	7.22027	33.4675	50
1260.97	364.817	7.25562	33.44139	50
1261.04	366.308	7.27411	33.38665	50
1261.11	367.818	7.29835	33.36035	50
1261.18	369.328	7.31245	33.33404	50
1261.25	370.826	7.32423	33.27505	50
1261.32	372.327	7.33607	33.21818	50
1261.39	373.83	7.33933	33.12398	50
1261.46	375.32	7.34823	33.07369	50
1261.53	376.829	7.35713	32.97524	50
1261.6	378.334	7.36333	32.87021	50
1261.67	379.827	7.37336	32.78259	50
1261.74	381.34	7.37654	32.67099	50
1261.81	382.847	7.3857	32.53095	50
1261.88	384.362	7.39664	32.39536	50
1261.95	385.857	7.41304	32.24004	50
1262.02	387.373	7.43096	32.07795	50
1262.09	388.896	7.44082	31.92495	50
1262.16	390.397	7.45805	31.73017	50
1262.23	391.928	7.47416	31.5265	50
1262.3	393.439	7.49391	31.30561	50
1262.37	394.97	7.51837	31.05822	50
1262.44	396.48	7.53719	30.78704	50
1262.51	398.006	7.56323	30.48279	50
1262.58	399.52	7.58476	30.17853	50
1262.65	401.052	7.61315	29.81103	50
1262.72	402.604	7.63991	29.4499	50
1262.79	404.099	7.66104	29.03191	50
1262.86	405.617	7.69705	28.57021	50
1262.93	407.127	7.71956	28.08665	50
1263	408.652	7.74465	27.61838	50
1263.07	410.168	7.7721	27.10619	50
1263.14	411.693	7.79757	26.57679	50
1263.21	413.195	7.82786	25.9619	50
1263.28	414.713	7.85862	25.30097	50
1263.35	416.224	7.88789	24.66634	50
1263.42	417.732	7.92288	23.90696	50
1263.49	419.244	7.9613	23.11044	50
1263.56	420.745	7.99119	22.34681	50
1263.63	422.253	8.02256	21.46925	50
1263.7	423.754	8.04778	20.63559	50
1263.77	425.254	8.07946	19.6793	50
1263.84	426.754	8.10151	18.76886	50
1263.91	428.253	8.12737	17.83675	50
1263.98	429.734	8.14289	16.81915	50
1264.05	431.236	8.16156	15.80155	50
1264.12	432.729	8.1706	14.80812	50
1264.19	434.214	8.1733	13.79052	50
1264.26	435.704	8.17088	12.76867	50
1264.33	437.188	8.16298	11.68104	50
1264.4	438.678	8.14093	10.74236	50
1264.47	440.152	8.11678	9.76634	50
1264.54	441.641	8.085	8.79033	50
1264.61	443.126	8.0372	7.81451	50
1264.68	444.605	7.98866	6.95667	50
1264.75	446.075	7.92686	6.08124	50
1264.82	447.555	7.85762	5.28259	50
1264.89	449.04	7.78038	4.55397	50
1264.96	450.497	7.69247	3.86905	50
1265.03	451.989	7.60225	3.21896	50
1265.1	453.443	7.50393	2.63037	50
1265.17	454.921	7.40198	2.04836	50
1265.24	456.382	7.29551	1.58221	50
1265.31	457.865	7.18811	1.15551	50
1265.38	459.34	7.0804	0.78781	50
1265.45	460.801	6.97164	0.43772	50
1265.52	462.261	6.85754	0.11393	50
1265.59	463.724	6.75529	-0.10271	50
1265.66	465.193	6.65265	-0.33694	50
1265.73	466.656	6.55535	-0.49884	50
1265.8	468.115	6.45294	-0.63675	50
1265.87	469.577	6.35058	-0.77892	50
1265.94	471.042	6.26328	-0.87311	50
1266.01	472.495	6.17692	-0.9147	50
1266.08	473.949	6.09067	-0.95609	50
1266.15	475.405	6.01656	-0.96925	50
1266.22	476.867	5.93603	-0.9824	50
1266.29	478.324	5.86814	-0.9824	50
1266.36	479.773	5.80937	-0.95609	50
1266.43	481.231	5.74138	-0.95609	50
1266.5	482.665	5.68221	-0.95609	50
1266.57	484.126	5.63108	-0.95609	50
1266.64	485.568	5.57719	-0.93656	50
1266.71	487.018	5.52958	-0.92998	50
1266.78	488.459	5.48122	-0.90368	50
1266.85	489.9	5.43576	-0.87737	50
1266.92	491.352	5.38729	-0.87737	50
1266.99	492.791	5.34816	-0.85106	50
1267.06	494.224	5.30784	-0.82495	50
1267.13	495.67	5.26549	-0.82495	50
1267.2	497.093	5.21697	-0.82495	50
1267.27	498.538	5.17446	-0.80522	50
1267.34	499.969	5.12778	-0.78549	50
1267.41	501.4	5.09137	-0.77234	50
1267.48	502.834	5.04798	-0.74603	50
1267.55	504.252	4.99965	-0.71992	50
1267.62	505.704	4.96235	-0.71992	50
1267.69	507.123	4.9151	-0.69362	50
1267.76	508.553	4.87731	-0.68046	50
1267.83	509.976	4.83783	-0.66731	50
1267.9	511.402	4.79597	-0.66074	50
1267.97	512.84	4.75326	-0.64101	50
1268.04	514.252	4.71293	-0.62785	50
1268.11	515.688	4.67903	-0.59729	50
1268.18	517.127	4.64822	-0.56441	50
1268.25	518.533	4.61358	-0.55783	50
1268.32	519.969	4.58072	-0.55783	50
1268.39	521.402	4.54144	-0.53172	50
1268.46	522.835	4.51	-0.53172	50
1268.53	524.264	4.47689	-0.50542	50
1268.6	525.691	4.43508	-0.47911	50
1268.67	527.116	4.39811	-0.47911	50
1268.74	528.53	4.35311	-0.46596	50
1268.81	529.961	4.31331	-0.44623	50
1268.88	531.387	4.27003	-0.42669	50
1268.95	532.795	4.2252	-0.42012	50
1269.02	534.217	4.17671	-0.40039	50
1269.09	535.625	4.12922	-0.37408	50
1269.16	537.043	4.08235	-0.34778	50
1269.23	538.462	4.03862	-0.34778	50
1269.3	539.871	3.99133	-0.32166	50
1269.37	541.285	3.94542	-0.32166	50
1269.44	542.692	3.90032	-0.29536	50
1269.51	544.097	3.85271	-0.27563	50
1269.58	545.5	3.81521	-0.26905	50
1269.65	546.92	3.77711	-0.2559	50
1269.72	548.322	3.7331	-0.24275	50
1269.79	549.736	3.68974	-0.21663	50
1269.86	551.14	3.65187	-0.21663	50
1269.93	552.557	3.6113	-0.21663	50
1270	553.966	3.57159	-0.19033	50
1270.07	555.378	3.53042	-0.14874	50
1270.14	556.783	3.49637	-5.90E-02	50
1270.21	558.195	3.45568	-8.53E-02	50
1270.28	559.606	3.41587	-0.10503	50
1270.35	561.013	3.37746	-0.10503	50
1270.42	562.427	3.33577	-7.87E-02	50
1270.49	563.842	3.29736	-7.87E-02	50
1270.56	565.25	3.25665	-5.24E-02	50
1270.63	566.671	3.2161	-2.40E-02	50
1270.7	568.072	3.17347	-2.40E-02	50
1270.77	569.484	3.13364	-1.74E-02	50
1270.84	570.884	3.09148	6.79E-02	50
1270.91	572.302	3.05163	4.16E-02	50
1270.98	573.709	3.01558	1.55E-02	50
1271.05	575.119	2.97647	1.55E-02	50
1271.12	576.526	2.93533	4.16E-02	50
1271.19	577.938	2.88978	6.79E-02	50
1271.26	579.338	2.84616	9.63E-02	50
1271.33	580.754	2.80378	0.12263	50
1271.4	582.157	2.75502	0.12263	50
1271.47	583.567	2.71365	0.13578	50
1271.54	584.965	2.67397	0.14894	50
1271.61	586.387	2.63504	0.14894	50
1271.68	587.785	2.5894	0.17524	50
1271.75	589.195	2.54364	0.17524	50
1271.82	590.605	2.49717	0.21451	50
1271.89	592.013	2.44646	0.22766	50
1271.96	593.428	2.40103	0.22766	50
1272.03	594.823	2.35348	0.30426	50
1272.1	596.235	2.31401	0.33056	50
1272.17	597.647	2.26319	0.30426	50
1272.24	599.061	2.22206	0.30426	50
1272.31	600.457	2.17992	0.27795	50
1272.38	601.87	2.13081	0.29768	50
1272.45	603.278	2.0873	0.31741	50
1272.52	604.679	2.04362	0.33056	50
1272.59	606.089	2.00148	0.31083	50
1272.66	607.502	1.95422	0.33714	50
1272.73	608.9	1.91398	0.36344	50
1272.8	610.307	1.8653	0.36344	50
1272.87	611.714	1.81841	0.38956	50
1272.94	613.121	1.77386	0.41586	50
1273.01	614.531	1.72584	0.41586	50
1273.08	615.928	1.67819	0.44217	50
1273.15	617.342	1.62846	0.44217	50
1273.22	618.755	1.58165	0.46847	50
1273.29	620.16	1.53692	0.46847	50
1273.36	621.564	1.48447	0.49458	50
1273.43	622.977	1.43721	0.49458	50
1273.5	624.379	1.37317	0.52089	50
1273.57	625.782	1.33431	0.52089	50
1273.64	627.188	1.2798	0.5472	50
1273.71	628.596	1.24068	0.5472	50
1273.78	630	1.18586	0.5472	50
1273.85	631.408	1.134	0.5735	50
1273.92	632.814	1.08112	0.59961	50
1273.99	634.22	1.03548	0.61277	50
1274.06	635.614	0.98456	0.62592	50
1274.13	637.025	0.9258	0.62592	50
1274.2	638.424	0.87743	0.65222	50
1274.27	639.837	0.81949	0.65222	50
1274.34	641.236	0.77511	0.65222	50
1274.41	642.647	0.72459	0.67853	50
1274.48	644.043	0.66242	0.67853	50
1274.55	645.446	0.6133	0.70464	50
1274.62	646.853	0.56001	0.70464	50
1274.69	648.26	0.50282	0.73095	50
1274.76	649.657	0.45355	0.75725	50
1274.83	651.063	0.39633	0.75725	50
1274.9	652.469	0.34213	0.78356	50
1274.97	653.876	0.29242	0.78356	50
1275.04	655.28	0.23415	0.80967	50
1275.11	656.695	0.19055	0.80967	50
1275.18	658.09	0.12585	0.80967	50
1275.25	659.499	7.29E-02	0.83598	50
1275.32	660.903	1.81E-02	0.83598	50
1275.39	662.303	-3.42E-02	0.86228	50
1275.46	663.708	-9.29E-02	0.86228	50
1275.53	665.115	-0.15224	0.89284	50
1275.6	666.529	-0.21442	1.08104	50
1275.67	667.927	-0.27178	0.99574	50
1275.74	669.325	-0.33341	0.9323	50
1275.81	670.732	-0.38606	0.9323	50
1275.88	672.137	-0.44949	0.9323	50
1275.95	673.537	-0.51102	0.9323	50
1276.02	674.955	-0.5739	0.9323	50
1276.09	676.347	-0.62834	0.9323	50
1276.16	677.759	-0.68531	0.99787	50
1276.23	679.166	-0.7558	0.99787	50
1276.3	680.564	-0.82231	0.97176	50
1276.37	681.971	-0.88214	0.97176	50
1276.44	683.382	-0.94959	0.98491	50
1276.51	684.781	-1.00525	0.99787	50
1276.58	686.186	-1.06855	1.02418	50
1276.65	687.588	-1.13559	1.02418	50
1276.72	688.987	-1.19321	1.05048	50
1276.79	690.397	-1.25549	1.05048	50
1276.86	691.802	-1.31251	1.05048	50
1276.93	693.212	-1.37299	1.07679	50
1277	694.628	-1.43636	1.08337	50
1277.07	696.023	-1.49713	1.1029	50
1277.14	697.438	-1.55385	1.12921	50
1277.21	698.857	-1.61133	1.12921	50
1277.28	700.259	-1.67408	1.15551	50
1277.35	701.669	-1.7373	1.15551	50
1277.42	703.076	-1.79369	1.15551	50
1277.49	704.48	-1.85842	1.18182	50
1277.56	705.89	-1.92029	1.20793	50
1277.63	707.293	-1.9832	1.18839	50
1277.7	708.706	-2.05455	1.18839	50
1277.77	710.125	-2.11476	1.21451	50
1277.84	711.529	-2.18121	1.21451	50
1277.91	712.945	-2.24847	1.24081	50
1277.98	714.349	-2.31034	1.26712	50
1278.05	715.761	-2.37146	1.26712	50
1278.12	717.158	-2.43392	1.26712	50
1278.19	718.562	-2.49964	1.27369	50
1278.26	719.976	-2.56492	1.31954	50
1278.33	721.379	-2.63404	1.31954	50
1278.4	722.788	-2.69808	1.31954	50
1278.47	724.191	-2.76846	1.34584	50
1278.54	725.596	-2.82971	1.34584	50
1278.61	727.008	-2.90293	1.37215	50
1278.68	728.41	-2.9679	1.39188	50
1278.75	729.816	-3.03958	1.39845	50
1278.82	731.223	-3.10426	1.39845	50
1278.89	732.632	-3.1794	1.41161	50
1278.96	734.032	-3.26378	1.42456	50
1279.03	735.437	-3.318	1.45087	50
1279.1	736.844	-3.38144	1.45087	50
1279.17	738.263	-3.43691	1.45087	50
1279.24	739.663	-3.5022	1.45087	50
1279.31	741.074	-3.57114	1.47718	50
1279.38	742.481	-3.63613	1.47718	50
1279.45	743.889	-3.70034	1.50348	50
1279.52	745.297	-3.76438	1.52979	50
1279.59	746.709	-3.8308	1.52979	50
1279.66	748.115	-3.90243	1.52979	50
1279.73	749.522	-3.96948	1.52979	50
1279.8	750.941	-4.03609	1.5559	50
1279.87	752.346	-4.10028	1.5559	50
1279.94	753.742	-4.16171	1.58221	50
1280.01	755.149	-4.22748	1.58221	50
1280.08	756.55	-4.29912	1.60851	50
1280.15	757.96	-4.35978	1.62824	50
1280.22	759.373	-4.42796	1.63482	50
1280.29	760.772	-4.49145	1.63482	50
1280.36	762.183	-4.55962	1.63482	50
1280.43	763.594	-4.62314	1.66093	50
1280.5	764.993	-4.68901	1.68723	50
1280.57	766.404	-4.75637	1.68723	50
1280.64	767.806	-4.83096	1.71354	50
1280.71	769.242	-4.89812	1.71354	50
1280.78	770.613	-4.9629	1.73985	50
1280.85	772.02	-5.03058	1.73985	50
1280.92	773.43	-5.09617	1.76596	50
1280.99	774.832	-5.16188	1.76596	50
1281.06	776.25	-5.22815	1.76596	50
1281.13	777.655	-5.30265	1.78569	50
1281.2	779.059	-5.36723	1.79226	50
1281.27	780.458	-5.4339	1.81857	50
1281.34	781.871	-5.49101	1.81857	50
1281.41	783.278	-5.5564	1.84487	50
1281.48	784.679	-5.61897	1.85145	50
1281.55	786.086	-5.67976	1.87099	50
1281.62	787.497	-5.74531	1.87099	50
1281.69	788.894	-5.81851	1.89729	50
1281.76	790.307	-5.87783	1.89729	50
1281.83	791.7	-5.95069	1.9236	50
1281.9	793.1	-6.01618	1.9236	50
1281.96	794.329	-6.05813	1.9236	50