File: data/TGA/005d-L_M/L3.txt
Filename	L3
Instrument name
Operator	Galyna
rundate	2025-02-24
Sample name	L3
[step]
Step 1
Time	Temperature	Weight	Weight	Deriv. Weight
min	°C	mg	%	% / °C
0.01	25.98	432.628	99.999	-2.13348e-5
1.04	27.31	432.625	99.998	-1.88500e-5
2.13	29.15	432.626	99.999	-2.01756e-5
3.21	32.89	432.626	99.999	-2.00241e-5
4.29	38.07	432.625	99.998	-1.84157e-5
5.38	43.75	432.624	99.998	-1.84728e-5
6.46	49.30	432.623	99.998	-1.87577e-5
7.54	54.52	432.624	99.998	-2.06004e-5
8.63	59.52	432.624	99.998	-2.04528e-5
9.71	64.49	432.624	99.998	-2.70415e-5
10.79	69.57	432.622	99.998	-3.51209e-5
11.88	74.83	432.622	99.998	-4.37011e-5
12.96	80.24	432.621	99.997	-5.27858e-5
14.04	85.75	432.622	99.998	-6.24293e-5
15.13	91.29	432.619	99.997	-7.49802e-5
16.21	96.74	432.626	99.998	-8.93226e-5
17.29	100.73	432.615	99.996	-1.05995e-4
18.38	102.62	432.613	99.996	-1.24537e-4
19.46	103.01	432.607	99.994	-1.49116e-4
20.54	102.64	432.609	99.995	-1.70505e-4
21.63	101.97	432.606	99.994	-1.72156e-4
22.71	101.25	432.605	99.994	-1.42792e-4
23.79	100.61	432.604	99.994	-1.12058e-4
24.88	100.09	432.603	99.993	-9.58476e-5
25.96	100.44	432.602	99.993	-8.81752e-5
27.04	103.24	432.605	99.994	-8.73616e-5
28.13	107.92	432.604	99.994	-8.54021e-5
29.21	113.19	432.603	99.993	-8.30790e-5
30.29	118.40	432.600	99.993	-8.11687e-5
31.38	123.50	432.598	99.992	-7.74269e-5
32.46	128.64	432.595	99.991	-7.51800e-5
33.54	133.89	432.593	99.991	-7.42338e-5
34.63	139.26	432.591	99.991	-7.31196e-5
35.71	144.71	432.588	99.990	-6.78190e-5
36.79	150.19	432.587	99.990	-6.18130e-5
37.88	155.69	432.586	99.989	-5.40844e-5
38.96	161.17	432.586	99.989	-4.79101e-5
40.04	166.64	432.583	99.989	-4.24415e-5
41.13	172.07	432.585	99.989	-3.74496e-5
42.21	177.50	432.583	99.989	-3.37653e-5
43.29	182.93	432.583	99.989	-3.10724e-5
44.38	188.35	432.586	99.989	-2.86422e-5
45.46	193.78	432.584	99.989	-2.75067e-5
46.54	199.19	432.582	99.988	-2.74123e-5
47.63	204.60	432.579	99.988	-2.58321e-5
48.71	210.01	432.581	99.988	-2.42403e-5
49.79	215.43	432.579	99.988	-2.32978e-5
50.88	220.85	432.578	99.988	-2.21862e-5
51.96	226.28	432.578	99.988	-2.03239e-5
53.04	231.70	432.576	99.987	-1.86876e-5
54.13	237.13	432.577	99.987	-1.69911e-5
55.21	242.56	432.576	99.987	-1.59123e-5
56.29	247.99	432.576	99.987	-1.50997e-5
57.38	253.42	432.576	99.987	-1.66942e-5
58.46	258.84	432.577	99.987	-1.83982e-5
59.54	264.27	432.576	99.987	-2.07937e-5
60.63	269.69	432.574	99.987	-2.26163e-5
61.71	275.12	432.575	99.987	-2.52474e-5
62.79	280.55	432.575	99.987	-2.84481e-5
63.88	285.97	432.574	99.987	-3.25820e-5
64.96	291.40	432.573	99.986	-3.78239e-5
66.04	296.63	432.575	99.987	-4.36650e-5
67.13	299.82	432.570	99.986	-5.05674e-5
68.21	301.24	432.571	99.986	-5.68991e-5
69.29	301.84	432.568	99.985	-6.75311e-5
70.38	301.81	432.568	99.985	-8.19472e-5
71.46	301.36	432.568	99.985	-1.02582e-4
72.54	300.78	432.567	99.985	-1.31600e-4
73.63	300.25	432.565	99.985	-7.93915e-5
74.71	299.88	432.570	99.986	2.15779e-4
75.79	299.69	432.568	99.985	3.69810e-4
76.88	299.66	432.566	99.985	3.26729e-4
77.96	299.73	432.566	99.985	2.76559e-4
79.04	299.85	432.566	99.985	2.20019e-4
80.13	299.95	432.565	99.985	1.23147e-4
81.21	300.03	432.566	99.985	-3.18952e-4
82.29	300.07	432.567	99.985	-9.98912e-4
83.38	300.07	432.564	99.984	-1.08141e-3
84.46	300.06	432.567	99.985	-1.04837e-3
85.54	300.04	432.565	99.985	-1.05986e-3
86.63	300.01	432.564	99.984	-5.59526e-4
87.71	300.00	432.566	99.985	1.67342e-3
88.79	299.99	432.562	99.984	5.28109e-3
89.88	299.99	432.567	99.985	5.55974e-3
90.96	299.99	432.563	99.984	5.52453e-3
92.04	299.99	432.565	99.984	5.62037e-3
93.13	300.00	432.562	99.984	6.50155e-3
94.21	300.00	432.560	99.983	2.93529e-3
95.29	300.00	432.562	99.984	-9.49091e-3
96.38	300.00	432.563	99.984	-0.0127291
97.46	300.00	432.562	99.984	-0.0117994
98.54	300.00	432.562	99.984	2.49608e-4
99.63	300.00	432.561	99.984	2.86796e-3
100.71	300.00	432.563	99.984	0.0170654
101.79	300.00	432.560	99.983	0.0162940
102.88	300.00	432.562	99.984	0.0278100
103.96	300.00	432.562	99.984	9.69533e-3
105.04	300.00	432.563	99.984	0.0184296
106.13	300.00	432.559	99.983	0.0136693
107.21	300.00	432.565	99.984	0.0160638
108.29	300.00	432.559	99.983	0.0220213
109.38	300.01	432.558	99.983	0.0383330
110.46	300.00	432.561	99.984	0.0616825
111.54	300.00	432.559	99.983	0.0770885
112.63	300.00	432.560	99.983	0.0928986
113.71	300.00	432.558	99.983	0.103624
114.79	300.00	432.559	99.983	0.0935540
115.88	300.00	432.557	99.983	0.0807017
116.96	300.00	432.561	99.983	0.0788327
118.04	300.00	432.558	99.983	0.0568139
119.13	300.00	432.559	99.983	-1.56585e-4
120.21	300.00	432.560	99.983	-0.0451840
121.29	300.00	432.558	99.983	-0.0614236
122.38	300.00	432.559	99.983	-0.0688117
123.46	300.00	432.560	99.983	-0.0767895
124.54	300.00	432.558	99.983	-0.0820914
125.63	300.00	432.557	99.983	-0.0707139
126.71	300.00	432.556	99.982	-0.0515825
127.79	300.00	432.553	99.982	-0.0431108
128.88	300.00	432.555	99.982	-0.0257727
129.96	300.00	432.556	99.982	-6.46609e-3
131.04	300.00	432.556	99.982	0.0414450
132.13	300.00	432.551	99.981	0.0627082
133.21	300.00	432.553	99.982	0.0729176
134.29	300.00	432.554	99.982	0.0936136
135.38	300.00	432.555	99.982	0.0916494
136.46	300.00	432.554	99.982	0.0775886
137.54	300.00	432.551	99.981	0.0443445
138.63	300.00	432.553	99.982	0.0385309
139.71	300.00	432.552	99.981	0.0377388
140.79	300.00	432.550	99.981	0.0370325
141.88	300.00	432.552	99.982	0.0597659
142.96	300.00	432.550	99.981	0.108181
144.04	300.00	432.547	99.980	0.149580
145.13	300.00	432.551	99.981	0.146679
146.21	300.00	432.549	99.981	0.192282
147.29	300.00	432.554	99.982	0.189991
148.38	300.00	432.551	99.981	0.161255
149.46	300.00	432.547	99.980	0.166857
150.54	300.00	432.539	99.979	0.188551
151.63	300.00	432.543	99.979	0.205640
152.71	300.00	432.540	99.979	0.214711
153.79	300.00	432.548	99.981	0.186241
154.88	300.00	432.551	99.981	0.165660
155.96	300.00	432.546	99.980	0.156702
157.04	300.00	432.547	99.980	0.158785
158.13	300.00	432.549	99.981	0.163267
159.21	300.00	432.545	99.980	0.150978
160.29	300.00	432.547	99.980	0.159540
161.38	300.00	432.546	99.980	0.155326
162.46	300.00	432.546	99.980	0.124195
163.54	300.00	432.545	99.980	0.0833199
164.63	300.00	432.545	99.980	0.0580062
165.71	300.00	432.543	99.979	0.105929
166.79	300.00	432.544	99.980	0.0652000
167.88	300.00	432.544	99.980	0.0459050
168.96	300.00	432.542	99.979	0.0317928
170.04	300.00	432.545	99.980	0.0152665
171.13	300.00	432.540	99.979	6.84226e-3
172.21	300.00	432.543	99.979	-8.26488e-4
173.29	299.99	432.540	99.979	-0.0529877
174.38	300.00	432.538	99.978	-0.0887509
175.46	300.00	432.537	99.978	-0.0636453
176.54	300.00	432.540	99.979	-8.98977e-3
177.63	300.00	432.540	99.979	-0.0263553
178.71	300.00	432.539	99.979	-0.0264246
179.79	300.00	432.537	99.978	-0.0523480
180.88	300.00	432.532	99.977	-0.0238405
181.96	300.00	432.534	99.977	-0.0346141
183.04	300.00	432.533	99.977	-0.0445078
184.13	300.00	432.532	99.977	-0.0309451
185.21	300.00	432.535	99.978	-0.0174317
186.29	300.00	432.535	99.978	-8.52807e-3
187.38	300.00	432.531	99.977	-8.09914e-3
188.46	300.00	432.533	99.977	0.0569493
189.54	300.00	432.530	99.976	0.0854922
190.63	300.00	432.526	99.975	0.122961
191.71	300.00	432.531	99.977	0.135268
192.79	300.00	432.529	99.976	0.156888
193.88	300.00	432.531	99.977	0.140279
194.96	300.00	432.529	99.976	0.126918
196.04	300.00	432.528	99.976	0.0546836
197.13	300.00	432.529	99.976	0.0927972
198.21	300.00	432.526	99.976	-1.60658e-3
199.29	300.00	432.526	99.976	-0.0290243
200.38	300.00	432.526	99.975	1.33291e-3
201.46	300.00	432.524	99.975	0.0192663
202.54	300.00	432.525	99.975	-0.0258104
203.63	300.00	432.525	99.975	-0.0199714
204.71	300.00	432.523	99.975	-0.0702417
205.79	300.00	432.526	99.976	-0.0654356
206.88	300.00	432.522	99.974	-0.0574225
207.96	300.00	432.521	99.974	-2.39081e-3
209.04	300.00	432.522	99.974	-0.0215605
210.13	300.00	432.523	99.975	-0.0728557
211.21	300.00	432.523	99.975	-0.0582348
212.29	300.00	432.522	99.975	-0.0649889
213.38	300.00	432.523	99.975	-0.0263627
214.46	300.00	432.518	99.974	-0.0415096
215.54	300.00	432.525	99.975	-0.0509595
216.63	300.00	432.518	99.974	-0.0347729
217.71	300.00	432.517	99.973	0.0263931
218.79	300.00	432.519	99.974	0.0409498
219.88	300.00	432.521	99.974	0.0494625
220.96	300.00	432.517	99.973	0.0225588
222.04	300.00	432.516	99.973	-3.14464e-3
223.13	300.00	432.515	99.973	9.75583e-3
224.21	300.00	432.515	99.973	0.0435645
225.29	300.00	432.514	99.973	0.0962612
226.38	300.00	432.513	99.973	0.0690948
227.46	300.00	432.514	99.973	0.0387397
228.54	300.00	432.513	99.972	0.0453667
229.63	300.00	432.511	99.972	0.0429664
230.71	300.00	432.513	99.973	0.0741962
231.79	300.00	432.512	99.972	0.0777865
232.88	300.00	432.514	99.973	0.0385098
233.96	300.00	432.510	99.972	0.0395788
235.04	300.00	432.512	99.972	0.0643053
236.13	300.00	432.510	99.972	0.0793488
237.21	300.00	432.507	99.971	0.0416727
238.29	300.00	432.508	99.971	0.0344785
239.38	300.00	432.511	99.972	0.0414576
240.46	300.00	432.509	99.972	0.0571067
241.54	300.01	432.510	99.972	0.0405873
242.63	300.00	432.509	99.972	0.0701791
243.71	300.00	432.508	99.971	0.0480614
244.79	300.00	432.504	99.970	0.0363396
245.88	300.00	432.507	99.971	0.0336676
246.96	300.00	432.506	99.971	0.0160742
248.04	300.00	432.505	99.971	0.0149209
249.13	300.00	432.504	99.970	0.0401887
250.21	300.00	432.506	99.971	-0.0162116
251.29	300.00	432.505	99.971	-0.0373932
252.38	300.00	432.505	99.971	-0.0266238
253.46	300.00	432.503	99.970	0.0125692
254.54	300.00	432.503	99.970	0.0255736
255.63	300.00	432.503	99.970	0.0431027
256.71	300.00	432.502	99.970	0.0512954
257.79	300.00	432.502	99.970	0.0185694
258.88	300.00	432.501	99.970	-0.0210584
259.96	300.00	432.502	99.970	-3.18871e-3
261.04	300.00	432.504	99.971	9.09689e-3
262.13	300.00	432.498	99.969	0.0111161
263.21	300.00	432.502	99.970	0.0223960
264.29	300.00	432.499	99.969	6.52749e-3
265.38	300.00	432.498	99.969	0.0341551
266.46	300.01	432.500	99.970	0.0390508
267.54	300.00	432.500	99.970	0.0479353
268.63	300.00	432.496	99.969	0.0627767
269.71	300.00	432.497	99.969	0.0702920
270.79	300.00	432.498	99.969	0.125117
271.88	300.00	432.497	99.969	0.154008
272.96	300.00	432.497	99.969	0.134889
274.04	300.00	432.497	99.969	0.142373
275.13	300.00	432.495	99.968	0.116951
276.21	300.00	432.496	99.968	0.0600758
277.29	300.00	432.491	99.967	0.0386249
278.38	300.00	432.497	99.969	0.0134165
279.46	300.00	432.494	99.968	-0.0197127
280.54	300.00	432.495	99.968	-0.0345565
281.63	300.00	432.494	99.968	-0.0291715
282.71	300.00	432.493	99.968	-0.0200078
283.79	300.00	432.492	99.968	-0.0273379
284.88	300.00	432.491	99.967	-9.28797e-3
285.96	300.00	432.491	99.968	-3.68477e-3
287.04	300.00	432.494	99.968	-0.0155579
288.13	300.00	432.493	99.968	0.0201563
289.21	300.00	432.491	99.967	0.0232905
290.29	300.00	432.492	99.968	0.0464881
291.38	300.00	432.489	99.967	0.0791737
292.46	300.00	432.487	99.966	0.0969874
293.54	300.00	432.493	99.968	0.0913937
294.63	300.00	432.490	99.967	0.118891
295.71	300.00	432.488	99.967	0.102374
296.79	300.00	432.489	99.967	0.0558119
297.88	300.00	432.488	99.967	0.0489373
298.96	300.00	432.489	99.967	7.90616e-3
300.04	300.00	432.487	99.966	-0.0239827
301.13	300.00	432.486	99.966	-0.0169695
302.21	300.00	432.486	99.966	-1.65428e-3
303.29	300.00	432.487	99.966	-0.0320042
304.38	300.00	432.485	99.966	-6.41347e-3
305.46	300.00	432.486	99.966	0.0365788
306.54	300.00	432.487	99.966	0.0664080
307.63	300.01	432.486	99.966	0.0680508
308.71	300.00	432.487	99.967	0.0867189
309.79	300.00	432.482	99.965	0.0888302
310.88	300.00	432.482	99.965	0.111720
311.96	300.00	432.484	99.966	0.113748
313.04	300.00	432.483	99.965	0.0939583
314.13	300.00	432.482	99.965	0.0745385
315.21	300.00	432.482	99.965	0.0458298
316.29	300.00	432.481	99.965	-1.85728e-3
317.38	300.00	432.477	99.964	-0.0281523
318.46	300.00	432.481	99.965	-0.0642503
319.54	300.00	432.480	99.965	-0.0963449
320.63	300.00	432.480	99.965	-0.0934494
321.71	300.00	432.480	99.965	-0.0879404
322.79	300.00	432.479	99.965	-0.0691529
323.88	300.00	432.481	99.965	-0.0683110
324.96	300.00	432.479	99.965	-0.0306556
326.04	300.00	432.483	99.966	-0.0481996
327.13	300.00	432.476	99.964	-0.0327101
328.21	300.00	432.478	99.964	0.0118254
329.29	300.00	432.478	99.964	0.0327334
330.38	300.00	432.477	99.964	0.0310135
331.46	300.00	432.477	99.964	0.0515045
332.54	300.00	432.477	99.964	0.0543090
333.63	300.00	432.476	99.964	0.101031
334.71	300.00	432.473	99.963	0.109794
335.79	300.00	432.473	99.963	0.0651407
336.88	300.00	432.477	99.964	0.0643328
337.96	300.00	432.474	99.963	0.0489812
339.04	300.00	432.474	99.964	0.0329372
340.13	300.00	432.474	99.963	0.0118117
341.21	300.00	432.475	99.964	0.0140610
342.29	300.00	432.474	99.964	7.38640e-3
343.38	300.00	432.474	99.963	-0.0209485
344.46	300.00	432.471	99.963	-0.0268238
345.54	300.00	432.473	99.963	-0.0165541
346.63	300.00	432.472	99.963	1.06515e-3
347.71	300.00	432.471	99.963	2.06870e-3
348.79	300.00	432.471	99.963	-5.58300e-3
349.88	300.00	432.470	99.963	-1.93010e-3
350.96	300.00	432.473	99.963	0.0253649
352.04	300.00	432.471	99.963	0.0225877
353.13	300.00	432.470	99.963	9.05350e-3
354.21	300.00	432.468	99.962	8.94043e-3
355.29	300.00	432.470	99.963	4.32955e-3
356.38	300.00	432.469	99.962	-0.0204634
357.46	300.00	432.469	99.962	-0.0325492
358.54	300.00	432.467	99.962	-0.0116937
359.63	300.00	432.468	99.962	-0.0129073
360.71	300.00	432.467	99.962	5.21291e-3
361.79	300.00	432.469	99.962	-3.87343e-3
362.88	300.00	432.468	99.962	0.0150136
363.96	300.00	432.468	99.962	0.0358361
365.04	300.00	432.472	99.963	0.0251529
366.13	300.00	432.465	99.961	0.0252495
367.21	300.00	432.468	99.962	0.0222584
368.29	300.00	432.469	99.962	0.0311281
369.38	300.00	432.468	99.962	0.0396895
370.46	300.00	432.468	99.962	0.0439629
371.54	300.00	432.468	99.962	0.0512560
372.63	300.00	432.467	99.962	0.0487278
373.71	300.00	432.467	99.962	0.0543466
374.79	300.00	432.471	99.963	0.0534175
375.88	300.00	432.468	99.962	0.0496216
376.96	300.00	432.467	99.962	0.0478900
378.04	300.00	432.467	99.962	0.0704542
379.13	300.00	432.465	99.961	0.0685016
380.21	300.00	432.466	99.962	0.0725341
381.29	300.00	432.468	99.962	0.0838443
382.38	300.00	432.464	99.961	0.0824645
383.46	300.00	432.467	99.962	0.0828513
384.54	300.00	432.469	99.962	0.0824916
385.63	300.00	432.461	99.961	0.0801469
386.71	300.00	432.465	99.961	0.0835010
387.79	300.00	432.465	99.961	0.0797246
388.88	300.00	432.467	99.962	0.0829792
389.96	300.00	432.464	99.961	0.0703544
391.04	300.00	432.465	99.961	0.0501445
392.13	300.00	432.465	99.961	0.0388435
393.21	300.00	432.465	99.961	0.0200797
394.29	300.00	432.464	99.961	-7.05696e-3
395.38	300.00	432.465	99.961	-0.0279170
396.46	300.00	432.465	99.961	-0.0225227
397.54	300.00	432.464	99.961	-0.0187743
398.63	300.00	432.464	99.961	-0.0427061
399.71	300.00	432.466	99.962	-0.0456686
400.79	300.00	432.459	99.960	-0.0456613
401.88	300.00	432.461	99.961	-0.0379841
402.96	300.00	432.464	99.961	-0.0324096
404.04	300.00	432.463	99.961	-0.0230177
405.13	300.00	432.463	99.961	2.74035e-5
406.21	300.00	432.464	99.961	0.0282886
407.29	300.00	432.461	99.960	0.0309178
408.38	300.00	432.460	99.960	0.0433467
409.46	300.00	432.461	99.961	0.0344039
410.54	300.00	432.461	99.961	0.0109678
411.63	300.00	432.459	99.960	3.94341e-3
412.71	300.00	432.461	99.961	0.0401644
413.79	300.00	432.460	99.960	0.0549704
414.88	300.00	432.462	99.961	0.0544639
415.96	300.00	432.460	99.960	0.0676216
417.04	300.00	432.458	99.960	0.0734295
418.13	300.00	432.458	99.960	0.0676138
419.21	300.00	432.457	99.960	0.0555580
420.29	300.00	432.458	99.960	0.0317353
421.38	300.00	432.459	99.960	0.0491978
422.46	300.00	432.456	99.959	0.0610604
423.54	300.00	432.460	99.960	0.0736768
424.63	300.00	432.458	99.960	0.0772723
425.71	300.00	432.457	99.960	0.0720701
426.79	300.00	432.457	99.960	0.0771486
427.88	300.00	432.458	99.960	0.0730393
428.96	300.00	432.458	99.960	0.0737371
430.04	300.00	432.460	99.960	0.0843402
431.13	300.00	432.457	99.960	0.0767322
432.21	300.00	432.458	99.960	0.0863943
433.29	300.00	432.457	99.959	0.0987490
434.38	300.00	432.454	99.959	0.0976831
435.46	300.00	432.456	99.959	0.0994563
436.54	300.00	432.455	99.959	0.0812899
437.63	300.00	432.453	99.959	0.0501300
438.71	300.00	432.457	99.960	1.99855e-3
439.79	300.00	432.457	99.959	-0.0106180
440.88	300.00	432.454	99.959	-0.0138484
441.96	300.00	432.453	99.959	-3.31402e-3
443.04	300.00	432.455	99.959	-0.0121932
444.13	300.00	432.454	99.959	-0.0350870
445.21	300.00	432.452	99.958	-0.0519691
446.29	300.00	432.452	99.958	-0.0699474
447.38	300.00	432.455	99.959	-0.0701612
448.46	300.00	432.449	99.958	-0.0757934
449.54	300.00	432.453	99.959	-0.0527865
450.63	300.00	432.450	99.958	-0.0400111
451.71	300.00	432.450	99.958	-0.0568918
452.79	300.00	432.449	99.958	-0.0195897
453.88	300.00	432.448	99.958	-0.0181783
454.96	300.00	432.448	99.958	-5.46804e-3
456.04	300.00	432.449	99.958	0.0224916
457.13	300.00	432.448	99.957	0.0248870
458.21	300.00	432.449	99.958	0.0567663
459.29	300.01	432.451	99.958	0.0826389
460.38	300.00	432.448	99.957	0.0765758
461.46	300.00	432.448	99.958	0.0677894
462.54	300.00	432.449	99.958	0.0676132
463.63	300.00	432.450	99.958	0.0726655
464.71	300.00	432.446	99.957	0.0684822
465.79	300.00	432.447	99.957	0.0795123
466.88	300.00	432.447	99.957	0.0828017
467.96	300.00	432.444	99.957	0.0838231
469.04	300.00	432.444	99.957	0.0864429
470.13	300.00	432.449	99.958	0.0816651
471.21	300.00	432.450	99.958	0.0807905
472.29	300.00	432.445	99.957	0.0863111
473.38	300.00	432.445	99.957	0.0929675
474.46	300.00	432.445	99.957	0.0905542
475.54	300.00	432.444	99.957	0.104845
476.63	299.99	432.443	99.956	0.102276
477.71	300.00	432.443	99.956	0.0579625
478.79	300.00	432.442	99.956	6.00268e-3
479.88	300.00	432.444	99.956	-5.25790e-3
480.96	300.00	432.443	99.956	-0.0447153
482.04	300.00	432.443	99.956	-0.0727560
483.13	300.00	432.442	99.956	-0.0945936
484.21	300.00	432.441	99.956	-0.0981162
485.29	300.00	432.443	99.956	-0.0956213
486.38	300.00	432.442	99.956	-0.0905877
487.46	300.00	432.440	99.956	-0.103961
488.54	300.00	432.442	99.956	-0.0978042
489.63	300.00	432.440	99.956	-0.0551734
490.71	300.00	432.438	99.955	0.0224660
491.79	300.00	432.440	99.956	0.0683454
492.88	300.00	432.439	99.955	0.133393
493.96	300.00	432.438	99.955	0.121998
495.04	300.00	432.437	99.955	0.0834528
496.13	300.00	432.434	99.954	0.0366891
497.21	300.00	432.434	99.954	0.0521151
498.29	300.00	432.432	99.954	0.0335750
499.38	300.00	432.436	99.955	0.0416500
500.46	300.00	432.433	99.954	0.0627823
501.54	300.00	432.436	99.955	0.0655160
502.63	300.00	432.436	99.955	0.0711990
503.71	300.00	432.435	99.954	0.0576009
504.79	300.00	432.433	99.954	0.0288937
505.88	300.00	432.432	99.954	0.0231517
506.96	300.00	432.433	99.954	0.0399888
508.04	300.00	432.433	99.954	0.0438670
509.13	300.00	432.432	99.954	0.0647454
510.21	300.00	432.435	99.954	0.0705551
511.29	300.00	432.435	99.954	0.0572569
512.38	300.00	432.436	99.955	0.0343809
513.46	300.00	432.432	99.954	0.0192132
514.54	300.00	432.432	99.954	-0.0148453
515.63	300.00	432.431	99.954	-0.0230613
516.71	300.00	432.432	99.954	-3.78206e-3
517.79	300.00	432.433	99.954	6.64716e-3
518.88	300.00	432.430	99.953	0.0455771
519.96	300.00	432.431	99.953	0.0307160
521.04	300.00	432.431	99.954	0.0448692
522.13	300.00	432.431	99.954	0.0222815
523.21	300.00	432.428	99.953	0.0304031
524.29	300.00	432.429	99.953	0.0463711
525.38	300.00	432.431	99.954	0.0542045
526.46	300.00	432.428	99.953	0.0736255
527.54	300.00	432.428	99.953	0.0714548
528.63	300.00	432.429	99.953	0.0717329
529.71	300.00	432.427	99.953	0.0510996
530.79	300.00	432.428	99.953	0.0187344
531.88	300.00	432.427	99.953	-9.33700e-3
532.96	300.00	432.425	99.952	-0.0162994
534.04	300.00	432.428	99.953	-0.0437408
535.13	300.00	432.424	99.952	-0.0421306
536.21	300.00	432.428	99.953	-0.0810016
537.29	300.00	432.426	99.952	-0.0734607
538.38	300.00	432.424	99.952	-0.0751261
539.46	300.00	432.423	99.952	-0.0546934
540.54	300.00	432.424	99.952	-0.0302300
541.63	300.00	432.422	99.951	0.0135162
542.71	300.00	432.423	99.952	0.0342155
543.79	300.00	432.422	99.951	0.0722440
544.88	300.00	432.423	99.952	0.0762750
545.96	300.00	432.419	99.951	0.106941
547.04	300.00	432.421	99.951	0.104934
548.13	300.00	432.420	99.951	0.102282
549.21	300.00	432.420	99.951	0.104065
550.29	300.00	432.418	99.951	0.111789
551.38	300.00	432.420	99.951	0.109523
552.46	300.00	432.421	99.951	0.0998940
553.54	300.00	432.417	99.950	0.0869114
554.63	300.00	432.414	99.949	0.0913538
555.71	300.00	432.418	99.950	0.0932136
556.79	300.00	432.418	99.950	0.0455042
557.88	300.00	432.415	99.950	0.0120783
558.96	300.00	432.418	99.951	-0.0201829
560.04	300.00	432.419	99.951	3.94382e-3
561.13	300.00	432.418	99.951	0.0279343
562.21	300.00	432.417	99.950	0.0492718
563.29	300.00	432.417	99.950	0.0249921
564.38	300.00	432.415	99.950	0.0613108
565.46	300.00	432.416	99.950	0.0781593
566.54	300.00	432.416	99.950	0.0942236
567.63	300.00	432.416	99.950	0.0972338
568.71	300.00	432.412	99.949	0.147532
569.79	300.00	432.415	99.950	0.137019
570.88	300.00	432.411	99.949	0.117090
571.96	300.00	432.410	99.949	0.100652
573.04	300.00	432.412	99.949	0.0815633
574.13	300.00	432.412	99.949	0.0279419
575.21	300.00	432.411	99.949	-6.28997e-3
576.29	299.99	432.413	99.949	-0.0446802
577.38	300.00	432.414	99.950	-0.0616116
578.46	300.00	432.411	99.949	-0.0691010
579.54	300.00	432.411	99.949	-0.0771869
580.63	300.00	432.411	99.949	-0.101378
581.71	300.00	432.413	99.949	-0.101750
582.79	300.00	432.409	99.948	-0.0617952
583.88	300.00	432.411	99.949	-0.0445982
584.96	300.00	432.407	99.948	-9.86605e-3
586.04	300.00	432.410	99.949	0.0668743
587.13	300.00	432.409	99.948	0.129328
588.21	300.00	432.404	99.947	0.107000
589.29	300.00	432.405	99.948	0.125975
590.38	300.00	432.405	99.947	0.0767602
591.46	300.00	432.406	99.948	0.0456965
592.54	300.00	432.405	99.947	0.0254235
593.63	300.00	432.404	99.947	0.0559159
594.71	300.00	432.404	99.947	0.0665651
595.79	300.00	432.404	99.947	0.0789992
596.88	300.00	432.403	99.947	0.0785386
597.96	300.00	432.400	99.946	0.0796428
599.04	300.00	432.405	99.947	0.0843620
600.13	300.00	432.405	99.948	0.0844533
601.21	300.00	432.403	99.947	0.0827566
602.29	300.00	432.402	99.947	0.0771611
603.38	299.99	432.400	99.946	0.0782988
604.46	299.99	432.404	99.947	0.0640795
605.54	300.00	432.400	99.946	0.0454449
606.63	300.00	432.399	99.946	0.0416320
607.71	300.00	432.401	99.947	8.75298e-3
608.79	300.00	432.402	99.947	-0.0370966
609.88	300.00	432.400	99.946	-0.110566
610.96	300.00	432.399	99.946	-0.113725
612.04	300.00	432.399	99.946	-0.134186
613.13	300.00	432.399	99.946	-0.107495
614.21	300.00	432.397	99.946	-0.100757
615.29	300.00	432.397	99.946	-0.0267140
616.38	300.00	432.397	99.946	-0.0525463
617.46	300.00	432.396	99.945	-0.0599247
618.54	300.00	432.400	99.946	-0.0167674
619.63	300.00	432.394	99.945	-0.0172946
620.71	300.00	432.398	99.946	-0.0482729
621.79	300.00	432.396	99.945	-0.0698889
622.88	300.00	432.394	99.945	-0.0850419
623.96	300.00	432.393	99.945	-0.0632066
625.04	300.00	432.396	99.945	-0.0384495
626.13	300.00	432.392	99.945	-0.0173280
627.21	300.00	432.393	99.945	-0.0348680
628.29	300.00	432.396	99.946	-0.0286251
629.38	300.00	432.392	99.945	0.0201144
630.46	300.00	432.392	99.945	0.0388125
631.54	300.00	432.391	99.944	0.116667
632.63	300.00	432.393	99.945	0.0447082
633.71	300.00	432.389	99.944	0.0647906
634.79	300.00	432.389	99.944	0.0808511
635.88	300.00	432.390	99.944	0.0777503
636.96	300.00	432.391	99.944	0.0888139
638.04	300.00	432.389	99.944	0.102023
639.13	300.00	432.389	99.944	0.0945940
640.21	300.00	432.384	99.943	0.0715227
641.29	300.00	432.389	99.944	0.0468211
642.38	300.00	432.390	99.944	0.0450056
643.46	300.00	432.389	99.944	0.0372537
644.54	300.00	432.382	99.942	0.0275762
645.63	300.00	432.384	99.943	0.0408881
646.71	300.00	432.388	99.944	0.0636082
647.79	300.00	432.387	99.943	0.0865184
648.88	300.00	432.387	99.943	0.0928078
649.96	300.00	432.386	99.943	0.109393
651.04	300.00	432.386	99.943	0.103564
652.13	300.00	432.385	99.943	0.117067
653.21	300.00	432.384	99.943	0.115329
654.29	300.00	432.386	99.943	0.113518
655.38	300.00	432.385	99.943	0.115332
656.46	300.00	432.386	99.943	0.110039
657.54	300.00	432.384	99.943	0.101392
658.63	300.00	432.380	99.942	0.0717901
659.71	300.00	432.382	99.942	0.0288454
660.79	300.00	432.383	99.942	5.80749e-3
661.88	300.00	432.381	99.942	-0.0497212
662.96	300.00	432.382	99.942	-0.0257285
664.04	300.00	432.381	99.942	6.11474e-3
665.13	300.00	432.381	99.942	0.0214646
666.21	300.00	432.383	99.942	0.0336015
667.29	300.00	432.387	99.943	0.0154263
668.38	300.00	432.379	99.942	-4.67290e-3
669.46	300.00	432.378	99.941	-0.0221318
670.54	300.00	432.376	99.941	-0.0389822
671.63	300.00	432.375	99.941	-0.0391088
672.71	300.00	432.378	99.941	-0.0579954
673.79	300.00	432.378	99.941	-0.0464355
674.88	300.00	432.376	99.941	-0.0716362
675.96	300.00	432.378	99.941	-0.115470
677.04	300.00	432.376	99.941	-0.0962264
678.13	300.00	432.377	99.941	-0.0691276
679.21	300.00	432.376	99.941	-0.0473259
680.29	300.00	432.375	99.941	-0.0833299
681.38	300.00	432.374	99.940	-0.0650017
682.46	300.00	432.371	99.940	7.57065e-3
683.54	300.00	432.373	99.940	0.0399244
684.63	300.00	432.373	99.940	0.0729737
685.71	300.00	432.374	99.940	0.0835803
686.79	300.00	432.372	99.940	0.0799122
687.88	300.00	432.372	99.940	0.0763744
688.96	300.00	432.371	99.940	0.0764202
690.04	300.00	432.372	99.940	0.0716907
691.13	300.00	432.375	99.941	0.0698537
692.21	300.00	432.369	99.939	0.0676794
693.29	300.00	432.371	99.940	0.0651231
694.38	300.00	432.370	99.939	0.0571974
695.46	300.00	432.369	99.939	0.0545881
696.54	300.00	432.371	99.940	0.0472148
697.63	300.00	432.370	99.939	0.0182866
698.71	300.00	432.371	99.940	-0.0129970
699.79	300.00	432.368	99.939	-0.0439991
700.88	300.00	432.369	99.939	-0.0539096
701.96	300.00	432.369	99.939	-0.0769909
703.04	300.00	432.366	99.939	-0.0925427
704.13	300.00	432.368	99.939	-0.0894998
705.21	300.00	432.367	99.939	-0.0812593
706.29	300.00	432.368	99.939	-0.0601328
707.38	300.00	432.366	99.939	-9.78087e-3
708.46	300.00	432.365	99.938	0.0395969
709.54	300.00	432.364	99.938	0.0755070
710.63	300.00	432.366	99.939	0.0977054
711.71	300.00	432.365	99.938	0.0413025
712.79	300.00	432.366	99.938	0.0391651
713.88	300.00	432.365	99.938	-1.53154e-3
714.96	300.00	432.361	99.937	-0.0286420
716.04	300.00	432.359	99.937	-0.0453702
717.13	300.00	432.362	99.938	-0.0712768
718.21	300.00	432.362	99.938	-0.0825132
719.29	300.00	432.361	99.937	-0.0887106
720.38	300.00	432.362	99.938	-0.0854924
721.46	300.00	432.359	99.937	-0.0753615
722.54	300.00	432.359	99.937	-0.0510886
723.63	300.00	432.360	99.937	2.11152e-3
724.71	300.00	432.359	99.937	0.0455178
725.79	300.00	432.360	99.937	0.0773279
726.88	300.00	432.359	99.937	0.112421
727.96	300.00	432.358	99.937	0.132766
729.04	300.00	432.359	99.937	0.121810
730.13	300.00	432.354	99.936	0.125815
731.21	300.00	432.358	99.937	0.118364
732.29	300.00	432.356	99.936	0.148767
733.38	300.00	432.355	99.936	0.142233
734.46	300.00	432.356	99.936	0.148094
735.54	300.00	432.356	99.936	0.151025
736.63	300.00	432.356	99.936	0.142613
737.71	300.00	432.356	99.936	0.125806
738.79	300.00	432.355	99.936	0.123071
739.88	300.00	432.354	99.936	0.114591
740.96	300.00	432.354	99.936	0.110085
742.04	300.00	432.353	99.936	0.108703
743.13	300.00	432.355	99.936	0.104289
744.21	300.00	432.354	99.936	0.105805
745.29	299.99	432.352	99.935	0.0980812
746.38	300.00	432.355	99.936	0.0911112
747.46	300.00	432.354	99.936	0.0690538
748.54	300.00	432.353	99.935	0.0183816
749.63	300.00	432.351	99.935	0.0319919
750.71	300.00	432.352	99.935	8.99881e-3
751.79	300.00	432.353	99.935	-0.0353031
752.88	300.00	432.353	99.936	-0.0477167
753.96	300.00	432.348	99.934	-0.0707055
755.04	300.00	432.352	99.935	-0.0857588
756.13	300.00	432.349	99.935	-0.0748461
757.21	300.00	432.350	99.935	-0.0693687
758.29	300.00	432.349	99.935	-0.0638821
759.38	300.00	432.348	99.934	-0.0492748
760.46	300.00	432.348	99.934	-0.0450228
761.54	300.00	432.348	99.934	-0.0575735
762.63	300.00	432.347	99.934	-0.0484643
763.71	300.00	432.348	99.934	-0.0222078
764.79	300.00	432.345	99.934	-0.0161757
765.88	300.00	432.344	99.933	0.0281864
766.96	300.00	432.344	99.933	0.0385110
768.04	300.00	432.345	99.934	0.0622725
769.13	300.00	432.342	99.933	0.0709587
770.21	300.00	432.344	99.933	0.0496509
771.29	300.00	432.345	99.934	0.0129759
772.38	300.00	432.343	99.933	-0.0212492
773.46	300.00	432.342	99.933	0.0164161
774.54	300.00	432.341	99.933	0.0502576
775.63	300.00	432.343	99.933	0.0958902
776.71	300.00	432.340	99.932	0.0969367
777.79	300.00	432.338	99.932	0.0896308
778.88	300.00	432.340	99.932	0.0777159
779.96	300.00	432.341	99.933	0.0606282
781.04	300.00	432.340	99.933	0.0591893
782.13	300.00	432.342	99.933	0.0419637
783.21	300.00	432.341	99.933	0.0504800
784.29	300.00	432.338	99.932	0.0402691
785.38	300.00	432.340	99.932	0.0532702
786.46	300.00	432.342	99.933	0.0623573
787.54	300.00	432.339	99.932	0.0531738
788.63	300.00	432.339	99.932	0.0605693
789.71	300.00	432.336	99.932	0.0484883
790.79	300.00	432.337	99.932	0.0328775
791.88	300.00	432.338	99.932	0.0199541
792.96	300.00	432.337	99.932	-9.70644e-3
794.04	300.00	432.336	99.932	-0.0337611
795.13	300.00	432.336	99.932	-2.50385e-3
796.21	300.00	432.338	99.932	-0.0599392
797.29	300.00	432.337	99.932	-0.0947601
798.38	300.00	432.337	99.932	-0.148724
799.46	300.00	432.333	99.931	-0.162121
800.54	300.00	432.335	99.931	-0.143689
801.63	300.00	432.334	99.931	-0.106935
802.71	300.00	432.330	99.930	-0.0840731
803.79	300.00	432.333	99.931	-0.0842081
804.88	300.00	432.333	99.931	-0.0627691
805.96	300.00	432.331	99.930	1.52531e-3
807.04	300.00	432.332	99.931	5.23376e-4
808.13	300.00	432.331	99.930	0.0226572
809.21	300.00	432.330	99.930	0.0482382
810.29	300.00	432.331	99.930	0.0563122
811.38	300.00	432.328	99.930	0.0314622
812.46	300.00	432.331	99.930	0.0692917
813.54	300.00	432.330	99.930	0.0881157
814.63	300.00	432.329	99.930	0.0572452
815.71	300.00	432.328	99.930	0.0406902
816.79	300.00	432.328	99.930	0.0798642
817.88	300.00	432.326	99.929	0.0956903
818.96	300.00	432.327	99.930	0.124166
820.04	300.00	432.328	99.930	0.120807
821.13	300.00	432.327	99.929	0.101151
822.21	300.00	432.330	99.930	0.0832837
823.29	300.00	432.323	99.929	0.0759155
824.38	300.00	432.327	99.929	0.0705840
825.46	300.00	432.330	99.930	0.0460555
826.54	300.00	432.324	99.929	0.0194234
827.63	300.00	432.324	99.929	-7.84753e-3
828.71	300.00	432.323	99.929	-0.0302233
829.79	300.00	432.324	99.929	-0.0493336
830.88	300.00	432.324	99.929	-0.0447148
831.96	300.00	432.325	99.929	-0.0288484
833.04	300.00	432.325	99.929	1.13587e-3
834.13	300.00	432.322	99.928	0.0548874
835.21	300.00	432.321	99.928	0.129019
836.29	300.00	432.321	99.928	0.148689
837.38	300.00	432.323	99.929	0.139875
838.46	300.00	432.320	99.928	0.0795262
839.54	300.00	432.319	99.928	0.0893215
840.63	300.00	432.319	99.928	0.108048
841.71	300.00	432.320	99.928	0.0829929
842.79	300.00	432.319	99.928	0.0213104
843.88	300.00	432.319	99.928	0.0108929
844.96	300.00	432.321	99.928	-0.0108406
846.04	300.00	432.321	99.928	-0.0682672
847.13	300.00	432.320	99.928	-0.119212
848.21	300.00	432.318	99.927	-0.129515
849.29	300.00	432.317	99.927	-0.135490
850.38	300.00	432.315	99.927	-0.115451
851.46	300.00	432.312	99.926	-0.0994845
852.54	300.00	432.320	99.928	-0.0722687
853.63	300.00	432.314	99.926	-0.0906215
854.71	300.00	432.316	99.927	-0.0802311
855.79	300.00	432.315	99.927	-0.0761296
856.88	300.00	432.314	99.927	-0.0454703
857.96	300.00	432.315	99.927	0.0258380
859.04	300.00	432.315	99.927	0.0162771
860.13	300.00	432.313	99.926	0.0431230
861.21	300.00	432.313	99.926	0.0712196
862.29	300.00	432.314	99.926	0.102937
863.38	300.00	432.312	99.926	0.0780332
864.46	300.00	432.313	99.926	0.0834931
865.54	300.00	432.312	99.926	0.0889975
866.63	300.00	432.308	99.925	0.0955667
867.71	300.00	432.309	99.925	0.100966
868.79	300.00	432.313	99.926	0.117066
869.88	300.00	432.313	99.926	0.118195
870.96	300.00	432.314	99.927	0.0873972
872.04	300.00	432.311	99.926	0.0711206
873.13	300.00	432.310	99.925	0.0745705
874.21	300.00	432.311	99.926	0.0780334
875.29	300.00	432.310	99.926	0.0898085
876.38	300.00	432.307	99.925	0.0870691
877.46	300.00	432.308	99.925	0.115633
878.54	300.00	432.309	99.925	0.100900
879.63	300.00	432.309	99.925	0.0484157
880.71	300.00	432.307	99.925	0.0523041
881.79	300.00	432.308	99.925	-7.39686e-3
882.88	300.00	432.305	99.924	-0.0610563
883.96	300.00	432.305	99.925	-0.0686850
885.04	300.00	432.307	99.925	-0.0712172
886.13	300.00	432.306	99.925	-0.0881406
887.21	300.00	432.303	99.924	-0.0793661
888.29	300.00	432.305	99.924	-0.111873
889.38	300.00	432.302	99.924	-0.118501
890.46	300.00	432.303	99.924	-0.128388
891.54	300.00	432.303	99.924	-0.114953
892.63	300.00	432.300	99.923	-0.126435
893.71	300.00	432.303	99.924	-0.0932320
894.79	300.00	432.302	99.924	-0.0883496
895.88	300.00	432.298	99.923	-0.0241796
896.96	300.00	432.302	99.924	0.0492947
898.04	300.00	432.300	99.923	0.0801647
899.13	300.00	432.300	99.923	0.0821019
900.21	300.00	432.297	99.923	0.0423843
901.29	300.00	432.302	99.924	0.0379606
902.38	300.00	432.298	99.923	0.0529737
903.46	300.00	432.299	99.923	0.0799394
904.54	300.00	432.298	99.923	0.0912542
905.63	300.00	432.298	99.923	0.0918280
906.71	300.00	432.297	99.923	0.110939
907.79	300.00	432.297	99.923	0.0946089
908.88	300.00	432.297	99.923	0.109121
909.96	300.00	432.296	99.922	0.0918236
911.04	300.00	432.298	99.923	0.0770489
912.13	300.00	432.298	99.923	0.0958855
913.21	300.00	432.296	99.922	0.123184
914.29	300.00	432.296	99.922	0.137153
915.38	300.00	432.297	99.922	0.147576
916.46	300.00	432.298	99.923	0.121542
917.54	300.00	432.296	99.922	0.0843032
918.63	300.00	432.296	99.922	0.0577607
919.71	300.00	432.293	99.922	0.0388029
920.79	300.00	432.293	99.922	-0.0223492
921.88	300.00	432.295	99.922	-0.0910909
922.96	300.00	432.293	99.922	-0.105061
924.04	300.00	432.292	99.921	-0.0899315
925.13	300.00	432.294	99.922	-0.0571500
926.21	300.00	432.293	99.922	-0.0389879
927.29	300.00	432.293	99.922	-0.0850222
928.38	300.00	432.291	99.921	-0.0964038
929.46	300.00	432.289	99.921	-0.102226
930.54	300.00	432.289	99.921	-0.0987806
931.63	300.00	432.289	99.921	-0.0830901
932.71	300.00	432.288	99.920	-0.116477
933.79	300.00	432.289	99.921	-0.100761
934.88	300.00	432.285	99.920	-0.0838877
935.96	300.00	432.286	99.920	-0.0271756
937.04	300.00	432.287	99.920	0.0227655
938.13	300.00	432.286	99.920	-0.0526514
939.21	300.00	432.285	99.920	-0.0866983
940.29	300.00	432.286	99.920	-0.0778507
941.38	300.00	432.288	99.920	-0.0309921
942.46	300.00	432.285	99.920	0.0367962
943.54	300.00	432.285	99.920	0.0162657
944.63	300.00	432.283	99.919	0.0273152
945.71	300.00	432.282	99.919	0.0448106
946.79	300.00	432.284	99.920	0.0475098
947.88	300.00	432.283	99.919	0.0324434
948.96	300.00	432.282	99.919	0.0254506
950.04	300.00	432.280	99.919	0.0167845
951.13	300.00	432.283	99.919	0.0271745
952.21	300.00	432.283	99.919	0.0833100
953.29	300.00	432.283	99.919	0.134608
954.38	300.00	432.282	99.919	0.153359
955.46	300.00	432.281	99.919	0.152018
956.54	300.00	432.280	99.919	0.147496
957.63	300.00	432.279	99.918	0.156623
958.71	300.00	432.285	99.920	0.172900
959.79	300.00	432.278	99.918	0.185143
960.88	300.00	432.281	99.919	0.140041
961.96	300.00	432.276	99.918	0.148179
963.04	300.00	432.279	99.918	0.0871728
964.13	300.00	432.280	99.919	0.0653843
965.21	300.00	432.278	99.918	2.51521e-3
966.29	300.00	432.277	99.918	-0.0342459
967.38	300.00	432.277	99.918	-0.0562010
968.46	300.00	432.278	99.918	-0.112344
969.54	300.00	432.279	99.918	-0.145094
970.63	300.00	432.274	99.917	-0.133192
971.71	300.00	432.277	99.918	-0.128729
972.79	300.00	432.276	99.918	-0.0766588
973.88	300.00	432.276	99.918	-0.0634677
974.96	300.00	432.277	99.918	-0.0728109
976.04	300.00	432.273	99.917	-0.0545261
977.13	300.00	432.274	99.917	-0.0468622
978.21	300.00	432.274	99.917	-0.0508060
979.29	300.00	432.273	99.917	-0.0515477
980.38	300.00	432.275	99.917	-0.0596552
981.46	300.00	432.272	99.917	-0.0333804
982.54	300.00	432.273	99.917	-0.0464321
983.63	300.00	432.270	99.916	-0.0674112
984.71	300.00	432.272	99.917	-0.0305548
985.79	300.00	432.270	99.916	0.0321796
986.88	300.00	432.271	99.916	6.56475e-3
987.96	300.00	432.269	99.916	0.0227641
989.04	300.00	432.268	99.916	0.0361217
990.13	300.00	432.267	99.916	0.0810146
991.21	300.00	432.267	99.916	0.0686543
992.29	300.00	432.268	99.916	0.0253915
993.38	300.00	432.265	99.915	0.0262046
994.46	300.00	432.269	99.916	0.0265264
995.54	300.00	432.267	99.916	0.0230097
996.63	300.00	432.268	99.916	0.0501043
997.71	300.00	432.264	99.915	0.0925571
998.79	300.00	432.267	99.916	0.118939
999.88	300.00	432.268	99.916	0.114487
1000.96	300.00	432.266	99.915	0.119937
1002.04	300.00	432.266	99.915	0.112726
1003.13	300.00	432.266	99.915	0.119144
1004.21	300.00	432.264	99.915	0.115077
1005.29	300.00	432.267	99.916	0.100497
1006.38	300.00	432.265	99.915	0.0752201
1007.46	300.00	432.264	99.915	0.0703533
1008.54	300.00	432.262	99.915	0.0532860
1009.63	300.00	432.264	99.915	0.0477005
1010.71	300.00	432.262	99.915	0.0526166
1011.79	300.00	432.264	99.915	0.0240650
1012.88	300.00	432.263	99.915	-0.0132958
1013.96	300.00	432.263	99.915	-0.0601749
1015.04	300.00	432.262	99.915	-0.0931666
1016.13	300.00	432.262	99.915	-0.117970
1017.21	300.00	432.261	99.914	-0.134026
1018.29	300.00	432.265	99.915	-0.158870
1019.38	300.00	432.259	99.914	-0.114904
1020.46	300.00	432.259	99.914	-0.123819
1021.54	300.00	432.257	99.913	-0.145427
1022.63	300.00	432.258	99.913	-0.193173
1023.71	300.00	432.254	99.913	-0.204648
1024.79	300.00	432.257	99.913	-0.166472
1025.88	300.00	432.257	99.913	-0.170076
1026.96	300.00	432.256	99.913	-0.134636
1028.04	300.00	432.255	99.913	-0.0642509
1029.13	300.00	432.254	99.913	0.0492997
1030.21	300.00	432.256	99.913	0.109444
1031.29	300.00	432.255	99.913	0.0892772
1032.38	300.00	432.258	99.914	0.0640229
1033.46	300.00	432.254	99.913	0.0595438
1034.54	300.00	432.253	99.912	0.0150032
1035.63	300.00	432.253	99.912	0.0289461
1036.71	300.00	432.249	99.912	0.0764851
1037.79	300.00	432.251	99.912	0.0453204
1038.88	300.00	432.253	99.912	0.0464958
1039.96	300.00	432.253	99.912	0.0505287
1041.04	300.00	432.253	99.912	0.0875919
1042.13	300.00	432.250	99.912	0.0916723
1043.21	300.00	432.247	99.911	0.0660940
1044.29	300.00	432.251	99.912	0.0771445
1045.38	300.00	432.250	99.912	0.104497
1046.46	300.00	432.249	99.911	0.143506
1047.54	300.00	432.251	99.912	0.146793
1048.63	300.00	432.250	99.912	0.144507
1049.71	300.00	432.248	99.911	0.140689
1050.79	300.00	432.249	99.911	0.148782
1051.88	300.00	432.248	99.911	0.142501
1052.96	300.00	432.249	99.911	0.143251
1054.04	300.00	432.249	99.911	0.154488
1055.13	300.00	432.247	99.911	0.130855
1056.21	300.00	432.247	99.911	0.0915052
1057.29	300.00	432.246	99.911	0.0343503
1058.38	300.00	432.247	99.911	-0.0393458
1059.46	300.00	432.246	99.911	-0.0971695
1060.54	300.00	432.246	99.911	-0.152519
1061.63	300.00	432.246	99.911	-0.165587
1062.71	300.00	432.246	99.911	-0.155167
1063.79	300.00	432.245	99.911	-0.106130
1064.88	300.00	432.245	99.911	-0.0311517
1065.96	300.00	432.244	99.910	0.0256153
1067.04	300.00	432.241	99.910	0.0710771
1068.13	300.00	432.242	99.910	0.0947715
1069.21	300.00	432.242	99.910	0.107898
1070.29	300.00	432.241	99.910	0.127048
1071.38	300.00	432.241	99.910	0.120921
1072.46	300.00	432.240	99.909	0.0817453
1073.54	300.00	432.240	99.909	0.0698847
1074.63	300.00	432.240	99.909	0.0290557
1075.71	300.00	432.239	99.909	-6.52742e-3
1076.79	300.00	432.240	99.909	-0.0453275
1077.88	300.00	432.239	99.909	-0.128986
1078.96	300.00	432.237	99.909	-0.154391
1080.04	300.00	432.238	99.909	-0.148501
1081.13	300.00	432.238	99.909	-0.148139
1082.21	300.00	432.237	99.909	-0.160867
1083.29	300.00	432.236	99.909	-0.165854
1084.38	300.00	432.236	99.909	-0.145000
1085.46	300.00	432.236	99.908	-0.134800
1086.54	300.00	432.235	99.908	-0.0739750
1087.63	300.00	432.234	99.908	-0.0160432
1088.71	300.00	432.235	99.908	0.0317972
1089.79	300.00	432.232	99.908	0.0536272
1090.88	300.00	432.230	99.907	0.0764870
1091.96	300.00	432.234	99.908	0.111644
1093.04	300.00	432.235	99.908	0.135460
1094.13	300.00	432.233	99.908	0.139860
1095.21	300.00	432.234	99.908	0.141173
1096.29	300.00	432.232	99.907	0.136619
1097.38	300.00	432.233	99.908	0.162107
1098.46	300.00	432.232	99.908	0.171618
1099.54	300.00	432.231	99.907	0.200693
1100.63	300.00	432.231	99.907	0.200100
1101.71	300.00	432.230	99.907	0.205107
1102.79	300.00	432.232	99.907	0.224456
1103.88	300.00	432.232	99.908	0.184073
1104.96	300.00	432.231	99.907	0.181804
1106.04	300.00	432.233	99.908	0.178377
1107.13	300.00	432.230	99.907	0.137148
1108.21	300.00	432.228	99.907	0.0293694
1109.29	300.00	432.229	99.907	-0.0429943
1110.38	300.00	432.227	99.906	-0.110187
1111.46	300.00	432.229	99.907	-0.153623
1112.54	300.00	432.227	99.906	-0.166452
1113.63	300.00	432.226	99.906	-0.169341
1114.71	300.00	432.226	99.906	-0.165818
1115.79	300.00	432.226	99.906	-0.172694
1116.88	300.00	432.224	99.906	-0.169869
1117.96	300.00	432.226	99.906	-0.174797
1119.04	300.00	432.226	99.906	-0.170593
1120.13	300.00	432.222	99.905	-0.147608
1121.21	300.00	432.224	99.906	-0.142507
1122.29	300.00	432.224	99.906	-0.127615
1123.38	300.00	432.223	99.906	-0.125888
1124.46	300.00	432.223	99.905	-0.0655668
1125.54	300.00	432.222	99.905	-6.90552e-3
1126.63	300.00	432.222	99.905	0.0214444
1127.71	300.00	432.222	99.905	6.99335e-3
1128.79	300.00	432.220	99.905	0.0230713
1129.88	300.00	432.220	99.905	0.0370802
1130.96	300.00	432.219	99.904	0.100162
1132.04	300.00	432.220	99.905	0.0593347
1133.13	300.00	432.218	99.904	0.0796211
1134.21	300.00	432.220	99.905	0.136511
1135.29	300.00	432.220	99.905	0.128300
1136.38	300.00	432.217	99.904	0.134012
1137.46	300.00	432.218	99.904	0.144288
1138.54	300.00	432.219	99.905	0.134316
1139.63	300.00	432.216	99.904	0.132411
1140.71	300.00	432.216	99.904	0.133866
1141.79	300.00	432.216	99.904	0.131565
1142.88	300.00	432.215	99.904	0.131865
1143.96	300.00	432.217	99.904	0.143125
1145.04	300.00	432.214	99.903	0.158573
1146.13	300.00	432.215	99.904	0.175454
1147.21	300.00	432.215	99.904	0.175670
1148.29	300.00	432.215	99.904	0.175226
1149.38	300.00	432.214	99.903	0.183935
1150.46	300.00	432.214	99.903	0.195173
1151.54	300.00	432.214	99.903	0.132613
1152.63	300.00	432.215	99.904	0.0318343
1153.71	300.00	432.208	99.902	-0.0333942
1154.79	300.00	432.215	99.904	-0.0824047
1155.88	300.00	432.212	99.903	-0.125799
1156.96	300.00	432.211	99.903	-0.132964
1158.04	300.00	432.214	99.903	-0.128136
1159.13	300.00	432.212	99.903	-0.152680
1160.21	300.00	432.211	99.903	-0.160320
1161.29	300.00	432.212	99.903	-0.161829
1162.38	300.00	432.208	99.902	-0.166429
1163.46	300.00	432.212	99.903	-0.134828
1164.54	300.00	432.206	99.902	-0.0910730
1165.63	300.00	432.209	99.902	0.0155579
1166.71	300.00	432.208	99.902	0.0812532
1167.79	300.00	432.211	99.903	0.156909
1168.88	300.00	432.206	99.902	0.0858273
1169.96	300.00	432.206	99.902	0.0485730
1171.04	300.00	432.206	99.902	8.91701e-3
1172.13	300.00	432.206	99.902	-0.0207276
1173.21	300.00	432.206	99.901	-0.114977
1174.29	300.00	432.205	99.901	-0.0838247
1175.38	300.00	432.206	99.901	-0.0592050
1176.46	300.00	432.203	99.901	-0.0647277
1177.54	300.00	432.205	99.901	-0.0522659
1178.63	300.00	432.200	99.900	-0.0565731
1179.71	300.00	432.203	99.901	5.32650e-3
1180.79	300.00	432.203	99.901	0.0198783
1181.88	300.00	432.205	99.901	0.0595533
1182.96	300.00	432.204	99.901	0.0691388
1184.04	300.00	432.204	99.901	0.0661732
1185.13	300.00	432.201	99.900	0.0695016
1186.21	300.00	432.199	99.900	0.0775712
1187.29	300.00	432.208	99.902	0.102126
1188.38	300.00	432.198	99.900	0.0963002
1189.46	300.00	432.201	99.900	0.0941393
1190.54	300.00	432.200	99.900	0.102934
1191.63	300.00	432.198	99.900	0.123264
1192.71	300.00	432.200	99.900	0.0979759
1193.79	300.00	432.201	99.900	0.101541
1194.88	300.00	432.198	99.900	0.104314
1195.96	300.00	432.200	99.900	0.125554
1197.04	300.00	432.198	99.900	0.142661
1198.13	300.00	432.197	99.900	0.115988
1199.21	300.00	432.199	99.900	0.0997726
1200.29	300.00	432.198	99.900	0.0980498
1201.38	300.00	432.195	99.899	0.0538476
1202.46	300.00	432.197	99.899	-0.0481755
1203.54	300.00	432.195	99.899	-0.0805627
1204.63	300.00	432.197	99.899	-0.0657416
1205.71	300.00	432.196	99.899	-0.0737238
1206.79	300.00	432.195	99.899	-0.116228
1207.88	300.00	432.191	99.898	-0.119866
1208.96	300.00	432.194	99.899	-0.0937283
1210.04	300.00	432.194	99.899	-0.105286
1211.13	300.00	432.193	99.899	-0.100862
1212.21	300.00	432.208	99.902	-0.101332
1213.29	300.00	432.191	99.898	-0.0707089
1214.38	300.00	432.190	99.898	-9.26087e-3
1215.46	300.00	432.190	99.898	-0.0129907
1216.54	300.00	432.190	99.898	0.0478475
1217.63	300.00	432.189	99.898	0.0431387
1218.71	300.00	432.190	99.898	-7.15697e-3
1219.79	300.00	432.189	99.898	-0.0345278
1220.88	300.00	432.188	99.897	-0.0854480
1221.96	300.00	432.188	99.897	-0.146372
1223.04	300.00	432.188	99.897	-0.134289
1224.13	300.00	432.188	99.897	-0.136111
1225.21	300.00	432.187	99.897	-0.0867539
1226.29	300.00	432.187	99.897	-0.0128082
1227.38	300.00	432.186	99.897	0.0621135
1228.46	300.00	432.186	99.897	0.0810845
1229.54	300.00	432.185	99.897	0.143561
1230.63	300.00	432.182	99.896	0.145378
1231.71	300.00	432.185	99.897	0.156486
1232.79	300.00	432.185	99.897	0.175562
1233.88	300.00	432.182	99.896	0.166937
1234.96	300.00	432.184	99.896	0.160090
1236.04	300.00	432.183	99.896	0.117929
1237.13	300.00	432.185	99.897	0.107125
1238.21	300.00	432.183	99.896	0.101715
1239.29	300.00	432.182	99.896	0.100210
1240.38	300.00	432.183	99.896	0.0837980
1241.46	300.00	432.185	99.897	0.103389
1242.54	300.00	432.185	99.897	0.165438
1243.63	300.00	432.181	99.896	0.221562
1244.71	300.00	432.181	99.896	0.289833
1245.79	300.00	432.181	99.896	0.281388
1246.88	300.00	432.181	99.896	0.260805
1247.96	300.00	432.181	99.896	0.200978
1249.04	300.00	432.180	99.896	0.167076
1250.13	300.00	432.182	99.896	0.0868965
1251.21	300.00	432.174	99.894	0.0852602
1252.29	300.00	432.168	99.893	0.0910219
1253.38	300.00	432.182	99.896	0.0738837
1254.46	300.00	432.177	99.895	0.0842953
1255.54	300.00	432.180	99.895	0.0874315
1256.63	300.00	432.180	99.896	3.65784e-3
1257.71	300.00	432.177	99.895	-4.76339e-5
1258.79	300.00	432.176	99.895	-2.54426e-5
1259.88	300.00	432.176	99.895	-3.41030e-5
1260.96	300.00	432.174	99.894	-3.55796e-5
1262.04	300.00	432.174	99.894	-3.83379e-5
1263.13	300.00	432.174	99.894	-4.97437e-5
1264.21	300.00	432.175	99.894	-6.94623e-5
1265.29	300.39	432.173	99.894	-1.02864e-4
1266.38	305.65	432.175	99.894	-1.58101e-4
1267.46	314.88	432.173	99.894	-2.48470e-4
1268.54	324.82	432.172	99.894	-3.94335e-4
1269.63	334.96	432.170	99.893	-6.19106e-4
1270.71	345.43	432.165	99.892	-9.37544e-4
1271.79	356.24	432.156	99.890	-1.31701e-3
1272.88	367.24	432.138	99.886	-1.68758e-3
1273.96	378.30	432.106	99.878	-2.01230e-3
1275.04	389.33	432.044	99.864	-2.27684e-3
1276.13	400.31	431.936	99.839	-2.46058e-3
1277.21	411.24	431.752	99.797	-2.55848e-3
1278.29	422.13	431.477	99.733	-2.57138e-3
1279.38	432.98	431.164	99.661	-2.49808e-3
1280.46	443.84	430.945	99.610	-2.33886e-3
1281.54	454.69	430.857	99.590	-2.09636e-3
1282.63	465.54	430.837	99.585	-1.77799e-3
1283.71	476.40	430.833	99.584	-1.40063e-3
1284.79	487.28	430.836	99.585	-9.92012e-4
1285.88	498.15	430.835	99.585	-5.98951e-4
1286.96	509.03	430.835	99.585	-2.83390e-4
1288.04	519.89	430.835	99.585	-9.50976e-5
1289.13	530.75	430.835	99.585	-1.96743e-5
1290.21	541.61	430.834	99.584	4.13882e-7
1291.29	552.47	430.836	99.585	4.74562e-6
1292.38	563.33	430.835	99.585	5.86756e-6
1293.46	574.19	430.836	99.585	8.32213e-6
1294.54	585.04	430.836	99.585	1.09209e-5
1295.63	595.91	430.835	99.585	1.34268e-5
1296.71	606.76	430.836	99.585	1.51431e-5
1297.79	617.61	430.836	99.585	1.69561e-5
1298.88	628.47	430.836	99.585	1.83355e-5
1299.96	639.32	430.837	99.585	1.94138e-5
1301.04	650.17	430.840	99.586	2.03526e-5
1302.13	661.02	430.842	99.586	2.12015e-5
1303.21	671.88	430.845	99.587	2.10705e-5
1304.29	682.74	430.843	99.587	2.06181e-5
1305.38	693.58	430.845	99.587	1.94503e-5
1306.46	704.43	430.845	99.587	1.88719e-5
1307.54	715.28	430.845	99.587	1.76955e-5
1308.63	726.13	430.845	99.587	1.56987e-5
1309.71	736.98	430.848	99.588	1.36866e-5
1310.79	747.82	430.852	99.589	1.34661e-5
1311.88	758.67	430.844	99.587	1.36925e-5
1312.96	769.52	430.843	99.587	1.33955e-5
1314.04	780.36	430.853	99.589	1.26287e-5
1314.71	787.04	430.852	99.588	1.31465e-5