File: data/TGA/005d-L_M/L3_000001 -temp_104 AMU_XIC
Time	Ion Current
min	mA
0.00	1.00000e-13
0.97	1.00000e-13
1.94	1.00000e-13
2.91	1.00000e-13
3.88	1.00000e-13
4.85	1.00000e-13
5.82	1.00000e-13
6.79	1.00000e-13
7.76	1.00000e-13
8.73	1.00000e-13
9.70	1.00000e-13
10.67	1.00000e-13
11.64	1.00000e-13
12.61	1.00000e-13
13.58	1.00000e-13
14.55	1.00000e-13
15.52	1.00000e-13
16.49	1.00000e-13
17.46	1.00000e-13
18.43	1.00000e-13
19.40	1.00000e-13
20.37	1.00000e-13
21.34	1.00000e-13
22.31	1.00000e-13
23.28	1.00000e-13
24.25	1.00000e-13
25.22	1.00000e-13
26.19	1.00000e-13
27.16	1.00000e-13
28.13	1.00000e-13
29.10	1.00000e-13
30.07	1.00000e-13
31.04	1.00000e-13
32.01	1.00000e-13
32.98	1.00000e-13
33.95	1.00000e-13
34.92	1.00000e-13
35.89	1.00000e-13
36.86	1.00000e-13
37.83	1.00000e-13
38.80	1.00000e-13
39.77	1.00000e-13
40.74	1.00000e-13
41.71	1.00000e-13
42.68	1.00000e-13
43.65	1.00000e-13
44.62	1.00000e-13
45.59	1.00000e-13
46.56	1.00000e-13
47.53	1.00000e-13
48.50	1.00000e-13
49.47	1.00000e-13
50.44	1.00000e-13
51.41	1.00000e-13
52.38	1.00000e-13
53.35	1.00000e-13
54.32	1.00000e-13
55.29	1.00000e-13
56.26	1.00000e-13
57.23	1.00000e-13
58.20	1.73780e-6
59.17	1.00000e-13
60.14	1.00000e-13
61.11	1.00000e-13
62.08	1.00000e-13
63.05	1.00000e-13
64.02	1.00000e-13
64.99	1.00000e-13
65.96	1.00000e-13
66.93	1.00000e-13
67.90	1.00000e-13
68.87	1.00000e-13
69.84	1.39024e-6
70.81	1.00000e-13
71.78	1.00000e-13
72.75	1.00000e-13
73.72	1.00000e-13
74.69	1.00000e-13
75.66	1.00000e-13
76.63	1.00000e-13
77.60	1.00000e-13
78.57	1.96951e-6
79.54	2.09695e-5
80.51	1.73780e-6
81.48	1.00000e-13
82.45	1.00000e-13
83.42	1.00000e-13
84.39	1.00000e-13
85.36	1.00000e-13
86.33	1.00000e-13
87.30	1.00000e-13
88.27	6.37194e-6
89.24	1.00000e-13
90.21	1.00000e-13
91.18	1.00000e-13
92.15	2.31707e-6
93.12	1.00000e-13
94.09	1.50610e-6
95.06	9.03657e-6
96.03	1.00000e-13
97.00	1.00000e-13
97.97	1.00000e-13
98.94	9.26828e-7
99.91	2.12012e-5
100.88	1.00000e-13
101.85	1.00000e-13
102.82	1.00000e-13
103.79	1.00000e-13
104.76	1.00000e-13
105.73	1.00000e-13
106.70	1.39024e-6
107.67	1.00000e-13
108.64	1.00000e-13
109.61	1.00000e-13
110.58	1.00000e-13
111.55	1.00000e-13
112.52	1.00000e-13
113.49	1.00000e-13
114.46	1.00000e-13
115.43	1.00000e-13
116.40	1.00000e-13
117.37	1.00000e-13
118.34	1.00000e-13
119.31	1.00000e-13
120.28	1.00000e-13
121.25	1.00000e-13
122.22	1.00000e-13
123.19	1.00000e-13
124.16	6.02438e-6
125.13	1.00000e-13
126.10	1.00000e-13
127.07	1.00000e-13
128.04	1.00000e-13
129.01	1.00000e-13
129.98	1.00000e-13
130.95	1.00000e-13
131.92	7.87804e-6
132.89	1.00000e-13
133.86	1.66829e-5
134.83	1.00000e-13
135.80	1.00000e-13
136.77	1.00000e-13
137.74	1.00000e-13
138.70	1.00000e-13
139.68	4.74999e-6
140.64	1.00000e-13
141.62	1.00000e-13
142.58	1.00000e-13
143.56	1.00000e-13
144.52	1.00000e-13
145.50	4.05487e-6
146.46	1.00000e-13
147.44	1.00000e-13
148.41	1.00000e-13
149.38	1.00000e-13
150.34	1.00000e-13
151.32	1.00000e-13
152.29	1.00000e-13
153.25	1.00000e-13
154.23	1.00000e-13
155.20	1.00000e-13
156.17	1.00000e-13
157.14	1.00000e-13
158.10	1.00000e-13
159.08	1.00000e-13
160.05	1.00000e-13
161.01	1.00000e-13
161.99	1.00000e-13
162.96	1.51768e-5
163.92	1.00000e-13
164.90	1.00000e-13
165.87	1.00000e-13
166.84	1.00000e-13
167.80	1.00000e-13
168.78	1.00000e-13
169.75	1.00000e-13
170.71	1.00000e-13
171.68	1.00000e-13
172.65	1.12378e-5
173.63	1.00000e-13
174.59	1.00000e-13
175.56	9.03657e-6
176.54	1.00000e-13
177.50	1.00000e-13
178.47	1.00000e-13
179.44	1.00000e-13
180.41	1.00000e-13
181.38	1.00000e-13
182.36	1.00000e-13
183.32	1.00000e-13
184.29	9.61584e-6
185.26	1.00000e-13
186.23	1.00000e-13
187.20	1.00000e-13
188.17	1.00000e-13
189.14	1.00000e-13
190.11	1.00000e-13
191.08	1.00000e-13
192.05	1.00000e-13
193.02	1.00000e-13
193.99	1.00000e-13
194.96	1.00000e-13
195.93	1.00000e-13
196.90	6.83536e-6
197.87	1.00000e-13
198.84	1.00000e-13
199.81	1.00000e-13
200.78	1.00000e-13
201.76	1.00000e-13
202.72	1.00000e-13
203.69	1.00000e-13
204.66	1.00000e-13
205.63	1.00000e-13
206.60	1.00000e-13
207.57	1.00000e-13
208.54	1.00000e-13
209.51	1.00000e-13
210.49	1.00000e-13
211.45	1.00000e-13
212.42	1.00000e-13
213.39	1.00000e-13
214.36	1.00000e-13
215.33	1.00000e-13
216.31	1.00000e-13
217.27	1.00000e-13
218.25	1.00000e-13
219.22	1.00000e-13
220.19	1.00000e-13
221.15	1.00000e-13
222.13	1.00000e-13
223.09	1.00000e-13
224.06	1.00000e-13
225.03	1.00000e-13
226.00	1.00000e-13
226.97	1.00000e-13
227.94	1.00000e-13
228.91	1.00000e-13
229.88	1.00000e-13
230.85	1.00000e-13
231.82	1.00000e-13
232.79	1.00000e-13
233.76	1.00000e-13
234.73	1.00000e-13
235.70	3.82316e-6
236.67	1.00000e-13
237.64	1.00000e-13
238.61	1.00000e-13
239.58	1.00000e-13
240.55	1.00000e-13
241.52	8.22560e-6
242.49	6.60365e-6
243.46	1.00000e-13
244.43	1.00000e-13
245.40	1.00000e-13
246.37	1.00000e-13
247.34	1.00000e-13
248.31	1.00000e-13
249.28	1.00000e-13
250.25	1.00000e-13
251.22	1.00000e-13
252.19	1.00000e-13
253.16	1.00000e-13
254.13	1.00000e-13
255.10	1.00793e-5
256.07	1.00000e-13
257.04	1.00000e-13
258.01	2.43292e-6
258.98	1.00000e-13
259.95	1.00000e-13
260.92	1.00000e-13
261.89	1.00000e-13
262.86	1.00000e-13
263.83	1.00000e-13
264.80	3.35975e-6
265.77	1.00000e-13
266.74	1.00000e-13
267.71	1.00000e-13
268.68	1.00000e-13
269.65	1.00000e-13
270.62	1.00000e-13
271.59	1.00000e-13
272.56	1.00000e-13
273.53	1.00000e-13
274.50	1.00000e-13
275.47	1.00000e-13
276.44	1.00000e-13
277.41	1.00000e-13
278.38	1.00000e-13
279.35	1.00000e-13
280.32	1.00000e-13
281.29	2.66463e-6
282.26	1.00000e-13
283.23	1.00000e-13
284.20	1.00000e-13
285.17	1.00000e-13
286.14	1.00000e-13
287.11	2.31707e-7
288.08	1.00000e-13
289.05	1.00000e-13
290.02	1.78414e-5
290.99	5.79267e-7
291.96	1.00000e-13
292.93	1.00000e-13
293.90	1.00000e-13
294.87	1.00000e-13
295.84	1.00000e-13
296.81	1.00000e-13
297.78	1.00000e-13
298.75	2.43292e-6
299.72	1.00000e-13
300.69	1.00000e-13
301.66	2.73414e-5
302.63	1.00000e-13
303.60	1.00000e-13
304.57	1.00000e-13
305.54	1.00000e-13
306.51	2.69939e-5
307.48	1.00000e-13
308.45	1.00000e-13
309.42	1.00000e-13
310.39	1.00000e-13
311.36	1.00000e-13
312.33	1.00000e-13
313.30	1.00000e-13
314.27	1.00000e-13
315.24	1.00000e-13
316.21	3.24390e-6
317.18	1.00000e-13
318.15	1.00000e-13
319.12	1.00000e-13
320.09	1.00000e-13
321.06	1.00000e-13
322.03	1.00000e-13
323.00	1.00000e-13
323.97	1.19329e-5
324.94	1.00000e-13
325.91	1.00000e-13
326.88	1.00000e-13
327.85	1.00000e-13
328.82	4.98170e-6
329.79	1.00000e-13
330.76	1.00000e-13
331.73	1.00000e-13
332.70	1.00000e-13
333.67	1.00000e-13
334.64	1.00000e-13
335.61	8.68901e-6
336.58	1.00000e-13
337.55	1.00000e-13
338.52	1.00000e-13
339.49	1.85366e-5
340.46	1.00000e-13
341.43	1.00000e-13
342.40	1.00000e-13
343.37	1.00000e-13
344.34	1.00000e-13
345.31	1.00000e-13
346.28	1.00000e-13
347.25	1.00000e-13
348.22	7.64633e-6
349.19	4.40243e-6
350.16	1.00000e-13
351.13	3.01219e-6
352.10	1.00000e-13
353.07	1.00000e-13
354.04	1.00000e-13
355.01	1.00000e-13
355.98	1.00000e-13
356.95	1.00000e-13
357.92	1.00000e-13
358.89	1.00000e-13
359.86	1.00000e-13
360.83	1.00000e-13
361.80	1.00000e-13
362.77	1.00000e-13
363.74	1.00000e-13
364.71	1.00000e-13
365.68	1.00000e-13
366.65	1.00000e-13
367.62	2.03902e-5
368.59	1.00000e-13
369.56	1.23963e-5
370.53	1.00000e-13
371.50	1.00000e-13
372.47	1.00000e-13
373.44	1.00000e-13
374.41	1.00000e-13
375.38	1.00000e-13
376.35	1.00000e-13
377.32	1.00000e-13
378.29	1.00000e-13
379.26	1.00000e-13
380.23	1.00000e-13
381.20	1.00000e-13
382.17	1.00000e-13
383.14	1.00000e-13
384.11	1.00000e-13
385.08	1.00000e-13
386.05	1.00000e-13
387.02	1.00000e-13
387.99	1.00000e-13
388.96	1.00000e-13
389.93	1.00000e-13
390.90	1.00000e-13
391.87	1.00000e-13
392.84	1.00000e-13
393.81	2.78048e-6
394.78	1.00000e-13
395.75	1.00000e-13
396.72	1.00000e-13
397.69	1.00000e-13
398.66	1.00000e-13
399.63	1.00000e-13
400.60	1.00000e-13
401.57	1.00000e-13
402.54	1.00000e-13
403.51	1.00000e-13
404.48	1.00000e-13
405.45	1.00000e-13
406.42	2.66463e-6
407.39	1.00000e-13
408.35	1.00000e-13
409.33	1.00000e-13
410.30	1.00000e-13
411.27	1.00000e-13
412.24	1.00000e-13
413.21	4.63414e-7
414.18	1.00000e-13
415.15	1.00000e-13
416.12	4.05487e-6
417.09	1.00000e-13
418.06	1.00000e-13
419.03	1.00000e-13
420.00	1.00000e-13
420.96	1.00000e-13
421.94	1.00000e-13
422.91	1.00000e-13
423.87	1.00000e-13
424.85	1.00000e-13
425.81	1.00000e-13
426.79	1.00000e-13
427.75	1.00000e-13
428.73	1.00000e-13
429.69	1.00000e-13
430.66	1.00000e-13
431.63	1.00000e-13
432.61	1.00000e-13
433.58	1.00000e-13
434.55	1.00000e-13
435.51	1.00000e-13
436.49	1.00000e-13
437.45	1.00000e-13
438.42	1.00000e-13
439.39	1.00000e-13
440.37	1.00000e-13
441.33	1.00000e-13
442.31	1.00000e-13
443.27	1.00000e-13
444.24	1.00000e-13
445.21	1.00000e-13
446.19	1.00000e-13
447.15	1.00000e-13
448.12	1.00000e-13
449.09	1.00000e-13
450.07	1.00000e-13
451.04	1.00000e-13
452.01	1.00000e-13
452.97	1.00000e-13
453.94	1.00000e-13
454.91	1.00000e-13
455.89	1.00000e-13
456.85	1.00000e-13
457.82	1.00000e-13
458.79	1.00000e-13
459.76	1.00000e-13
460.73	1.00000e-13
461.70	1.00000e-13
462.67	1.00000e-13
463.64	1.00000e-13
464.61	1.00000e-13
465.58	1.00000e-13
466.55	1.00000e-13
467.52	1.00000e-13
468.49	1.25122e-5
469.46	1.00000e-13
470.44	1.00000e-13
471.40	1.00000e-13
472.37	1.00000e-13
473.34	1.00000e-13
474.31	1.00000e-13
475.28	1.00000e-13
476.25	1.00000e-13
477.22	1.96951e-6
478.19	1.00000e-13
479.16	1.00000e-13
480.13	1.00000e-13
481.10	1.00000e-13
482.07	1.00000e-13
483.04	1.00000e-13
484.01	1.00000e-13
484.98	1.00000e-13
485.95	1.00000e-13
486.92	1.00000e-13
487.89	1.00000e-13
488.86	2.78048e-6
489.83	1.00000e-13
490.81	1.39024e-6
491.77	1.00000e-13
492.74	1.00000e-13
493.71	1.00000e-13
494.68	1.00000e-13
495.65	1.00000e-13
496.62	1.00000e-13
497.59	1.00000e-13
498.56	1.00000e-13
499.53	1.00000e-13
500.50	1.00000e-13
501.47	1.00000e-13
502.44	1.00000e-13
503.41	1.00000e-13
504.38	1.00000e-13
505.35	1.00000e-13
506.32	1.00000e-13
507.29	1.00000e-13
508.27	1.00000e-13
509.23	1.00000e-13
510.20	1.00000e-13
511.17	1.00000e-13
512.14	1.00000e-13
513.11	1.00000e-13
514.08	1.00000e-13
515.05	1.00000e-13
516.02	1.00000e-13
516.99	1.00000e-13
517.96	1.00000e-13
518.93	1.00000e-13
519.90	1.00000e-13
520.87	2.39817e-5
521.84	1.00000e-13
522.81	1.00000e-13
523.78	1.00000e-13
524.75	1.00000e-13
525.72	1.00000e-13
526.69	1.00000e-13
527.66	1.00000e-13
528.63	1.00000e-13
529.60	1.00000e-13
530.57	1.00000e-13
531.54	1.00000e-13
532.51	1.00000e-13
533.48	1.00000e-13
534.45	1.00000e-13
535.42	7.06706e-6
536.39	1.00000e-13
537.36	1.00000e-13
538.33	1.00000e-13
539.30	1.00000e-13
540.27	1.00000e-13
541.24	1.00000e-13
542.21	1.00000e-13
543.18	1.49451e-5
544.15	1.00000e-13
545.12	1.00000e-13
546.09	1.00000e-13
547.06	1.00000e-13
548.03	1.00000e-13
549.00	1.00000e-13
549.97	1.00000e-13
550.94	1.00000e-13
551.91	1.00000e-13
552.88	1.00000e-13
553.85	1.00000e-13
554.82	1.00000e-13
555.79	1.00000e-13
556.76	1.00000e-13
557.73	1.00000e-13
558.70	1.00000e-13
559.67	1.00000e-13
560.64	1.00000e-13
561.61	1.00000e-13
562.58	1.00000e-13
563.55	1.00000e-13
564.52	1.00000e-13
565.49	1.00000e-13
566.46	1.00000e-13
567.43	1.00000e-13
568.40	1.00000e-13
569.37	1.00000e-13
570.34	1.00000e-13
571.31	1.00000e-13
572.28	1.00000e-13
573.25	3.08170e-5
574.22	1.00000e-13
575.19	1.00000e-13
576.16	1.00000e-13
577.13	1.00000e-13
578.10	1.00000e-13
579.07	1.00000e-13
580.04	1.00000e-13
581.01	1.00000e-13
581.98	1.00000e-13
582.95	1.00000e-13
583.92	1.00000e-13
584.89	1.00000e-13
585.86	1.00000e-13
586.83	1.00000e-13
587.80	2.08536e-5
588.77	1.00000e-13
589.74	1.00000e-13
590.71	6.37194e-6
591.68	1.00000e-13
592.65	2.08536e-6
593.62	1.00000e-13
594.59	1.00000e-13
595.56	1.00000e-13
596.53	1.00000e-13
597.50	1.00000e-13
598.47	1.00000e-13
599.44	1.00000e-13
600.41	1.00000e-13
601.38	1.00000e-13
602.35	1.00000e-13
603.32	1.00000e-13
604.29	1.00000e-13
605.26	1.00000e-13
606.23	1.00000e-13
607.20	1.00000e-13
608.17	1.00000e-13
609.14	1.00000e-13
610.11	1.00000e-13
611.08	1.00000e-13
612.05	1.00000e-13
613.02	1.00000e-13
613.99	1.00000e-13
614.96	1.00000e-13
615.93	1.00000e-13
616.90	1.00000e-13
617.87	1.00000e-13
618.84	1.00000e-13
619.81	5.67682e-6
620.78	1.00000e-13
621.75	1.00000e-13
622.72	1.00000e-13
623.69	1.00000e-13
624.66	1.00000e-13
625.63	1.00000e-13
626.60	1.00000e-13
627.57	1.00000e-13
628.54	1.00000e-13
629.51	1.00000e-13
630.48	1.00000e-13
631.45	1.00000e-13
632.42	1.00000e-13
633.39	1.00000e-13
634.36	1.00000e-13
635.33	1.00000e-13
636.30	1.00000e-13
637.27	1.00000e-13
638.24	1.00000e-13
639.21	1.00000e-13
640.18	1.00000e-13
641.15	1.00000e-13
642.12	1.33232e-5
643.09	1.00000e-13
644.06	1.00000e-13
645.03	1.00000e-13
646.00	1.00000e-13
646.97	3.59146e-6
647.94	1.00000e-13
648.91	1.00000e-13
649.88	1.00000e-13
650.85	1.00000e-13
651.82	1.00000e-13
652.79	1.00000e-13
653.76	1.00000e-13
654.73	1.00000e-13
655.70	1.00000e-13
656.67	1.00000e-13
657.64	1.00000e-13
658.61	2.78048e-6
659.58	1.00000e-13
660.55	1.00000e-13
661.52	1.00000e-13
662.49	1.00000e-13
663.46	1.00000e-13
664.43	9.26828e-7
665.40	1.00000e-13
666.37	1.00000e-13
667.34	1.00000e-13
668.31	1.00000e-13
669.28	1.00000e-13
670.25	1.00000e-13
671.22	1.00000e-13
672.19	3.59146e-6
673.16	1.00000e-13
674.13	1.00000e-13
675.10	1.00000e-13
676.07	1.00000e-13
677.04	1.00000e-13
678.01	1.00000e-13
678.98	1.00000e-13
679.95	1.00000e-13
680.92	1.00000e-13
681.89	1.00000e-13
682.86	1.00000e-13
683.83	1.00000e-13
684.80	1.00000e-13
685.77	1.00000e-13
686.74	1.00000e-13
687.71	1.00000e-13
688.68	1.00000e-13
689.65	1.00000e-13
690.62	1.00000e-13
691.59	1.00000e-13
692.56	1.00000e-13
693.53	1.00000e-13
694.50	1.00000e-13
695.47	1.00000e-13
696.44	1.00000e-13
697.41	1.00000e-13
698.38	1.00000e-13
699.35	1.00000e-13
700.32	1.00000e-13
701.29	1.00000e-13
702.26	1.00000e-13
703.23	1.00000e-13
704.20	1.00000e-13
705.17	1.00000e-13
706.14	1.00000e-13
707.11	1.00000e-13
708.08	1.00000e-13
709.05	1.00000e-13
710.02	1.00000e-13
710.98	1.00000e-13
711.96	1.00000e-13
712.93	1.00000e-13
713.89	1.00000e-13
714.87	1.00000e-13
715.84	1.00000e-13
716.81	1.00000e-13
717.78	1.00000e-13
718.75	1.00000e-13
719.72	1.00000e-13
720.68	1.00000e-13
721.66	1.00000e-13
722.62	1.00000e-13
723.60	1.00000e-13
724.57	1.00000e-13
725.54	1.00000e-13
726.51	1.00000e-13
727.47	1.00000e-13
728.45	1.00000e-13
729.42	1.00000e-13
730.38	1.00000e-13
731.36	1.00000e-13
732.33	1.00000e-13
733.30	1.00000e-13
734.26	1.00000e-13
735.23	1.00000e-13
736.20	1.00000e-13
737.17	1.00000e-13
738.14	1.00000e-13
739.12	1.00000e-13
740.08	1.00000e-13
741.06	1.00000e-13
742.03	1.00000e-13
742.99	1.00000e-13
743.96	1.00000e-13
744.94	1.00000e-13
745.90	1.00000e-13
746.87	1.00000e-13
747.85	1.00000e-13
748.81	1.00000e-13
749.78	1.00000e-13
750.76	1.00000e-13
751.72	1.00000e-13
752.69	1.00000e-13
753.66	1.00000e-13
754.63	1.00000e-13
755.61	1.00000e-13
756.58	1.00000e-13
757.54	1.00000e-13
758.52	1.00000e-13
759.48	1.00000e-13
760.46	1.00000e-13
761.42	1.00000e-13
762.39	1.00000e-13
763.36	1.00000e-13
764.33	1.00000e-13
765.30	1.00000e-13
766.27	1.00000e-13
767.25	1.00000e-13
768.22	1.00000e-13
769.18	1.00000e-13
770.15	1.00000e-13
771.12	1.00000e-13
772.09	1.00000e-13
773.06	1.00000e-13
774.03	1.00000e-13
775.00	1.00000e-13
775.97	1.00000e-13
776.94	1.00000e-13
777.91	1.00000e-13
778.88	1.00000e-13
779.85	1.00000e-13
780.82	1.00000e-13
781.79	1.00000e-13
782.76	1.00000e-13
783.73	1.04268e-6
784.71	5.90853e-6
785.67	1.00000e-13
786.64	1.04268e-5
787.61	1.00000e-13
788.59	1.00000e-13
789.55	1.00000e-13
790.52	1.00000e-13
791.49	1.00000e-13
792.46	1.00000e-13
793.43	2.22439e-5
794.40	1.00000e-13
795.37	1.00000e-13
796.34	1.00000e-13
797.31	1.00000e-13
798.28	1.00000e-13
799.25	1.00000e-13
800.22	1.00000e-13
801.19	1.00000e-13
802.16	1.00000e-13
803.13	1.00000e-13
804.10	1.00000e-13
805.07	1.00000e-13
806.04	1.00000e-13
807.01	1.00000e-13
807.98	8.92072e-6
808.95	1.00000e-13
809.92	1.00000e-13
810.89	1.00000e-13
811.86	1.00000e-13
812.83	1.00000e-13
813.80	1.00000e-13
814.77	1.00000e-13
815.74	1.00000e-13
816.71	1.00000e-13
817.68	1.00000e-13
818.65	1.00000e-13
819.62	1.00000e-13
820.59	1.00000e-13
821.56	1.39024e-6
822.53	1.00000e-13
823.50	1.00000e-13
824.47	1.00000e-13
825.44	1.00000e-13
826.41	1.00000e-13
827.38	1.00000e-13
828.35	9.26828e-7
829.32	1.00000e-13
830.29	1.00000e-13
831.26	1.00000e-13
832.23	1.00000e-13
833.20	1.00000e-13
834.17	1.00000e-13
835.14	1.00000e-13
836.11	1.00000e-13
837.08	1.00000e-13
838.05	1.00000e-13
839.02	1.00000e-13
839.99	1.39024e-6
840.96	1.00000e-13
841.93	1.00000e-13
842.90	1.00000e-13
843.87	1.00000e-13
844.84	1.00000e-13
845.81	1.00000e-13
846.78	1.00000e-13
847.75	1.00000e-13
848.72	1.00000e-13
849.69	1.00000e-13
850.66	1.00000e-13
851.63	1.00000e-13
852.60	1.00000e-13
853.57	1.00000e-13
854.54	1.00000e-13
855.51	1.00000e-13
856.48	1.00000e-13
857.45	9.61584e-6
858.42	1.00000e-13
859.39	1.00000e-13
860.36	1.00000e-13
861.33	1.00000e-13
862.30	1.00000e-13
863.27	1.00000e-13
864.24	1.00000e-13
865.21	1.00000e-13
866.18	1.00000e-13
867.15	1.00000e-13
868.12	1.00000e-13
869.09	1.00000e-13
870.06	1.00000e-13
871.03	1.00000e-13
872.00	1.00000e-13
872.97	1.00000e-13
873.94	1.00000e-13
874.91	1.00000e-13
875.88	1.00000e-13
876.85	1.00000e-13
877.82	1.00000e-13
878.79	1.00000e-13
879.76	1.00000e-13
880.73	1.00000e-13
881.70	1.00000e-13
882.67	1.00000e-13
883.64	1.00000e-13
884.61	1.00000e-13
885.58	1.00000e-13
886.55	1.00000e-13
887.52	1.21646e-5
888.49	1.00000e-13
889.46	1.00000e-13
890.43	1.00000e-13
891.40	1.00000e-13
892.37	1.00000e-13
893.34	1.00000e-13
894.31	1.00000e-13
895.28	1.00000e-13
896.25	1.00000e-13
897.22	1.00000e-13
898.19	1.00000e-13
899.16	1.00000e-13
900.13	1.00000e-13
901.10	1.00000e-13
902.07	1.00000e-13
903.04	1.00000e-13
904.01	1.00000e-13
904.98	1.00000e-13
905.95	1.00000e-13
906.92	1.00000e-13
907.89	1.00000e-13
908.86	1.00000e-13
909.83	1.00000e-13
910.80	1.00000e-13
911.77	1.00000e-13
912.74	1.00000e-13
913.71	1.00000e-13
914.68	1.00000e-13
915.65	1.00000e-13
916.62	1.00000e-13
917.59	1.00000e-13
918.56	1.00000e-13
919.53	1.00000e-13
920.50	1.00000e-13
921.47	1.00000e-13
922.44	1.00000e-13
923.41	1.00000e-13
924.38	1.00000e-13
925.35	1.00000e-13
926.32	1.00000e-13
927.29	1.00000e-13
928.26	1.00000e-13
929.23	1.00000e-13
930.20	1.00000e-13
931.17	1.00000e-13
932.14	1.00000e-13
933.11	1.00000e-13
934.08	1.00000e-13
935.05	1.00000e-13
936.02	1.00000e-13
936.99	1.00000e-13
937.96	1.10061e-5
938.93	1.00000e-13
939.90	1.00000e-13
940.87	1.00000e-13
941.84	1.00000e-13
942.81	1.00000e-13
943.78	1.00000e-13
944.75	1.00000e-13
945.72	1.00000e-13
946.69	1.00000e-13
947.66	1.00000e-13
948.63	1.00000e-13
949.60	1.00000e-13
950.57	1.00000e-13
951.54	1.00000e-13
952.51	1.00000e-13
953.48	1.00000e-13
954.45	1.00000e-13
955.42	1.00000e-13
956.39	1.00000e-13
957.36	1.00000e-13
958.33	1.00000e-13
959.30	1.00000e-13
960.27	1.00000e-13
961.24	1.00000e-13
962.21	1.00000e-13
963.18	1.00000e-13
964.15	1.00000e-13
965.12	1.00000e-13
966.09	1.00000e-13
967.06	1.00000e-13
968.03	1.00000e-13
969.00	2.12012e-5
969.97	1.00000e-13
970.94	1.00000e-13
971.91	1.00000e-13
972.88	1.00000e-13
973.85	1.00000e-13
974.82	1.00000e-13
975.78	1.00000e-13
976.76	1.00000e-13
977.72	1.00000e-13
978.69	1.00000e-13
979.66	1.00000e-13
980.64	1.00000e-13
981.61	1.00000e-13
982.58	1.00000e-13
983.55	1.00000e-13
984.52	1.00000e-13
985.49	1.00000e-13
986.46	1.00000e-13
987.42	1.00000e-13
988.40	1.00000e-13
989.37	1.00000e-13
990.34	1.00000e-13
991.31	1.00000e-13
992.28	1.00000e-13
993.25	1.00000e-13
994.22	1.00000e-13
995.18	1.00000e-13
996.16	1.00000e-13
997.12	1.00000e-13
998.10	1.00000e-13
999.07	1.00000e-13
1000.04	1.00000e-13
1001.00	1.00000e-13
1001.97	1.14695e-5
1002.94	1.00000e-13
1003.92	1.00000e-13
1004.88	1.00000e-13
1005.86	1.00000e-13
1006.82	1.00000e-13
1007.80	1.00000e-13
1008.76	1.00000e-13
1009.74	1.00000e-13
1010.70	1.00000e-13
1011.68	1.00000e-13
1012.64	1.00000e-13
1013.62	1.00000e-13
1014.58	1.00000e-13
1015.56	1.00000e-13
1016.52	1.00000e-13
1017.49	1.00000e-13
1018.46	1.00000e-13
1019.43	1.00000e-13
1020.40	1.00000e-13
1021.37	1.00000e-13
1022.35	1.00000e-13
1023.31	1.00000e-13
1024.28	1.00000e-13
1025.26	1.00000e-13
1026.22	1.00000e-13
1027.19	4.05487e-6
1028.17	1.00000e-13
1029.13	1.00000e-13
1030.10	1.00000e-13
1031.07	1.00000e-13
1032.04	1.00000e-13
1033.01	1.00000e-13
1033.98	1.00000e-13
1034.95	1.00000e-13
1035.92	1.00000e-13
1036.89	1.00000e-13
1037.86	1.00000e-13
1038.83	1.00000e-13
1039.81	1.00000e-13
1040.77	1.00000e-13
1041.74	1.00000e-13
1042.71	1.00000e-13
1043.68	1.00000e-13
1044.65	1.00000e-13
1045.62	1.00000e-13
1046.59	1.00000e-13
1047.56	1.00000e-13
1048.53	1.00000e-13
1049.50	1.00000e-13
1050.47	1.00000e-13
1051.44	1.00000e-13
1052.41	1.00000e-13
1053.39	1.00000e-13
1054.35	1.00000e-13
1055.33	1.00000e-13
1056.30	1.00000e-13
1057.27	1.00000e-13
1058.24	1.00000e-13
1059.20	1.00000e-13
1060.17	1.00000e-13
1061.14	1.00000e-13
1062.11	3.24390e-6
1063.08	8.57316e-6
1064.05	1.00000e-13
1065.02	1.00000e-13
1065.99	1.00000e-13
1066.97	1.00000e-13
1067.93	1.00000e-13
1068.91	1.00000e-13
1069.87	6.60365e-6
1070.84	1.00000e-13
1071.81	2.20122e-6
1072.78	1.00000e-13
1073.75	1.00000e-13
1074.72	1.00000e-13
1075.69	1.00000e-13
1076.66	1.00000e-13
1077.63	1.00000e-13
1078.60	1.00000e-13
1079.57	1.00000e-13
1080.54	1.00000e-13
1081.51	1.00000e-13
1082.49	1.00000e-13
1083.45	1.00000e-13
1084.43	2.89634e-6
1085.39	1.00000e-13
1086.36	1.00000e-13
1087.34	1.00000e-13
1088.31	1.00000e-13
1089.27	1.00000e-13
1090.24	1.00000e-13
1091.21	1.00000e-13
1092.18	1.00000e-13
1093.15	1.00000e-13
1094.12	1.00000e-13
1095.09	1.00000e-13
1096.06	1.00000e-13
1097.03	1.00000e-13
1098.00	1.00000e-13
1098.97	1.00000e-13
1099.94	1.00000e-13
1100.91	1.00000e-13
1101.88	1.00000e-13
1102.85	1.00000e-13
1103.83	1.00000e-13
1104.79	1.00000e-13
1105.76	1.00000e-13
1106.73	1.00000e-13
1107.70	1.00000e-13
1108.67	1.00000e-13
1109.64	1.00000e-13
1110.61	1.00000e-13
1111.58	1.00000e-13
1112.55	1.00000e-13
1113.52	1.00000e-13
1114.49	1.00000e-13
1115.46	1.00000e-13
1116.43	1.00000e-13
1117.40	1.00000e-13
1118.37	1.00000e-13
1119.34	1.00000e-13
1120.31	1.00000e-13
1121.28	1.00000e-13
1122.25	1.00000e-13
1123.22	1.00000e-13
1124.19	1.00000e-13
1125.16	1.00000e-13
1126.13	1.00000e-13
1127.10	1.00000e-13
1128.07	1.00000e-13
1129.04	1.00000e-13
1130.01	1.00000e-13
1130.98	1.00000e-13
1131.95	1.00000e-13
1132.92	1.00000e-13
1133.89	1.00000e-13
1134.86	1.00000e-13
1135.83	1.00000e-13
1136.80	1.00000e-13
1137.77	1.00000e-13
1138.74	1.00000e-13
1139.71	1.00000e-13
1140.68	6.37194e-6
1141.65	1.00000e-13
1142.62	1.00000e-13
1143.59	1.00000e-13
1144.56	1.00000e-13
1145.53	1.00000e-13
1146.50	1.00000e-13
1147.47	1.00000e-13
1148.44	3.12804e-6
1149.41	1.00000e-13
1150.38	1.00000e-13
1151.35	1.00000e-13
1152.32	6.25609e-6
1153.29	1.00000e-13
1154.26	1.00000e-13
1155.23	1.00000e-13
1156.20	1.00000e-13
1157.17	1.00000e-13
1158.14	1.00000e-13
1159.11	1.00000e-13
1160.08	1.00000e-13
1161.05	1.00000e-13
1162.02	1.00000e-13
1162.99	1.00000e-13
1163.96	1.00000e-13
1164.93	1.00000e-13
1165.90	1.00000e-13
1166.87	1.00000e-13
1167.84	1.00000e-13
1168.81	1.00000e-13
1169.78	1.00000e-13
1170.75	1.00000e-13
1171.72	1.00000e-13
1172.69	1.00000e-13
1173.66	3.70731e-6
1174.63	6.14023e-6
1175.60	1.00000e-13
1176.57	1.00000e-13
1177.54	1.00000e-13
1178.51	1.00000e-13
1179.48	1.00000e-13
1180.45	1.00000e-13
1181.42	1.00000e-13
1182.39	1.00000e-13
1183.36	1.00000e-13
1184.33	1.00000e-13
1185.30	1.00000e-13
1186.27	1.00000e-13
1187.24	1.00000e-13
1188.21	1.00000e-13
1189.18	1.00000e-13
1190.15	1.00000e-13
1191.12	1.00000e-13
1192.09	1.00000e-13
1193.06	1.00000e-13
1194.03	1.00000e-13
1195.00	1.00000e-13
1195.97	1.00000e-13
1196.94	1.00000e-13
1197.91	1.00000e-13
1198.88	1.00000e-13
1199.85	1.00000e-13
1200.82	1.00000e-13
1201.79	1.88841e-5
1202.76	1.00000e-13
1203.73	1.00000e-13
1204.70	1.00000e-13
1205.67	1.00000e-13
1206.64	1.00000e-13
1207.61	1.00000e-13
1208.58	1.00000e-13
1209.55	8.34145e-6
1210.52	1.00000e-13
1211.49	1.00000e-13
1212.46	1.00000e-13
1213.43	1.00000e-13
1214.40	1.00000e-13
1215.37	1.00000e-13
1216.34	1.00000e-13
1217.31	1.00000e-13
1218.28	1.00000e-13
1219.25	1.00000e-13
1220.22	1.00000e-13
1221.19	1.85366e-6
1222.16	1.00000e-13
1223.13	1.00000e-13
1224.10	1.00000e-13
1225.07	9.61584e-6
1226.04	1.00000e-13
1227.01	1.00000e-13
1227.98	1.00000e-13
1228.95	1.00000e-13
1229.92	1.00000e-13
1230.89	1.00000e-13
1231.86	1.00000e-13
1232.83	1.00000e-13
1233.80	1.00000e-13
1234.77	1.00000e-13
1235.74	1.00000e-13
1236.71	1.00000e-13
1237.68	1.00000e-13
1238.65	1.00000e-13
1239.62	1.00000e-13
1240.59	1.00000e-13
1241.56	1.00000e-13
1242.53	1.00000e-13
1243.50	1.00000e-13
1244.47	1.00000e-13
1245.44	1.00000e-13
1246.41	1.00000e-13
1247.38	1.00000e-13
1248.35	1.00000e-13
1249.32	1.00000e-13
1250.29	1.00000e-13
1251.26	1.00000e-13
1252.23	1.00000e-13
1253.20	1.00000e-13
1254.17	1.00000e-13
1255.14	1.00000e-13
1256.11	1.00000e-13
1257.08	1.00000e-13
1258.05	1.00000e-13
1259.02	1.00000e-13
1259.99	1.00000e-13
1260.96	1.00000e-13
1261.93	1.00000e-13
1262.90	1.00000e-13
1263.87	1.00000e-13
1264.84	1.00000e-13
1265.81	1.00000e-13
1266.78	1.00000e-13
1267.75	1.00000e-13
1268.72	1.00000e-13
1269.69	1.00000e-13
1270.66	1.00000e-13
1271.63	1.00000e-13
1272.60	2.89634e-6
1273.57	1.00000e-13
1274.54	1.00000e-13
1275.51	2.23597e-5
1276.48	8.19084e-5
1277.45	1.86524e-4
1278.42	3.35048e-4
1279.39	6.25377e-4
1280.36	1.06562e-3
1281.32	1.34228e-3
1282.30	1.33498e-3
1283.27	1.63435e-3
1284.23	1.44365e-3
1285.21	1.44713e-3
1286.17	1.45130e-3
1287.14	1.28424e-3
1288.12	1.24044e-3
1289.09	1.15448e-3
1290.05	1.06550e-3
1291.03	1.16583e-3
1291.99	1.05218e-3
1292.96	1.16653e-3
1293.94	8.97864e-4
1294.91	9.88578e-4
1295.87	1.08983e-3
1296.85	9.06090e-4
1297.82	8.87438e-4
1298.79	6.92456e-4
1299.75	8.71797e-4
1300.73	7.14468e-4
1301.69	7.91743e-4
1302.67	8.01011e-4
1303.64	7.14005e-4
1304.60	7.00566e-4
1305.58	6.92109e-4
1306.55	7.82359e-4
1307.51	7.28602e-4
1308.49	7.07054e-4
1309.45	5.98383e-4
1310.42	5.68841e-4
1311.39	5.81816e-4
1312.36	5.50304e-4
1313.33	4.94579e-4
1314.30	5.48798e-4