File: data/TGA/005d-L_M/L4-corrected.txt
Filename	L3
Instrument name
Operator	Galyna
rundate	2025-02-24
Sample name	L3
[step]
Step 1
Time	Temperature	Weight	Weight	Deriv. Weight
min	°C	mg	%	% / °C
0.01	26.54	1.644	100	-4.21825E-05
0.96	27.83	1.639	99.6959	-3.79774E-05
1.96	29.5	1.638	99.635	-3.54659E-05
2.96	32.66	1.639	99.6959	-2.92593E-05
3.96	37.13	1.643	99.9392	-3.32556E-05
4.96	42.23	1.641	99.8175	-3.16669E-05
5.96	47.38	1.64	99.7567	-3.14857E-05
6.96	52.33	1.638	99.635	-0.000029968
7.96	57.06	1.632	99.2701	-2.97146E-05
8.96	61.7	1.638	99.635	-3.23655E-05
9.96	66.36	1.637	99.5742	-3.60364E-05
10.96	71.13	1.639	99.6959	-3.76591E-05
11.96	76.03	1.637	99.5742	-4.32052E-05
12.96	81.04	1.635	99.4526	-4.60519E-05
13.96	86.11	1.636	99.5134	-5.14272E-05
14.96	91.21	1.634	99.3917	-5.73433E-05
15.96	96.26	1.634	99.3917	-6.34647E-05
16.96	100.21	1.627	98.9659	-8.01721E-05
17.96	102.34	1.628	99.0268	-0.00009072
18.96	103.04	1.63	99.1484	-0.000100243
19.96	102.88	1.626	98.9051	-0.000105338
20.96	102.34	1.625	98.8443	-0.000121759
21.96	101.68	1.625	98.8443	-0.000113746
22.96	101.02	1.625	98.8443	-7.47704E-05
23.96	100.45	1.624	98.7835	-4.43935E-05
24.96	100.02	1.623	98.7226	-2.92458E-05
25.96	100.61	1.623	98.7226	-0.000024182
26.96	103.37	1.622	98.6618	-2.04953E-05
27.96	107.68	1.623	98.7226	-1.73924E-05
28.96	112.54	1.622	98.6618	-1.58306E-05
29.96	117.37	1.625	98.8443	-1.49337E-05
30.96	122.09	1.623	98.7226	-1.55099E-05
31.96	126.82	1.622	98.6618	-1.62379E-05
32.96	131.62	1.621	98.601	-1.82716E-05
33.96	136.53	1.621	98.601	-1.96446E-05
34.96	141.53	1.621	98.601	-0.000021101
35.96	146.58	1.62	98.5401	-2.04911E-05
36.96	151.64	1.62	98.5401	-2.16901E-05
37.96	156.71	1.618	98.4185	-2.47099E-05
38.96	161.77	1.618	98.4185	-2.53008E-05
39.96	166.81	1.616	98.2968	-2.50257E-05
40.96	171.83	1.617	98.3577	-2.50111E-05
41.96	176.84	1.617	98.3577	-2.58988E-05
42.96	181.85	1.617	98.3577	-2.56004E-05
43.96	186.86	1.618	98.4185	-2.56627E-05
44.96	191.87	1.613	98.1144	-2.62973E-05
45.96	196.87	1.612	98.0535	-2.64518E-05
46.96	201.86	1.613	98.1144	-2.73468E-05
47.96	206.86	1.615	98.236	-2.84871E-05
48.96	211.85	1.613	98.1144	-2.91893E-05
49.96	216.86	1.613	98.1144	-2.93251E-05
50.96	221.87	1.612	98.0535	-2.93214E-05
51.96	226.88	1.611	97.9927	-3.00577E-05
52.96	231.88	1.61	97.9319	-2.91291E-05
53.96	236.89	1.609	97.871	-0.000030058
54.96	241.9	1.607	97.7494	-3.00841E-05
55.96	246.91	1.608	97.8102	-3.14017E-05
56.96	251.92	1.607	97.7494	-3.32991E-05
57.96	256.93	1.607	97.7494	-3.51414E-05
58.96	261.94	1.606	97.6886	-3.73827E-05
59.96	266.95	1.605	97.6277	-3.86771E-05
60.96	271.96	1.605	97.6277	-4.02768E-05
61.96	276.96	1.604	97.5669	-4.37181E-05
62.96	281.97	1.604	97.5669	-4.69335E-05
63.96	286.98	1.601	97.3844	-5.16722E-05
64.96	292	1.601	97.3844	-5.72915E-05
65.96	296.78	1.6	97.3236	-0.000063957
66.96	299.72	1.598	97.2019	-7.00016E-05
67.96	301.13	1.597	97.1411	-7.88479E-05
68.96	301.78	1.597	97.1411	-8.95101E-05
69.96	301.87	1.595	97.0195	-0.000101513
70.96	301.55	1.596	97.0803	-0.000116499
71.96	301.02	1.593	96.8978	-0.000127584
72.96	300.49	1.594	96.9586	-0.000142569
73.96	300.06	1.594	96.9586	6.09646E-06
74.96	299.78	1.594	96.9586	0.000426242
75.96	299.67	1.593	96.8978	0.000527947
76.96	299.67	1.592	96.837	0.000483374
77.96	299.74	1.594	96.9586	0.000443382
78.96	299.85	1.588	96.5937	0.000479085
79.96	299.95	1.59	96.7153	0.00020336
80.96	300.02	1.591	96.7762	-0.000532802
81.96	300.07	1.591	96.7762	-0.00176755
82.96	300.08	1.59	96.7153	-0.0020732
83.96	300.06	1.59	96.7153	-0.00192636
84.96	300.04	1.589	96.6545	-0.00193562
85.96	300.02	1.59	96.7153	-0.00169204
86.96	300	1.59	96.7153	0.000585923
87.96	299.99	1.59	96.7153	0.00554917
88.96	299.99	1.588	96.5937	0.0102366
89.96	299.98	1.588	96.5937	0.0105743
90.96	299.99	1.588	96.5937	0.0111255
91.96	299.99	1.587	96.5328	0.0135328
92.96	300	1.585	96.4112	0.0138885
93.96	300	1.587	96.5328	0.00616146
94.96	300	1.587	96.5328	-0.0261471
95.96	300	1.584	96.3504	-0.0475037
96.96	300	1.583	96.2895	-0.0495241
97.96	300	1.586	96.472	-0.0482358
98.96	299.98	1.587	96.5328	-0.0457145
99.96	299.99	1.583	96.2895	-0.041145
100.96	300	1.583	96.2895	-0.0315531
101.96	300	1.583	96.2895	-0.0263704
102.96	300	1.584	96.3504	-0.026338
103.96	300	1.578	95.9854	-0.0331287
104.96	300	1.582	96.2287	-0.039185
105.96	300	1.58	96.1071	-0.0369221
106.96	300	1.579	96.0462	-0.0321912
107.96	300	1.579	96.0462	0.0602243
108.96	300	1.579	96.0462	0.110198
109.96	300	1.578	95.9854	0.123677
110.96	300	1.577	95.9246	0.150613
111.96	300	1.574	95.7421	0.190944
112.96	300	1.576	95.8637	0.228624
113.96	300	1.579	96.0462	0.209565
114.96	300	1.575	95.8029	0.0832087
115.96	300	1.565	95.1946	-0.18947
116.96	300	1.562	95.0122	-0.282985
117.96	300	1.565	95.1946	-0.178547
118.96	300	1.562	95.0122	-0.0595574
119.96	300	1.565	95.1946	0.252128
120.96	300	1.564	95.1338	0.372125
121.96	300	1.561	94.9513	0.366075
122.96	300	1.562	95.0122	0.382001
123.96	300	1.565	95.1946	0.232614
124.96	300	1.561	94.9513	0.025929
125.96	300	1.561	94.9513	-0.105356
126.96	300	1.56	94.8905	-0.189086
127.96	300	1.56	94.8905	-0.210578
128.96	300	1.558	94.7689	-0.200707
129.96	300	1.558	94.7689	-0.189848
130.96	300	1.558	94.7689	-0.192319
131.96	300	1.557	94.708	-0.186424
132.96	300	1.556	94.6472	-0.172258
133.96	300	1.555	94.5864	-0.156703
134.96	300	1.555	94.5864	-0.141243
135.96	300	1.555	94.5864	-0.0961723
136.96	300	1.553	94.4647	-0.0686643
137.96	300	1.554	94.5255	-0.0451515
138.96	300	1.553	94.4647	0.00958905
139.96	300	1.552	94.4039	0.129366
140.96	300	1.551	94.3431	0.255206
141.96	300	1.555	94.5864	0.261871
142.96	300	1.552	94.4039	0.242131
143.96	300	1.548	94.1606	0.231925
144.96	300	1.552	94.4039	0.194538
145.96	300	1.554	94.5255	0.164271
146.96	300	1.548	94.1606	0.0773079
147.96	300	1.547	94.0998	0.0162275
148.96	300	1.549	94.2214	0.0950489
149.96	300	1.549	94.2214	0.14624
150.96	300	1.55	94.2822	0.111697
151.96	300	1.547	94.0998	0.112889
152.96	300	1.551	94.3431	0.135142
153.96	300	1.548	94.1606	0.120286
154.96	300	1.547	94.0998	0.0639804
155.96	300	1.547	94.0998	0.045814
156.96	300	1.546	94.0389	0.0493654
157.96	300	1.547	94.0998	0.066364
158.96	300	1.547	94.0998	0.0526358
159.96	300	1.546	94.0389	0.0805291
160.96	300	1.549	94.2214	0.103995
161.96	300	1.545	93.9781	0.113132
162.96	300	1.549	94.2214	0.119248
163.96	300	1.546	94.0389	0.124581
164.96	300	1.546	94.0389	0.127041
165.96	300	1.545	93.9781	0.144491
166.96	300	1.544	93.9173	0.140394
167.96	300	1.553	94.4647	0.13782
168.96	300	1.543	93.8564	0.128233
169.96	300	1.544	93.9173	0.127858
170.96	300	1.543	93.8564	0.120831
171.96	300	1.544	93.9173	0.108291
172.96	300	1.543	93.8564	0.107502
173.96	300	1.542	93.7956	0.0616297
174.96	300	1.543	93.8564	-0.0302197
175.96	300	1.54	93.674	-0.105573
176.96	300	1.542	93.7956	-0.090226
177.96	300	1.541	93.7348	-0.0488773
178.96	300	1.542	93.7956	-0.0799392
179.96	300	1.541	93.7348	-0.0718138
180.96	300	1.542	93.7956	-0.0924921
181.96	300	1.541	93.7348	-0.10702
182.96	300	1.54	93.674	-0.115051
183.96	300	1.54	93.674	-0.160276
184.96	300	1.538	93.5523	-0.182724
185.96	300	1.536	93.4307	-0.19687
186.96	300	1.536	93.4307	-0.197619
187.96	300	1.538	93.5523	-0.187627
188.96	300	1.538	93.5523	-0.11734
189.96	300	1.534	93.309	-0.0176737
190.96	300	1.536	93.4307	0.0260439
191.96	300	1.535	93.3698	0.00631401
192.96	300	1.536	93.4307	0.0251575
193.96	300	1.532	93.1873	0.0311787
194.96	300	1.537	93.4915	0.0378364
195.96	300	1.534	93.309	0.066275
196.96	300	1.531	93.1265	0.0927561
197.96	300	1.533	93.2482	0.0764844
198.96	300	1.533	93.2482	0.0876718
199.96	300	1.534	93.309	0.107259
200.96	300	1.531	93.1265	0.105045
201.96	300	1.532	93.1873	0.096807
202.96	300	1.534	93.309	0.0808004
203.96	300	1.531	93.1265	0.0826683
204.96	300	1.53	93.0657	0.0796064
205.96	300	1.531	93.1265	0.0857028
206.96	300	1.532	93.1873	0.0897561
207.96	300	1.53	93.0657	0.0776466
208.96	300	1.531	93.1265	0.0456675
209.96	300	1.534	93.309	0.00631461
210.96	300	1.532	93.1873	-0.0231341
211.96	300	1.529	93.0049	-0.050765
212.96	300	1.53	93.0657	-0.0557125
213.96	300	1.529	93.0049	-0.0714207
214.96	300	1.527	92.8832	-0.0999806
215.96	300	1.53	93.0657	-0.108372
216.96	300	1.524	92.7007	-0.10296
217.96	300	1.526	92.8224	-0.100079
218.96	300	1.527	92.8832	-0.119207
219.96	300	1.527	92.8832	-0.101315
220.96	300	1.526	92.8224	-0.0887256
221.96	300	1.526	92.8224	-0.0622921
222.96	300	1.527	92.8832	-0.0401589
223.96	300	1.521	92.5182	-0.0387653
224.96	300	1.524	92.7007	-0.0390363
225.96	300	1.526	92.8224	-0.0394606
226.96	300	1.523	92.6399	-0.0920082
227.96	300	1.523	92.6399	-0.0403652
228.96	300	1.523	92.6399	0.0218551
229.96	300	1.524	92.7007	0.0626306
230.96	300	1.525	92.7616	0.0969165
231.96	300	1.522	92.5791	0.111479
232.96	300	1.521	92.5182	0.117048
233.96	300	1.519	92.3966	0.128886
234.96	300	1.52	92.4574	0.128281
235.96	300	1.521	92.5182	0.101054
236.96	300	1.52	92.4574	0.0797126
237.96	300	1.52	92.4574	0.0523696
238.96	300	1.519	92.3966	0.0279339
239.96	300	1.518	92.3358	-0.000259808
240.96	300	1.519	92.3966	0.015491
241.96	300	1.519	92.3966	0.00989349
242.96	300	1.52	92.4574	0.00532466
243.96	300	1.516	92.2141	-0.0137517
244.96	300	1.519	92.3966	0.0193385
245.96	300	1.517	92.2749	0.0365734
246.96	300	1.519	92.3966	0.0225168
247.96	300	1.519	92.3966	0.0211165
248.96	300	1.521	92.5182	0.014307
249.96	300	1.521	92.5182	0.0484485
250.96	300	1.517	92.2749	0.0980186
251.96	300	1.516	92.2141	0.109538
252.96	300	1.516	92.2141	0.102366
253.96	300	1.519	92.3966	0.0994962
254.96	300	1.517	92.2749	0.0997058
255.96	300	1.518	92.3358	0.100904
256.96	300	1.516	92.2141	0.102537
257.96	300	1.514	92.0925	0.110932
258.96	300	1.515	92.1533	0.0985011
259.96	300	1.517	92.2749	0.0733662
260.96	300	1.515	92.1533	0.0442015
261.96	300	1.515	92.1533	0.0341852
262.96	300	1.515	92.1533	0.00475925
263.96	300	1.512	91.9708	-0.0477485
264.96	300	1.514	92.0925	-0.0713555
265.96	300	1.513	92.0316	-0.0804662
266.96	300	1.513	92.0316	-0.0773453
267.96	300	1.512	91.9708	-0.0451995
268.96	300	1.512	91.9708	-0.0242526
269.96	300	1.512	91.9708	-0.00892262
270.96	300	1.513	92.0316	0.00906779
271.96	300	1.51	91.8491	0.036407
272.96	300	1.508	91.7275	0.0542307
273.96	300	1.51	91.8491	0.087067
274.96	300	1.509	91.7883	0.122198
275.96	300	1.509	91.7883	0.120945
276.96	300	1.51	91.8491	0.126421
277.96	300	1.509	91.7883	0.116548
278.96	300	1.51	91.8491	0.120857
279.96	300	1.511	91.91	0.114173
280.96	300	1.506	91.6058	0.112395
281.96	300	1.508	91.7275	0.0545787
282.96	300	1.508	91.7275	-0.0140222
283.96	300	1.507	91.6667	-0.0308513
284.96	300	1.508	91.7275	0.0231175
285.96	300	1.51	91.8491	0.0309512
286.96	300	1.509	91.7883	-0.0153798
287.96	300	1.507	91.6667	-0.0234287
288.96	300	1.506	91.6058	-0.029761
289.96	300	1.507	91.6667	-0.0275918
290.96	300	1.506	91.6058	-0.0245395
291.96	300	1.506	91.6058	-0.00352191
292.96	299.99	1.504	91.4842	0.0167948
293.96	300	1.505	91.545	0.0261318
294.96	300	1.505	91.545	0.0291463
295.96	300	1.505	91.545	0.0363644
296.96	300	1.504	91.4842	0.0385754
297.96	300	1.508	91.7275	0.0224653
298.96	300	1.504	91.4842	0.000629471
299.96	300	1.503	91.4234	-0.00476322
300.96	300	1.504	91.4842	-0.0025482
301.96	300	1.502	91.3625	0.0255418
302.96	300	1.504	91.4842	0.0328574
303.96	300	1.503	91.4234	0.0259915
304.96	300	1.501	91.3017	0.0104066
305.96	300	1.503	91.4234	-0.0191215
306.96	300	1.499	91.18	-0.0556033
307.96	300	1.5	91.2409	-0.0563243
308.96	300	1.499	91.18	-0.0532515
309.96	300	1.502	91.3625	-0.0103548
310.96	300	1.501	91.3017	0.0206201
311.96	300	1.499	91.18	0.0407803
312.96	300	1.5	91.2409	0.0531964
313.96	300	1.498	91.1192	0.0610868
314.96	300	1.5	91.2409	0.0622428
315.96	300	1.499	91.18	0.0698316
316.96	300.01	1.498	91.1192	0.0750812
317.96	300	1.496	90.9976	0.0793173
318.96	300	1.498	91.1192	0.0810522
319.96	300	1.497	91.0584	0.0729902
320.96	300	1.497	91.0584	0.0477672
321.96	300	1.496	90.9976	0.02012
322.96	300	1.498	91.1192	-0.0111488
323.96	299.99	1.495	90.9367	-0.0230174
324.96	300	1.498	91.1192	-0.0537871
325.96	300	1.496	90.9976	-0.0763139
326.96	300	1.496	90.9976	-0.0941993
327.96	300	1.495	90.9367	-0.0817558
328.96	300	1.494	90.8759	-0.0819889
329.96	300	1.495	90.9367	-0.0718513
330.96	300	1.49	90.6326	-0.0589113
331.96	300	1.496	90.9976	-0.0392782
332.96	300	1.494	90.8759	-0.0165485
333.96	300	1.492	90.7543	-0.00622175
334.96	300	1.492	90.7543	0.0477102
335.96	300	1.492	90.7543	0.0775415
336.96	300	1.491	90.6934	0.0920904
337.96	300	1.493	90.8151	0.088893
338.96	300	1.491	90.6934	0.0881516
339.96	300	1.491	90.6934	0.0834027
340.96	300	1.494	90.8759	0.0623004
341.96	300	1.489	90.5718	0.0452574
342.96	300	1.491	90.6934	0.0337637
343.96	300	1.49	90.6326	0.0379271
344.96	300	1.491	90.6934	0.0209373
345.96	300	1.482	90.146	0.0239369
346.96	300	1.491	90.6934	0.0257767
347.96	300	1.489	90.5718	0.0395968
348.96	300	1.491	90.6934	0.0859442
349.96	300	1.488	90.5109	0.0628692
350.96	300	1.488	90.5109	0.0119665
351.96	300	1.488	90.5109	0.000757339
352.96	300	1.489	90.5718	0.00286494
353.96	300	1.486	90.3893	-0.0424977
354.96	300	1.483	90.2068	-0.0819615
355.96	300	1.487	90.4501	-0.0324122
356.96	300	1.483	90.2068	0.0215109
357.96	300	1.485	90.3285	0.0344918
358.96	300	1.484	90.2676	0.0601609
359.96	300	1.486	90.3893	0.0829151
360.96	300	1.487	90.4501	0.121868
361.96	300	1.484	90.2676	0.124783
362.96	300	1.483	90.2068	0.125861
363.96	300	1.485	90.3285	0.144624
364.96	300	1.482	90.146	0.126501
365.96	300	1.483	90.2068	0.130833
366.96	300	1.485	90.3285	0.0993902
367.96	300	1.484	90.2676	0.0557404
368.96	300	1.482	90.146	0.0819679
369.96	300	1.48	90.0243	0.0963019
370.96	300	1.485	90.3285	0.0796386
371.96	300	1.476	89.781	0.0905379
372.96	300	1.485	90.3285	0.117075
373.96	300	1.482	90.146	0.10593
374.96	300	1.485	90.3285	0.10428
375.96	300	1.48	90.0243	0.0980317
376.96	300	1.482	90.146	0.102128
377.96	300	1.479	89.9635	0.111676
378.96	300	1.481	90.0852	0.112433
379.96	300	1.477	89.8418	0.114499
380.96	300	1.479	89.9635	0.105697
381.96	300	1.476	89.781	0.0816843
382.96	300	1.48	90.0243	0.065509
383.96	300	1.479	89.9635	0.0399856
384.96	300	1.478	89.9027	0.0137055
385.96	300	1.477	89.8418	-0.0229712
386.96	300	1.479	89.9635	-0.0501396
387.96	300	1.477	89.8418	0.012478
388.96	300	1.478	89.9027	-0.0363243
389.96	300	1.479	89.9635	-0.0718593
390.96	300	1.475	89.7202	-0.139712
391.96	300	1.475	89.7202	-0.156497
392.96	300	1.475	89.7202	-0.168791
393.96	300	1.475	89.7202	-0.15465
394.96	300	1.475	89.7202	-0.165208
395.96	300	1.472	89.5377	-0.152949
396.96	300	1.474	89.6594	-0.138181
397.96	300	1.472	89.5377	-0.123107
398.96	300	1.473	89.5985	-0.113712
399.96	300	1.47	89.4161	-0.106871
400.96	300	1.472	89.5377	-0.0650707
401.96	300	1.47	89.4161	0.0481499
402.96	300	1.471	89.4769	0.110569
403.96	300	1.471	89.4769	0.169813
404.96	300	1.471	89.4769	0.196293
405.96	300	1.472	89.5377	0.178953
406.96	300	1.468	89.2944	0.163563
407.96	300	1.469	89.3552	0.144931
408.96	300	1.466	89.1727	0.132685
409.96	300	1.466	89.1727	0.113374
410.96	300	1.466	89.1727	0.122921
411.96	300	1.467	89.2336	0.119339
412.96	300	1.468	89.2944	0.0962935
413.96	300	1.47	89.4161	0.0330126
414.96	300	1.466	89.1727	-0.00193581
415.96	300	1.462	88.9294	-0.0645623
416.96	300	1.465	89.1119	-0.0835964
417.96	300	1.467	89.2336	-0.100073
418.96	300	1.464	89.0511	-0.0418547
419.96	300	1.467	89.2336	-0.00817935
420.96	300	1.462	88.9294	0.01993
421.96	300	1.462	88.9294	0.0336331
422.96	300	1.463	88.9903	0.0148071
423.96	300	1.459	88.747	-0.0194081
424.96	300	1.458	88.6861	-0.0500019
425.96	300	1.46	88.8078	-0.0222502
426.96	300	1.462	88.9294	0.0194308
427.96	300	1.46	88.8078	0.0960269
428.96	300	1.461	88.8686	0.137059
429.96	300	1.463	88.9903	0.115426
430.96	300	1.462	88.9294	0.0969111
431.96	300	1.46	88.8078	-0.000955961
432.96	300	1.46	88.8078	-0.0474103
433.96	300	1.459	88.747	-0.0626411
434.96	300	1.461	88.8686	-0.0805998
435.96	300	1.461	88.8686	-0.00754431
436.96	300	1.459	88.747	0.0514931
437.96	300	1.459	88.747	0.051831
438.96	300	1.456	88.5645	0.0697006
439.96	300	1.458	88.6861	0.0841232
440.96	300	1.455	88.5036	0.0602021
441.96	300	1.455	88.5036	0.0556977
442.96	300	1.456	88.5645	0.0717478
443.96	300	1.456	88.5645	0.125775
444.96	300	1.453	88.382	0.138741
445.96	300	1.457	88.6253	0.144432
446.96	300	1.453	88.382	0.140021
447.96	300	1.454	88.4428	0.156969
448.96	300	1.454	88.4428	0.117154
449.96	300	1.453	88.382	0.145403
450.96	300	1.454	88.4428	0.143177
451.96	300	1.453	88.382	0.100267
452.96	300	1.451	88.2603	0.140958
453.96	300	1.45	88.1995	0.0906928
454.96	300	1.452	88.3212	0.105875
455.96	300	1.451	88.2603	0.0350688
456.96	300	1.45	88.1995	0.0508992
457.96	300	1.453	88.382	0.0169403
458.96	300	1.449	88.1387	0.0270958
459.96	300	1.45	88.1995	0.0226979
460.96	300	1.453	88.382	0.0323582
461.96	300	1.448	88.0779	0.059267
462.96	300	1.445	87.8954	0.0953948
463.96	300	1.45	88.1995	0.0996394
464.96	300	1.449	88.1387	0.0834929
465.96	300	1.448	88.0779	0.0502489
466.96	300	1.447	88.017	0.0326151
467.96	300	1.445	87.8954	0.0157676
468.96	300	1.447	88.017	0.00441002
469.96	300	1.446	87.9562	0.0453057
470.96	300	1.446	87.9562	-0.00622905
471.96	300	1.446	87.9562	0.00905005
472.96	300	1.446	87.9562	-0.0109024
473.96	300	1.445	87.8954	-0.0422249
474.96	300	1.443	87.7737	-0.074728
475.96	300	1.445	87.8954	-0.0843987
476.96	300	1.444	87.8345	-0.0826006
477.96	300	1.44	87.5912	-0.0610374
478.96	300	1.443	87.7737	-0.0384246
479.96	300	1.443	87.7737	0.0485323
480.96	300	1.443	87.7737	0.103429
481.96	300	1.442	87.7129	0.11237
482.96	300	1.442	87.7129	0.0865061
483.96	300	1.443	87.7737	0.0966766
484.96	300	1.44	87.5912	0.0916132
485.96	300	1.44	87.5912	0.096723
486.96	300	1.44	87.5912	0.100856
487.96	300	1.444	87.8345	0.0586258
488.96	300	1.441	87.6521	0.0670075
489.96	300	1.437	87.4088	0.0820791
490.96	300	1.438	87.4696	0.0720312
491.96	300	1.437	87.4088	0.0135254
492.96	300	1.438	87.4696	0.0156151
493.96	300	1.439	87.5304	0.0762717
494.96	300	1.438	87.4696	0.108873
495.96	300	1.439	87.5304	0.0902593
496.96	300	1.437	87.4088	0.129507
497.96	300	1.437	87.4088	0.143694
498.96	300	1.436	87.3479	0.142921
499.96	300	1.437	87.4088	0.113681
500.96	300	1.435	87.2871	0.100425
501.96	300	1.435	87.2871	0.044274
502.96	300	1.438	87.4696	0.0524094
503.96	300	1.435	87.2871	0.0557593
504.96	300	1.436	87.3479	-0.011899
505.96	300	1.433	87.1655	-0.0158347
506.96	300	1.43	86.983	0.00756482
507.96	300	1.434	87.2263	0.0273366
508.96	300	1.434	87.2263	0.0119438
509.96	300	1.437	87.4088	-0.00578138
510.96	300	1.44	87.5912	0.0246374
511.96	300	1.426	86.7397	0.0535413
512.96	300	1.431	87.0438	0.0468709
513.96	300	1.43	86.983	0.0998901
514.96	300	1.431	87.0438	0.060192
515.96	300	1.431	87.0438	0.0299977
516.96	300	1.434	87.2263	0.0560429
517.96	300	1.428	86.8613	0.021592
518.96	300	1.43	86.983	-0.0573543
519.96	300	1.429	86.9221	-0.0841278
520.96	300	1.428	86.8613	-0.0985981
521.96	300	1.428	86.8613	-0.103699
522.96	300	1.428	86.8613	-0.0629956
523.96	300	1.429	86.9221	-0.019154
524.96	300	1.428	86.8613	0.0294619
525.96	300	1.428	86.8613	0.0786883
526.96	300	1.431	87.0438	0.0892436
527.96	300	1.427	86.8005	0.114523
528.96	300	1.427	86.8005	0.127319
529.96	300	1.426	86.7397	0.13138
530.96	300	1.426	86.7397	0.145738
531.96	300	1.426	86.7397	0.117203
532.96	300	1.424	86.618	0.132904
533.96	300	1.425	86.6788	0.0985476
534.96	300	1.428	86.8613	0.0451154
535.96	300	1.428	86.8613	-0.00793544
536.96	300	1.426	86.7397	0.0210471
537.96	300	1.424	86.618	0.0340805
538.96	300	1.425	86.6788	0.0779585
539.96	300	1.423	86.5572	0.10365
540.96	300	1.424	86.618	0.0821626
541.96	300	1.419	86.3139	0.0337315
542.96	300	1.423	86.5572	0.0275737
543.96	300	1.422	86.4964	0.0115569
544.96	300	1.421	86.4355	0.0112822
545.96	300	1.42	86.3747	0.00863518
546.96	299.99	1.42	86.3747	0.0148251
547.96	300	1.421	86.4355	0.00816802
548.96	300	1.42	86.3747	-0.019917
549.96	300	1.421	86.4355	-0.0152505
550.96	300	1.419	86.3139	-0.027347
551.96	300	1.419	86.3139	-0.0599315
552.96	300	1.418	86.253	-0.0632697
553.96	300	1.418	86.253	-0.0437771
554.96	300	1.416	86.1314	0.00644102
555.96	300	1.417	86.1922	0.0960206
556.96	300	1.417	86.1922	0.175254
557.96	300	1.417	86.1922	0.153112
558.96	300	1.419	86.3139	0.116952
559.96	300	1.419	86.3139	0.148176
560.96	300	1.415	86.0706	0.158757
561.96	300	1.421	86.4355	0.13774
562.96	300	1.415	86.0706	0.137264
563.96	300	1.415	86.0706	0.115677
564.96	300	1.415	86.0706	0.0356374
565.96	300	1.415	86.0706	0.0324823
566.96	300	1.414	86.0097	0.0321992
567.96	300	1.414	86.0097	0.0591963
568.96	300	1.413	85.9489	0.0334119
569.96	300	1.413	85.9489	0.0246761
570.96	300	1.413	85.9489	-0.00394507
571.96	300	1.413	85.9489	-0.018318
572.96	300	1.412	85.8881	-0.0650736
573.96	300	1.412	85.8881	-0.0842907
574.96	300	1.413	85.9489	-0.0889961
575.96	300	1.41	85.7664	-0.0860752
576.96	300	1.412	85.8881	-0.0423918
577.96	300	1.411	85.8273	0.012764
578.96	300	1.411	85.8273	0.0580004
579.96	300	1.411	85.8273	0.100173
580.96	300	1.41	85.7664	0.0943969
581.96	300	1.412	85.8881	0.096067
582.96	300	1.41	85.7664	0.114097
583.96	300	1.408	85.6448	0.118952
584.96	300	1.41	85.7664	0.103585
585.96	300	1.406	85.5231	0.0878666
586.96	300	1.408	85.6448	0.0683064
587.96	300	1.407	85.5839	0.0455939
588.96	300	1.409	85.7056	0.0129616
589.96	300	1.411	85.8273	-0.0315524
590.96	300	1.409	85.7056	-0.0744936
591.96	300	1.406	85.5231	-0.146773
592.96	300	1.405	85.4623	-0.150088
593.96	300	1.405	85.4623	-0.156559
594.96	300	1.405	85.4623	-0.143333
595.96	300	1.405	85.4623	-0.123114
596.96	300	1.404	85.4015	-0.104096
597.96	300	1.404	85.4015	-0.0637775
598.96	300	1.403	85.3406	-0.0356344
599.96	300	1.403	85.3406	0.0118067
600.96	300	1.402	85.2798	0.0579771
601.96	300	1.402	85.2798	0.0277794
602.96	300	1.402	85.2798	0.0065454
603.96	300	1.399	85.0973	0.0361181
604.96	300	1.403	85.3406	0.0593908
605.96	300	1.403	85.3406	0.0683037
606.96	300	1.4	85.1582	0.0628378
607.96	300	1.402	85.2798	0.0475698
608.96	300	1.398	85.0365	0.0154826
609.96	300	1.4	85.1582	0.0265913
610.96	300	1.401	85.219	-0.00124323
611.96	300	1.4	85.1582	0.0331403
612.96	300	1.399	85.0973	0.0483217
613.96	300	1.399	85.0973	0.0681161
614.96	300	1.396	84.9148	0.077896
615.96	300	1.399	85.0973	0.0885413
616.96	300	1.399	85.0973	0.0979051
617.96	300	1.398	85.0365	0.10326
618.96	300	1.398	85.0365	0.0782024
619.96	300	1.398	85.0365	0.0607587
620.96	300	1.398	85.0365	0.0729594
621.96	300	1.397	84.9757	0.0720607
622.96	300	1.398	85.0365	0.051616
623.96	300	1.399	85.0973	0.0698407
624.96	300	1.396	84.9148	0.0747471
625.96	300	1.396	84.9148	0.0401675
626.96	300	1.396	84.9148	0.00616359
627.96	300	1.395	84.854	-0.0279751
628.96	300	1.399	85.0973	-0.0346041
629.96	300	1.397	84.9757	-0.0769698
630.96	300	1.392	84.6715	-0.117541
631.96	300	1.394	84.7932	-0.108555
632.96	300	1.393	84.7324	-0.114227
633.96	300	1.393	84.7324	-0.12834
634.96	300	1.391	84.6107	-0.130943
635.96	300	1.393	84.7324	-0.120799
636.96	300	1.393	84.7324	-0.131907
637.96	300	1.393	84.7324	-0.108467
638.96	300	1.389	84.4891	-0.10142
639.96	300	1.391	84.6107	-0.0907458
640.96	300	1.391	84.6107	-0.068816
641.96	300.01	1.391	84.6107	-0.0165018
642.96	300	1.391	84.6107	0.0127041
643.96	300	1.39	84.5499	0.0213701
644.96	300	1.39	84.5499	0.0428384
645.96	300	1.39	84.5499	0.0726027
646.96	300	1.39	84.5499	0.107404
647.96	300	1.389	84.4891	0.090465
648.96	300	1.39	84.5499	0.0568765
649.96	300	1.39	84.5499	0.0475547
650.96	300	1.39	84.5499	0.0542881
651.96	300	1.389	84.4891	0.0525839
652.96	300	1.391	84.6107	0.0543002
653.96	300	1.39	84.5499	0.0488106
654.96	300	1.389	84.4891	0.0449754
655.96	300	1.391	84.6107	0.0413566
656.96	300	1.389	84.4891	0.0351725
657.96	300	1.389	84.4891	0.0114875
658.96	300	1.385	84.2457	0.0185524
659.96	300	1.388	84.4282	0.0132922
660.96	300	1.389	84.4891	-0.00806191
661.96	300	1.389	84.4891	-0.0438339
662.96	300	1.385	84.2457	-0.0636299
663.96	300	1.387	84.3674	-0.0827568
664.96	300	1.388	84.4282	-0.0784175
665.96	300	1.388	84.4282	-0.086472
666.96	300	1.388	84.4282	-0.0853449
667.96	300	1.388	84.4282	-0.1004
668.96	300	1.387	84.3674	-0.105502
669.96	300	1.386	84.3066	-0.115996
670.96	300	1.386	84.3066	-0.100368
671.96	300	1.383	84.1241	-0.0739306
672.96	300	1.383	84.1241	-0.0605118
673.96	300	1.385	84.2457	-0.0200412
674.96	300	1.385	84.2457	0.0100139
675.96	300	1.384	84.1849	0.116416
676.96	300	1.384	84.1849	0.157451
677.96	300	1.378	83.82	0.146505
678.96	300	1.384	84.1849	0.147284
679.96	300	1.382	84.0633	0.129847
680.96	300	1.384	84.1849	0.129546
681.96	300	1.38	83.9416	0.128045
682.96	300	1.381	84.0024	0.11837
683.96	300	1.382	84.0633	0.086441
684.96	300	1.383	84.1241	0.0601278
685.96	300	1.383	84.1241	0.0554602
686.96	300	1.379	83.8808	-0.000159018
687.96	300	1.381	84.0024	-0.00781619
688.96	300	1.383	84.1241	0.0734376
689.96	300	1.382	84.0633	0.0978079
690.96	300	1.382	84.0633	0.0810482
691.96	300	1.383	84.1241	0.0939817
692.96	300	1.382	84.0633	0.0991381
693.96	300	1.381	84.0024	0.104834
694.96	300	1.382	84.0633	0.104578
695.96	300	1.381	84.0024	0.110441
696.96	300	1.378	83.82	0.106964
697.96	300	1.383	84.1241	0.0916506
698.96	300	1.381	84.0024	0.0649662
699.96	300	1.381	84.0024	0.0374714
700.96	300	1.383	84.1241	0.0117604
701.96	300	1.379	83.8808	-0.019871
702.96	300	1.38	83.9416	-0.0517429
703.96	300	1.377	83.7591	-0.0778445
704.96	300	1.379	83.8808	-0.107595
705.96	300	1.377	83.7591	-0.120273
706.96	300	1.379	83.8808	-0.125607
707.96	300	1.377	83.7591	-0.132426
708.96	300	1.378	83.82	-0.146157
709.96	300	1.379	83.8808	-0.161864
710.96	300	1.379	83.8808	-0.151669
711.96	300	1.378	83.82	-0.148768
712.96	300	1.376	83.6983	-0.166883
713.96	300	1.376	83.6983	-0.141291
714.96	300	1.375	83.6375	-0.0979966
715.96	300	1.375	83.6375	-0.0998431
716.96	300	1.374	83.5766	-0.091113
717.96	300	1.373	83.5158	-0.000574213
718.96	300	1.374	83.5766	0.062575
719.96	300	1.375	83.6375	0.112354
720.96	300	1.371	83.3942	0.144463
721.96	300	1.372	83.455	0.101347
722.96	300	1.374	83.5766	0.134939
723.96	300	1.373	83.5158	0.16361
724.96	300	1.371	83.3942	0.161362
725.96	300	1.371	83.3942	0.1364
726.96	300	1.37	83.3333	0.10397
727.96	300	1.371	83.3942	0.0996467
728.96	300	1.373	83.5158	0.0804296
729.96	300	1.37	83.3333	0.0851515
730.96	300	1.368	83.2117	0.0768661
731.96	300	1.372	83.455	0.0847188
732.96	300	1.368	83.2117	0.0924835
733.96	300	1.372	83.455	0.0974804
734.96	300	1.372	83.455	0.10222
735.96	300	1.375	83.6375	0.0988571
736.96	300	1.367	83.1509	0.0939662
737.96	300	1.369	83.2725	0.0785876
738.96	300	1.369	83.2725	0.0735748
739.96	300	1.37	83.3333	0.0751764
740.96	300	1.369	83.2725	0.0341493
741.96	300	1.369	83.2725	-0.00563552
742.96	300	1.37	83.3333	-0.00149195
743.96	300	1.37	83.3333	0.00934935
744.96	300	1.364	82.9684	-0.0450569
745.96	300	1.368	83.2117	-0.0953226
746.96	300	1.367	83.1509	-0.137482
747.96	300	1.365	83.0292	-0.124893
748.96	300	1.366	83.09	-0.145227
749.96	300	1.366	83.09	-0.148359
750.96	300	1.365	83.0292	-0.158413
751.96	300	1.368	83.2117	-0.145831
752.96	300	1.361	82.7859	-0.139711
753.96	300	1.364	82.9684	-0.132409
754.96	300	1.365	83.0292	-0.119857
755.96	300	1.367	83.1509	-0.118197
756.96	300	1.363	82.9075	-0.0985281
757.96	300	1.363	82.9075	-0.0887603
758.96	300	1.362	82.8467	-0.0837695
759.96	300	1.364	82.9684	-0.0412235
760.96	300	1.363	82.9075	-0.0673391
761.96	300	1.36	82.7251	-0.0447774
762.96	300	1.361	82.7859	0.0578148
763.96	300	1.36	82.7251	0.129244
764.96	300	1.359	82.6642	0.11495
765.96	300	1.36	82.7251	0.0900033
766.96	300	1.36	82.7251	0.103364
767.96	300	1.358	82.6034	0.0828389
768.96	300	1.359	82.6642	0.0481376
769.96	300	1.36	82.7251	0.0684092
770.96	300	1.36	82.7251	0.10884
771.96	300	1.357	82.5426	0.118559
772.96	300	1.359	82.6642	0.107787
773.96	300	1.358	82.6034	0.131948
774.96	300	1.357	82.5426	0.152961
775.96	300	1.357	82.5426	0.154512
776.96	300	1.359	82.6642	0.159593
777.96	300	1.356	82.4818	0.15328
778.96	300	1.355	82.4209	0.150816
779.96	300	1.356	82.4818	0.15164
780.96	300	1.355	82.4209	0.153991
781.96	300	1.356	82.4818	0.149058
782.96	300	1.355	82.4209	0.136038
783.96	300	1.357	82.5426	0.120481
784.96	300	1.355	82.4209	0.0977161
785.96	300	1.355	82.4209	0.0626545
786.96	300	1.354	82.3601	0.0146136
787.96	300	1.354	82.3601	-0.0129384
788.96	300	1.355	82.4209	-0.0600164
789.96	300	1.355	82.4209	-0.120788
790.96	300	1.354	82.3601	-0.13066
791.96	300	1.353	82.2993	-0.146857
792.96	300	1.354	82.3601	-0.151869
793.96	300	1.352	82.2384	-0.187233
794.96	300	1.354	82.3601	-0.178914
795.96	300	1.352	82.2384	-0.157517
796.96	300	1.35	82.1168	-0.0993805
797.96	300	1.352	82.2384	-0.0352498
798.96	300	1.352	82.2384	0.0183186
799.96	300	1.35	82.1168	0.0417542
800.96	300	1.35	82.1168	0.0341713
801.96	300	1.348	81.9951	0.0401668
802.96	300	1.349	82.056	0.0405829
803.96	300	1.347	81.9343	0.0656857
804.96	300	1.348	81.9951	0.117838
805.96	300	1.349	82.056	0.115934
806.96	300	1.351	82.1776	0.0393273
807.96	300	1.349	82.056	-0.0329664
808.96	300	1.35	82.1168	-0.0534618
809.96	300	1.347	81.9343	-0.0517643
810.96	300	1.349	82.056	-0.0501227
811.96	300	1.347	81.9343	-0.0459106
812.96	300	1.348	81.9951	-0.016238
813.96	300	1.347	81.9343	0.0351465
814.96	300	1.347	81.9343	0.0668319
815.96	300	1.348	81.9951	0.077584
816.96	300	1.347	81.9343	0.0828004
817.96	300	1.348	81.9951	0.0782925
818.96	300	1.344	81.7518	0.0721094
819.96	300	1.345	81.8127	0.0712302
820.96	300	1.344	81.7518	0.0708078
821.96	300	1.344	81.7518	0.0773705
822.96	300	1.345	81.8127	0.0783006
823.96	300	1.344	81.7518	0.0854691
824.96	300	1.345	81.8127	0.113175
825.96	300	1.345	81.8127	0.078705
826.96	300	1.345	81.8127	0.0288182
827.96	300	1.344	81.7518	-0.0449571
828.96	300	1.346	81.8735	-0.0763144
829.96	300	1.344	81.7518	-0.10439
830.96	300	1.343	81.691	-0.123425
831.96	300	1.344	81.7518	-0.138264
832.96	300	1.345	81.8127	-0.150603
833.96	300	1.344	81.7518	-0.157502
834.96	300	1.343	81.691	-0.165544
835.96	300	1.341	81.5693	-0.15698
836.96	300	1.341	81.5693	-0.136192
837.96	300	1.34	81.5085	-0.132485
838.96	300	1.34	81.5085	-0.107574
839.96	300	1.34	81.5085	-0.0792958
840.96	300	1.338	81.3869	-0.0487654
841.96	300	1.336	81.2652	0.0134711
842.96	300	1.338	81.3869	0.0643594
843.96	300	1.342	81.6302	0.0829864
844.96	300	1.338	81.3869	0.101833
845.96	300	1.338	81.3869	0.121387
846.96	300	1.337	81.326	0.10401
847.96	300	1.337	81.326	0.0916247
848.96	300	1.338	81.3869	0.0827155
849.96	300	1.337	81.326	0.065211
850.96	300	1.338	81.3869	0.0772518
851.96	300	1.338	81.3869	0.0827034
852.96	300	1.334	81.1436	0.0782428
853.96	300	1.335	81.2044	0.0705589
854.96	300	1.335	81.2044	0.0282293
855.96	300	1.336	81.2652	0.00400102
856.96	300	1.335	81.2044	-0.0225941
857.96	300	1.336	81.2652	-0.0383497
858.96	300	1.334	81.1436	-0.0127223
859.96	300	1.334	81.1436	0.0420773
860.96	300	1.334	81.1436	0.0141982
861.96	300	1.334	81.1436	0.00640541
862.96	300	1.333	81.0827	0.00821555
863.96	300	1.333	81.0827	-0.01817
864.96	300	1.333	81.0827	-0.00691485
865.96	300	1.332	81.0219	-0.0385433
866.96	300	1.332	81.0219	-0.00472802
867.96	300	1.334	81.1436	0.046601
868.96	300	1.33	80.9002	0.0033266
869.96	300	1.331	80.9611	-0.0189059
870.96	300	1.33	80.9002	-0.0820866
871.96	300	1.33	80.9002	-0.138943
872.96	300	1.33	80.9002	-0.171883
873.96	300	1.327	80.7178	-0.174781
874.96	300	1.328	80.7786	-0.166902
875.96	300	1.328	80.7786	-0.134086
876.96	300	1.328	80.7786	-0.130658
877.96	300	1.325	80.5961	-0.0917559
878.96	300	1.326	80.6569	-0.0804213
879.96	300	1.327	80.7178	-0.0598039
880.96	300	1.326	80.6569	-0.0220087
881.96	300	1.329	80.8394	0.0194118
882.96	300	1.323	80.4745	0.0404646
883.96	300	1.324	80.5353	0.0907044
884.96	300	1.326	80.6569	0.127168
885.96	300	1.325	80.5961	0.136952
886.96	300	1.325	80.5961	0.0984471
887.96	300	1.324	80.5353	0.0674815
888.96	300	1.323	80.4745	0.0699357
889.96	300	1.323	80.4745	0.0760652
890.96	300	1.324	80.5353	0.0633848
891.96	300	1.323	80.4745	0.0418218
892.96	300	1.323	80.4745	0.045396
893.96	300	1.322	80.4136	0.0532394
894.96	300	1.323	80.4745	0.0575908
895.96	300	1.321	80.3528	0.0427136
896.96	300	1.324	80.5353	0.0284799
897.96	300	1.325	80.5961	0.0355232
898.96	300	1.321	80.3528	0.0359854
899.96	300	1.322	80.4136	0.0310593
900.96	300	1.32	80.292	0.0205888
901.96	300	1.322	80.4136	0.027382
902.96	300	1.321	80.3528	-0.00381791
903.96	300	1.321	80.3528	-0.0231524
904.96	300	1.322	80.4136	-0.0679211
905.96	300	1.32	80.292	-0.0849624
906.96	300	1.322	80.4136	-0.110323
907.96	300	1.321	80.3528	-0.11825
908.96	300	1.32	80.292	-0.0963571
909.96	300	1.32	80.292	-0.0892529
910.96	300	1.318	80.1703	-0.0949353
911.96	300	1.318	80.1703	-0.116624
912.96	300	1.317	80.1095	-0.146669
913.96	300	1.317	80.1095	-0.175918
914.96	300	1.318	80.1703	-0.180378
915.96	300	1.317	80.1095	-0.184705
916.96	300	1.316	80.0487	-0.17349
917.96	300	1.315	79.9878	-0.158707
918.96	300	1.315	79.9878	-0.113475
919.96	300	1.312	79.8054	-0.0492482
920.96	300	1.316	80.0487	0.0437153
921.96	300	1.315	79.9878	0.136737
922.96	300	1.314	79.927	0.13915
923.96	300	1.315	79.9878	0.0946042
924.96	300	1.316	80.0487	0.0629859
925.96	300	1.312	79.8054	0.0442824
926.96	300	1.313	79.8662	0.0979875
927.96	300	1.313	79.8662	0.0930431
928.96	300	1.312	79.8054	0.0996951
929.96	300	1.314	79.927	0.108231
930.96	300	1.314	79.927	0.106155
931.96	300	1.312	79.8054	0.115799
932.96	300	1.312	79.8054	0.10022
933.96	300	1.311	79.7445	0.0861685
934.96	300	1.311	79.7445	0.0779018
935.96	300	1.31	79.6837	0.055004
936.96	300	1.309	79.6229	0.0645607
937.96	300	1.31	79.6837	0.0862102
938.96	300	1.311	79.7445	0.0855218
939.96	300	1.31	79.6837	0.078485
940.96	300	1.312	79.8054	0.0718899
941.96	300	1.308	79.562	0.0607332
942.96	300	1.309	79.6229	0.0547288
943.96	300	1.312	79.8054	0.0437902
944.96	300	1.31	79.6837	0.0395386
945.96	300	1.31	79.6837	0.0727896
946.96	300	1.309	79.6229	0.100261
947.96	300	1.311	79.7445	0.128162
948.96	300	1.307	79.5012	0.153925
949.96	300	1.312	79.8054	0.129621
950.96	300	1.307	79.5012	0.0856082
951.96	300	1.305	79.3796	0.0288448
952.96	300	1.307	79.5012	-0.0501901
953.96	300	1.305	79.3796	-0.0931078
954.96	300	1.304	79.3187	-0.0963937
955.96	300	1.306	79.4404	-0.108566
956.96	300	1.306	79.4404	-0.0890002
957.96	300	1.305	79.3796	-0.0799559
958.96	300	1.305	79.3796	-0.0730592
959.96	300	1.305	79.3796	-0.0843598
960.96	300	1.305	79.3796	-0.0970177
961.96	300	1.301	79.1363	-0.0902239
962.96	300	1.305	79.3796	-0.105779
963.96	300	1.302	79.1971	-0.120071
964.96	300	1.304	79.3187	-0.0825377
965.96	300	1.303	79.2579	-0.0423398
966.96	300	1.303	79.2579	-0.00246667
967.96	300	1.301	79.1363	0.0278284
968.96	300	1.304	79.3187	0.0355282
969.96	300	1.304	79.3187	0.0143596
970.96	300	1.303	79.2579	0.0138102
971.96	300	1.302	79.1971	0.0149996
972.96	300	1.303	79.2579	0.0155152
973.96	300	1.304	79.3187	0.0525787
974.96	300	1.303	79.2579	0.0632457
975.96	300	1.301	79.1363	0.0841535
976.96	300	1.3	79.0754	0.0864654
977.96	300	1.3	79.0754	0.0746098
978.96	300	1.299	79.0146	0.0638725
979.96	300	1.3	79.0754	0.0662955
980.96	300	1.301	79.1363	0.0617052
981.96	300	1.3	79.0754	0.0525152
982.96	300	1.299	79.0146	0.0357139
983.96	300	1.299	79.0146	0.0502592
984.96	300	1.298	78.9538	0.0526651
985.96	300	1.298	78.9538	0.0404715
986.96	300	1.298	78.9538	0.0322416
987.96	300	1.297	78.8929	0.0532261
988.96	300	1.298	78.9538	0.0317658
989.96	300	1.297	78.8929	0.0217051
990.96	300	1.296	78.8321	-0.0448783
991.96	300	1.297	78.8929	-0.133164
992.96	300	1.297	78.8929	-0.165262
993.96	300	1.299	79.0146	-0.178159
994.96	300	1.294	78.7105	-0.171782
995.96	300	1.296	78.8321	-0.164818
996.96	300	1.295	78.7713	-0.14827
997.96	300	1.294	78.7105	-0.110071
998.96	300	1.294	78.7105	-0.123097
999.96	300	1.295	78.7713	-0.163642
1000.96	300	1.294	78.7105	-0.16776
1001.96	300	1.294	78.7105	-0.173706
1002.96	300	1.295	78.7713	-0.153104
1003.96	300	1.29	78.4672	-0.0891363
1004.96	300	1.293	78.6496	-0.000499086
1005.96	300	1.292	78.5888	0.0262604
1006.96	300	1.29	78.4672	0.0710854
1007.96	300	1.29	78.4672	0.0774518
1008.96	300	1.291	78.528	0.0308828
1009.96	300	1.29	78.4672	0.0106748
1010.96	300	1.29	78.4672	0.00218315
1011.96	300	1.289	78.4063	-0.0101454
1012.96	300	1.284	78.1022	0.0052875
1013.96	300	1.29	78.4672	0.0279002
1014.96	300	1.289	78.4063	0.0620665
1015.96	300	1.29	78.4672	0.0631226
1016.96	300	1.285	78.163	0.0652152
1017.96	300	1.286	78.2238	0.0398551
1018.96	300	1.286	78.2238	0.030895
1019.96	300	1.287	78.2847	0.0293557
1020.96	300	1.288	78.3455	0.0514463
1021.96	300	1.288	78.3455	0.0658118
1022.96	300	1.286	78.2238	0.0623768
1023.96	300	1.287	78.2847	0.0762953
1024.96	300	1.285	78.163	0.0810571
1025.96	300	1.287	78.2847	0.0729533
1026.96	300	1.29	78.4672	0.0973897
1027.96	300	1.287	78.2847	0.109792
1028.96	300	1.284	78.1022	0.12365
1029.96	300	1.285	78.163	0.103041
1030.96	300	1.286	78.2238	0.154786
1031.96	300	1.285	78.163	0.170955
1032.96	300	1.285	78.163	0.145706
1033.96	300	1.286	78.2238	0.185411
1034.96	300	1.283	78.0414	0.121234
1035.96	300	1.286	78.2238	0.0770437
1036.96	300	1.286	78.2238	0.00325108
1037.96	300	1.285	78.163	-0.0393174
1038.96	300	1.283	78.0414	-0.146623
1039.96	300	1.281	77.9197	-0.216086
1040.96	300	1.283	78.0414	-0.250682
1041.96	300	1.282	77.9805	-0.260025
1042.96	300	1.279	77.7981	-0.240404
1043.96	300	1.28	77.8589	-0.248957
1044.96	300	1.28	77.8589	-0.194251
1045.96	300	1.28	77.8589	-0.186469
1046.96	300	1.282	77.9805	-0.167805
1047.96	300	1.279	77.7981	-0.141243
1048.96	300	1.279	77.7981	-0.0881122
1049.96	300	1.28	77.8589	-0.00212511
1050.96	300	1.277	77.6764	0.0895092
1051.96	300	1.279	77.7981	0.100334
1052.96	300	1.283	78.0414	0.144936
1053.96	300	1.276	77.6156	0.107471
1054.96	300	1.278	77.7372	0.066611
1055.96	300	1.276	77.6156	0.0188186
1056.96	300	1.277	77.6764	-0.0203379
1057.96	300	1.276	77.6156	-0.042823
1058.96	300	1.275	77.5547	-0.0267808
1059.96	300	1.275	77.5547	0.00192817
1060.96	300	1.273	77.4331	0.013744
1061.96	300	1.276	77.6156	-0.0050754
1062.96	300	1.271	77.3114	0.00816679
1063.96	300	1.274	77.4939	0.0121706
1064.96	300	1.273	77.4331	0.018617
1065.96	300	1.272	77.3723	0.0288722
1066.96	300	1.274	77.4939	0.0501661
1067.96	300	1.273	77.4331	0.0540151
1068.96	300	1.274	77.4939	0.0530488
1069.96	300	1.274	77.4939	0.0589981
1070.96	300	1.271	77.3114	0.0631312
1071.96	300	1.276	77.6156	0.0768509
1072.96	300	1.273	77.4331	0.0865928
1073.96	300	1.273	77.4331	0.092489
1074.96	300	1.272	77.3723	0.144556
1075.96	300	1.273	77.4331	0.169488
1076.96	300	1.27	77.2506	0.163878
1077.96	300	1.272	77.3723	0.122051
1078.96	300	1.27	77.2506	0.0799375
1079.96	300	1.272	77.3723	-0.0115761
1080.96	300	1.271	77.3114	-0.0996857
1081.96	300	1.271	77.3114	-0.159035
1082.96	300	1.27	77.2506	-0.226315
1083.96	300	1.269	77.1898	-0.23592
1084.96	300	1.268	77.129	-0.234259
1085.96	300	1.268	77.129	-0.242979
1086.96	300	1.268	77.129	-0.244544
1087.96	300	1.268	77.129	-0.242655
1088.96	300	1.267	77.0681	-0.210614
1089.96	300	1.267	77.0681	-0.200695
1090.96	300	1.267	77.0681	-0.204514
1091.96	300	1.265	76.9465	-0.172417
1092.96	300	1.268	77.129	-0.100195
1093.96	300	1.265	76.9465	-0.0289246
1094.96	300	1.267	77.0681	0.0268766
1095.96	300	1.263	76.8248	0.0619267
1096.96	300	1.265	76.9465	0.0864927
1097.96	300	1.263	76.8248	0.0945691
1098.96	300	1.262	76.764	0.0953112
1099.96	300	1.264	76.8856	0.117057
1100.96	300	1.262	76.764	0.123443
1101.96	300	1.263	76.8248	0.115727
1102.96	300	1.261	76.7032	0.106938
1103.96	300	1.263	76.8248	0.107485
1104.96	300	1.261	76.7032	0.110289
1105.96	300	1.261	76.7032	0.0922473
1106.96	300	1.261	76.7032	0.0833669
1107.96	300	1.26	76.6423	0.013522
1108.96	300	1.261	76.7032	-0.0319509
1109.96	300	1.257	76.4599	-0.0572543
1110.96	300	1.263	76.8248	-0.0900344
1111.96	300	1.26	76.6423	-0.102385
1112.96	300	1.26	76.6423	-0.112543
1113.96	300	1.259	76.5815	-0.109178
1114.96	300	1.258	76.5207	-0.111783
1115.96	300	1.257	76.4599	-0.116258
1116.96	300	1.256	76.399	-0.114397
1117.96	300	1.258	76.5207	-0.114169
1118.96	300	1.255	76.3382	-0.125022
1119.96	300	1.257	76.4599	-0.132639
1120.96	300	1.257	76.4599	-0.111455
1121.96	300	1.256	76.399	-0.0601873
1122.96	300	1.256	76.399	-0.00884997
1123.96	300	1.255	76.3382	0.0682315
1124.96	300	1.256	76.399	0.0254622
1125.96	300	1.254	76.2774	0.0567132
1126.96	300	1.256	76.399	0.0985542
1127.96	300	1.254	76.2774	0.0799399
1128.96	300	1.255	76.3382	0.0406695
1129.96	300	1.254	76.2774	0.0335742
1130.96	300	1.254	76.2774	0.060985
1131.96	300	1.254	76.2774	0.0709629
1132.96	300	1.252	76.1557	0.0596898
1133.96	300	1.256	76.399	0.0605875
1134.96	300	1.253	76.2165	0.058701
1135.96	300	1.254	76.2774	0.0329716
1136.96	300	1.251	76.0949	0.0194023
1137.96	300	1.253	76.2165	0.0178466
1138.96	300	1.254	76.2774	0.0169928
1139.96	300	1.254	76.2774	0.00971435
1140.96	300	1.253	76.2165	0.00111646
1141.96	300	1.253	76.2165	-0.0343095
1142.96	300	1.252	76.1557	-0.0611854
1143.96	300	1.252	76.1557	-0.0734935
1144.96	300	1.25	76.0341	-0.103792
1145.96	300	1.254	76.2774	-0.110172
1146.96	300	1.249	75.9732	-0.0507533
1147.96	300	1.25	76.0341	-0.0101195
1148.96	300	1.253	76.2165	0.0298939
1149.96	300	1.247	75.8516	0.0697654
1150.96	300	1.25	76.0341	0.0932597
1151.96	300	1.25	76.0341	0.0934507
1152.96	300	1.249	75.9732	0.0894748
1153.96	300	1.249	75.9732	0.0730485
1154.96	300	1.247	75.8516	0.0366605
1155.96	300	1.248	75.9124	0.00450677
1156.96	300	1.248	75.9124	-0.0193051
1157.96	300	1.247	75.8516	-0.0175055
1158.96	300	1.246	75.7908	-0.0290051
1159.96	300	1.247	75.8516	-0.0453358
1160.96	300	1.246	75.7908	-0.0705003
1161.96	300	1.247	75.8516	-0.0887997
1162.96	300	1.246	75.7908	-0.0880129
1163.96	300	1.247	75.8516	-0.0862145
1164.96	300	1.246	75.7908	-0.069943
1165.96	300	1.242	75.5474	-0.00774101
1166.96	300	1.243	75.6083	0.0230428
1167.96	300	1.249	75.9732	0.0691724
1168.96	300	1.246	75.7908	0.124891
1169.96	300	1.243	75.6083	0.162256
1170.96	300	1.243	75.6083	0.154633
1171.96	300	1.242	75.5474	0.148645
1172.96	300	1.24	75.4258	0.138944
1173.96	300	1.244	75.6691	0.0981427
1174.96	300	1.242	75.5474	0.0852667
1175.96	300	1.243	75.6083	0.0846063
1176.96	300	1.242	75.5474	0.140205
1177.96	300	1.241	75.4866	0.1503
1178.96	300	1.242	75.5474	0.149431
1179.96	300	1.242	75.5474	0.117785
1180.96	300	1.24	75.4258	0.0998093
1181.96	300	1.242	75.5474	0.0920463
1182.96	300	1.239	75.365	0.0121763
1183.96	300	1.24	75.4258	-0.0281683
1184.96	300	1.24	75.4258	-0.029879
1185.96	300	1.24	75.4258	0.0100677
1186.96	300	1.24	75.4258	0.0349329
1187.96	300	1.24	75.4258	0.0596168
1188.96	300	1.24	75.4258	0.0669033
1189.96	300	1.238	75.3041	0.0683818
1190.96	300	1.239	75.365	0.0711984
1191.96	300	1.238	75.3041	0.0647528
1192.96	300	1.238	75.3041	0.0631305
1193.96	300	1.24	75.4258	0.0511605
1194.96	300	1.237	75.2433	0.0575772
1195.96	300	1.237	75.2433	0.0571148
1196.96	300	1.238	75.3041	0.0376221
1197.96	300	1.236	75.1825	0.00888092
1198.96	300	1.238	75.3041	-0.0235402
1199.96	300	1.236	75.1825	-0.0666207
1200.96	300	1.236	75.1825	-0.100634
1201.96	300	1.237	75.2433	-0.102268
1202.96	300	1.236	75.1825	-0.115131
1203.96	300	1.237	75.2433	-0.113948
1204.96	300	1.235	75.1217	-0.119738
1205.96	300	1.236	75.1825	-0.107145
1206.96	300	1.234	75.0608	-0.0934801
1207.96	300	1.232	74.9392	-0.0802005
1208.96	300	1.233	75	-0.0172918
1209.96	300	1.234	75.0608	0.0409935
1210.96	300	1.236	75.1825	0.0327006
1211.96	300	1.236	75.1825	0.0400122
1212.96	300	1.234	75.0608	0.0842806
1213.96	300	1.231	74.8783	0.0478929
1214.96	300	1.231	74.8783	-0.0149028
1215.96	300	1.233	75	-0.0520235
1216.96	300	1.23	74.8175	-0.0236628
1217.96	300	1.23	74.8175	-0.00645945
1218.96	300	1.232	74.9392	0.0347641
1219.96	300	1.23	74.8175	-0.00494353
1220.96	300	1.23	74.8175	-0.0730519
1221.96	300	1.229	74.7567	-0.0563297
1222.96	300	1.227	74.635	-0.0168777
1223.96	300	1.228	74.6959	0.0106822
1224.96	300	1.23	74.8175	0.0240316
1225.96	300	1.229	74.7567	0.115318
1226.96	300	1.229	74.7567	0.126373
1227.96	300	1.23	74.8175	0.131899
1228.96	300	1.229	74.7567	0.138525
1229.96	300	1.229	74.7567	0.144486
1230.96	300	1.228	74.6959	0.151329
1231.96	300	1.23	74.8175	0.178406
1232.96	300	1.229	74.7567	0.174253
1233.96	300	1.226	74.5742	0.171907
1234.96	300	1.227	74.635	0.137066
1235.96	300	1.227	74.635	0.0862449
1236.96	300	1.226	74.5742	0.00809516
1237.96	300	1.227	74.635	-0.0290758
1238.96	300	1.226	74.5742	-0.0559936
1239.96	300	1.227	74.635	-0.0654639
1240.96	300	1.228	74.6959	-0.0427709
1241.96	300	1.226	74.5742	-0.0936609
1242.96	300	1.228	74.6959	-0.103717
1243.96	300	1.223	74.3917	-0.168023
1244.96	300	1.224	74.4526	-0.158815
1245.96	300	1.223	74.3917	-0.160754
1246.96	300	1.225	74.5134	-0.146831
1247.96	300	1.225	74.5134	-0.149408
1248.96	300	1.224	74.4526	-0.0489708
1249.96	300	1.222	74.3309	-0.0109826
1250.96	300	1.223	74.3917	0.0201162
1251.96	300	1.221	74.2701	0.0174137
1252.96	300	1.219	74.1484	-0.00233355
1253.96	300	1.225	74.5134	0.011774
1254.96	300	1.225	74.5134	0.0363144
1255.96	300	1.226	74.5742	0.102499
1256.96	300	1.228	74.6959	-3.42918E-05
1257.96	300	1.221	74.2701	-3.13364E-05
1258.96	300	1.22	74.2092	-1.00807E-05
1259.96	300	1.22	74.2092	-2.03931E-05
1260.96	300	1.223	74.3917	-2.46783E-05
1261.96	300	1.218	74.0876	-2.46485E-05
1262.96	300	1.218	74.0876	-3.67443E-05
1263.96	300	1.218	74.0876	-5.84034E-05
1264.96	300.11	1.221	74.2701	-8.39707E-05
1265.96	303.58	1.221	74.2701	-0.000125735
1266.96	311.44	1.222	74.3309	-0.000191566
1267.96	320.51	1.219	74.1484	-0.000295909
1268.96	329.77	1.216	73.9659	-0.000455727
1269.96	339.25	1.218	74.0876	-0.00068798
1270.96	349.04	1.21	73.601	-0.000990037
1271.96	359.09	1.199	72.9319	-0.00131651
1272.96	369.26	1.185	72.0803	-0.00161739
1273.96	379.47	1.153	70.1338	-0.00187672
1274.96	389.65	1.099	66.8491	-0.00208794
1275.96	399.78	1.005	61.1314	-0.00223512
1276.96	409.86	0.851	51.764	-0.00231721
1277.96	419.91	0.625	38.017	-0.00233324
1278.96	429.94	0.353	21.472	-0.00228271
1279.96	439.96	0.141	8.57664	-0.00216653
1280.96	449.98	0.045	2.73723	-0.00198557
1281.96	460	0.017	1.03406	-0.00174197
1282.96	470.03	0.009	0.547445	-0.00144665
1283.96	480.07	0.01	0.608273	-0.00111335
1284.96	490.1	0.008	0.486618	-0.000768626
1285.96	500.15	0.01	0.608273	-0.000450786
1286.96	510.18	0.009	0.547445	-0.000207276
1287.96	520.21	0.01	0.608273	-6.86225E-05
1288.96	530.23	0.009	0.547445	-1.46326E-05
1289.96	540.25	0.012	0.729927	3.54982E-07
1290.96	550.28	0.01	0.608273	3.25107E-06
1291.96	560.31	0.013	0.790754	4.2695E-06
1292.96	570.33	0.01	0.608273	4.77505E-06
1293.96	580.35	0.01	0.608273	6.01997E-06
1294.96	590.37	0.009	0.547445	6.0865E-06
1295.96	600.39	0.011	0.6691	0.000007456
1296.96	610.41	0.011	0.6691	8.14834E-06
1297.96	620.43	0.014	0.851582	9.21641E-06
1298.96	630.45	0.013	0.790754	9.15137E-06
1299.96	640.47	0.011	0.6691	1.08782E-05
1300.96	650.49	0.004	0.243309	1.23091E-05
1301.96	660.51	0.015	0.912409	0.000013501
1302.96	670.52	0.011	0.6691	1.52095E-05
1303.96	680.54	0.015	0.912409	1.73337E-05
1304.96	690.56	0.014	0.851582	0.000018661
1305.96	700.57	0.018	1.09489	1.90293E-05
1306.96	710.59	0.017	1.03406	1.92093E-05
1307.96	720.6	0.023	1.39903	1.96135E-05
1308.96	730.62	0.017	1.03406	2.07006E-05
1309.96	740.63	0.021	1.27737	1.93485E-05
1310.96	750.64	0.021	1.27737	2.19871E-05
1311.96	760.66	0.025	1.52068	2.04272E-05
1312.96	770.67	0.023	1.39903	2.17021E-05
1313.96	780.68	0.024	1.45985	2.03863E-05
1314.54	786.52			0.000021602