File: data/TGA/005d-L_M/L4.txt
Filename	L4
Instrument name
Operator	Galyna
rundate	2025-02-24
Sample name	L4
[step]
Step 1
Time	Temperature	Weight	Weight	Deriv. Weight
min	°C	mg	%	% / °C
0.01	26.54	432.332	99.999	-4.21825e-5
1.04	27.93	432.329	99.998	-3.92794e-5
2.13	29.91	432.327	99.998	-3.36846e-5
3.21	33.68	432.330	99.998	-2.96849e-5
4.29	38.79	432.328	99.998	-3.19106e-5
5.38	44.39	432.326	99.998	-3.19106e-5
6.46	49.89	432.328	99.998	-3.02346e-5
7.54	55.11	432.322	99.997	-2.98838e-5
8.63	60.15	432.328	99.998	-3.15623e-5
9.71	65.18	432.319	99.996	-3.54927e-5
10.79	70.32	432.321	99.996	-3.72957e-5
11.88	75.61	432.323	99.997	-4.26920e-5
12.96	81.04	432.323	99.997	-4.60519e-5
14.04	86.53	432.323	99.997	-5.18913e-5
15.13	92.06	432.324	99.997	-5.89900e-5
16.21	97.40	432.321	99.996	-6.64207e-5
17.29	101.12	432.320	99.996	-8.39672e-5
18.38	102.77	432.318	99.996	-9.49760e-5
19.46	103.03	432.317	99.995	-9.82198e-5
20.54	102.59	432.313	99.994	-1.17015e-4
21.63	101.90	432.312	99.994	-1.17976e-4
22.71	101.18	432.312	99.994	-8.41404e-5
23.79	100.54	432.310	99.994	-4.81770e-5
24.88	100.04	432.307	99.993	-2.99647e-5
25.96	100.61	432.311	99.994	-2.41820e-5
27.04	103.68	432.310	99.994	-2.01870e-5
28.13	108.48	432.310	99.994	-1.69874e-5
29.21	113.76	432.308	99.993	-1.57806e-5
30.29	118.95	432.312	99.994	-1.51217e-5
31.38	124.05	432.310	99.994	-1.58868e-5
32.46	129.21	432.309	99.994	-1.71612e-5
33.54	134.48	432.309	99.993	-1.96074e-5
34.63	139.86	432.308	99.993	-2.06942e-5
35.71	145.32	432.308	99.993	-2.10063e-5
36.79	150.80	432.307	99.993	-2.11358e-5
37.88	156.29	432.307	99.993	-2.34994e-5
38.96	161.77	432.306	99.993	-2.53008e-5
40.04	167.23	432.310	99.994	-2.50155e-5
41.13	172.66	432.308	99.993	-2.54693e-5
42.21	178.09	432.305	99.993	-2.58560e-5
43.29	183.52	432.304	99.992	-2.55561e-5
44.38	188.94	432.303	99.992	-2.58003e-5
45.46	194.37	432.300	99.991	-2.66406e-5
46.54	199.78	432.304	99.992	-2.65342e-5
47.63	205.19	432.302	99.992	-2.84945e-5
48.71	210.61	432.304	99.992	-2.85595e-5
49.79	216.02	432.300	99.991	-2.92989e-5
50.88	221.45	432.301	99.992	-2.92477e-5
51.96	226.88	432.299	99.991	-3.00577e-5
53.04	232.30	432.297	99.991	-2.93008e-5
54.13	237.73	432.300	99.991	-2.99288e-5
55.21	243.16	432.294	99.990	-3.01984e-5
56.29	248.58	432.296	99.991	-3.18969e-5
57.38	254.01	432.295	99.990	-3.40229e-5
58.46	259.43	432.295	99.990	-3.62467e-5
59.54	264.86	432.294	99.990	-3.79581e-5
60.63	270.29	432.294	99.990	-3.95163e-5
61.71	275.71	432.292	99.990	-4.26017e-5
62.79	281.14	432.292	99.990	-4.63870e-5
63.88	286.56	432.287	99.988	-5.15856e-5
64.96	292.00	432.289	99.989	-5.72915e-5
66.04	297.10	432.288	99.989	-6.43127e-5
67.13	300.03	432.285	99.988	-7.13582e-5
68.21	301.35	432.285	99.988	-8.15343e-5
69.29	301.87	432.286	99.988	-9.26599e-5
70.38	301.77	432.281	99.987	-1.07224e-4
71.46	301.30	432.287	99.988	-1.21232e-4
72.54	300.70	432.282	99.987	-1.37485e-4
73.63	300.19	432.280	99.987	-7.50992e-5
74.71	299.84	432.280	99.987	3.30703e-4
75.79	299.68	432.281	99.987	5.28577e-4
76.88	299.66	432.281	99.987	4.87736e-4
77.96	299.74	432.282	99.987	4.43382e-4
79.04	299.86	432.278	99.986	4.73020e-4
80.13	299.97	432.278	99.986	2.22041e-4
81.21	300.04	432.279	99.986	-8.13138e-4
82.29	300.07	432.279	99.987	-1.93420e-3
83.38	300.07	432.277	99.986	-2.01511e-3
84.46	300.06	432.278	99.986	-1.92393e-3
85.54	300.03	432.277	99.986	-1.90236e-3
86.63	300.01	432.277	99.986	-6.38054e-4
87.71	299.99	432.277	99.986	4.15316e-3
88.79	299.99	432.274	99.985	0.0100147
89.88	299.99	432.280	99.987	0.0104569
90.96	299.99	432.276	99.986	0.0111255
92.04	299.99	432.275	99.986	0.0136744
93.13	300.00	432.273	99.985	0.0138331
94.21	300.00	432.274	99.986	-6.05270e-4
95.29	300.00	432.272	99.985	-0.0377916
96.38	300.00	432.274	99.986	-0.0484977
97.46	299.99	432.272	99.985	-0.0490454
98.54	299.98	432.270	99.985	-0.0462313
99.63	299.99	432.269	99.984	-0.0432465
100.71	300.00	432.267	99.984	-0.0346472
101.79	300.00	432.271	99.985	-0.0261061
102.88	300.00	432.269	99.984	-0.0259932
103.96	300.00	432.266	99.984	-0.0331287
105.04	300.00	432.269	99.984	-0.0391189
106.13	300.01	432.269	99.984	-0.0358609
107.21	300.00	432.267	99.984	-0.0210281
108.29	300.00	432.266	99.984	0.0919161
109.38	300.00	432.266	99.984	0.113696
110.46	300.00	432.266	99.984	0.124000
111.54	300.00	432.265	99.983	0.161359
112.63	300.00	432.264	99.983	0.226204
113.71	300.00	432.260	99.982	0.218410
114.79	300.00	432.262	99.983	0.118639
115.88	300.00	432.254	99.981	-0.173855
116.96	300.00	432.250	99.980	-0.282985
118.04	300.00	432.252	99.980	-0.163213
119.13	300.00	432.252	99.980	-0.0124855
120.21	300.00	432.249	99.980	0.268176
121.29	300.00	432.250	99.980	0.423072
122.38	300.00	432.253	99.981	0.344509
123.46	300.00	432.248	99.979	0.337548
124.54	300.00	432.248	99.979	0.107802
125.63	300.00	432.248	99.980	-0.0808776
126.71	300.00	432.242	99.978	-0.171895
127.79	300.00	432.248	99.979	-0.211609
128.88	300.00	432.244	99.979	-0.202709
129.96	300.00	432.246	99.979	-0.189848
131.04	300.00	432.245	99.979	-0.193499
132.13	300.00	432.245	99.979	-0.187329
133.21	300.00	432.243	99.978	-0.169797
134.29	300.00	432.245	99.979	-0.151291
135.38	300.00	432.242	99.978	-0.133371
136.46	300.00	432.243	99.978	-0.0848539
137.54	300.00	432.237	99.977	-0.0579915
138.63	300.00	432.241	99.978	-0.0117564
139.71	300.00	432.240	99.978	0.0953295
140.79	300.00	432.239	99.977	0.250633
141.88	300.00	432.244	99.979	0.263712
142.96	300.00	432.240	99.978	0.242131
144.04	300.00	432.237	99.977	0.231329
145.13	300.00	432.236	99.977	0.191205
146.21	300.00	432.238	99.977	0.157679
147.29	300.00	432.236	99.977	0.0434278
148.38	300.00	432.236	99.977	0.0467419
149.46	300.00	432.237	99.977	0.140719
150.54	300.00	432.236	99.977	0.115460
151.63	300.00	432.239	99.977	0.114273
152.71	300.00	432.233	99.976	0.140911
153.79	300.00	432.236	99.977	0.137808
154.88	300.00	432.236	99.977	0.0790417
155.96	300.00	432.235	99.976	0.0458140
157.04	300.00	432.235	99.976	0.0504432
158.13	300.00	432.234	99.976	0.0665044
159.21	300.00	432.235	99.976	0.0601404
160.29	300.00	432.234	99.976	0.0715431
161.38	300.00	432.234	99.976	0.106179
162.46	300.00	432.234	99.976	0.100403
163.54	300.00	432.234	99.976	0.120294
164.63	300.00	432.234	99.976	0.123428
165.71	300.00	432.231	99.976	0.141577
166.79	300.00	432.232	99.976	0.143217
167.88	300.00	432.233	99.976	0.137408
168.96	300.00	432.231	99.976	0.128233
170.04	300.00	432.234	99.976	0.127021
171.13	300.00	432.229	99.975	0.121467
172.21	300.00	432.230	99.975	0.107346
173.29	300.00	432.231	99.975	0.0956266
174.38	300.00	432.231	99.975	0.0270854
175.46	300.00	432.230	99.975	-0.0605461
176.54	300.00	432.233	99.976	-0.0972654
177.63	300.00	432.230	99.975	-0.0749112
178.71	300.00	432.231	99.975	-0.0817199
179.79	300.00	432.230	99.975	-0.0728046
180.88	300.00	432.229	99.975	-0.0950734
181.96	300.00	432.229	99.975	-0.107020
183.04	300.00	432.228	99.975	-0.119899
184.13	300.00	432.228	99.975	-0.168469
185.21	300.00	432.227	99.974	-0.190259
186.29	300.00	432.225	99.974	-0.198563
187.38	300.00	432.225	99.974	-0.194844
188.46	300.00	432.223	99.974	-0.164425
189.54	300.00	432.225	99.974	-0.0580697
190.63	300.00	432.224	99.974	0.0253111
191.71	300.00	432.224	99.974	8.63398e-3
192.79	300.00	432.225	99.974	0.0196189
193.88	300.00	432.222	99.973	0.0291207
194.96	300.00	432.225	99.974	0.0378364
196.04	300.00	432.223	99.974	0.0674495
197.13	300.00	432.220	99.973	0.0898306
198.21	300.00	432.221	99.973	0.0815422
199.29	300.00	432.220	99.973	0.0948385
200.38	300.00	432.221	99.973	0.103622
201.46	300.00	432.219	99.973	0.106517
202.54	300.00	432.220	99.973	0.0856291
203.63	300.00	432.220	99.973	0.0822286
204.71	300.00	432.219	99.973	0.0813002
205.79	300.00	432.219	99.973	0.0834630
206.88	300.00	432.218	99.973	0.0916680
207.96	300.00	432.218	99.973	0.0776466
209.04	300.00	432.219	99.973	0.0416776
210.13	300.00	432.222	99.973	-2.64242e-4
211.21	300.00	432.221	99.973	-0.0314480
212.29	300.00	432.217	99.972	-0.0518787
213.38	300.00	432.217	99.972	-0.0566711
214.46	300.00	432.218	99.972	-0.0908773
215.54	300.00	432.215	99.972	-0.108070
216.63	300.00	432.216	99.972	-0.104648
217.71	300.00	432.214	99.971	-0.101260
218.79	300.00	432.214	99.972	-0.119498
219.88	300.00	432.214	99.972	-0.103443
220.96	300.00	432.214	99.972	-0.0887256
222.04	300.00	432.214	99.972	-0.0608962
223.13	300.00	432.214	99.972	-0.0345086
224.21	300.00	432.213	99.971	-0.0347719
225.29	300.00	432.213	99.971	-0.0358800
226.38	300.00	432.213	99.971	-0.0442003
227.46	300.00	432.211	99.971	-0.0756057
228.54	300.00	432.210	99.971	-2.49285e-3
229.63	300.00	432.211	99.971	0.0476106
230.71	300.00	432.208	99.970	0.0915927
231.79	300.00	432.209	99.970	0.114560
232.88	300.00	432.210	99.971	0.115243
233.96	300.00	432.207	99.970	0.128886
235.04	300.00	432.210	99.971	0.127931
236.13	300.00	432.209	99.971	0.0928716
237.21	300.00	432.210	99.971	0.0742491
238.29	300.00	432.210	99.971	0.0475228
239.38	300.00	432.207	99.970	0.0167615
240.46	300.00	432.211	99.971	0.0105425
241.54	300.00	432.209	99.970	0.0199087
242.63	300.00	432.208	99.970	0.0108951
243.71	300.00	432.207	99.970	-0.0150135
244.79	300.00	432.208	99.970	0.0166297
245.88	300.00	432.206	99.970	0.0366996
246.96	300.00	432.207	99.970	0.0225168
248.04	300.00	432.207	99.970	0.0203991
249.13	300.00	432.204	99.969	0.0183215
250.21	300.00	432.210	99.971	0.0630111
251.29	300.00	432.206	99.970	0.105481
252.38	300.00	432.205	99.969	0.110579
253.46	300.00	432.208	99.970	0.0991398
254.54	300.00	432.205	99.969	0.0992775
255.63	300.00	432.204	99.969	0.104874
256.71	300.00	432.205	99.969	0.0964554
257.79	300.00	432.205	99.969	0.112208
258.88	300.00	432.203	99.969	0.0988934
259.96	300.00	432.205	99.970	0.0733662
261.04	300.00	432.202	99.969	0.0429589
262.13	300.00	432.204	99.969	0.0338322
263.21	300.00	432.201	99.969	-3.92694e-3
264.29	300.00	432.202	99.969	-0.0567585
265.38	300.00	432.204	99.969	-0.0819449
266.46	300.00	432.201	99.969	-0.0808453
267.54	300.00	432.198	99.968	-0.0610908
268.63	300.00	432.203	99.969	-0.0266679
269.71	300.00	432.200	99.968	-0.0122880
270.79	300.00	432.200	99.968	1.38383e-3
271.88	300.00	432.201	99.969	0.0336969
272.96	300.00	432.196	99.967	0.0542307
274.04	300.00	432.197	99.968	0.0916773
275.13	300.00	432.198	99.968	0.123852
276.21	300.00	432.197	99.968	0.122585
277.29	300.00	432.198	99.968	0.120894
278.38	300.00	432.197	99.968	0.113592
279.46	300.00	432.197	99.968	0.119828
280.54	300.00	432.193	99.967	0.102483
281.63	300.00	432.194	99.967	0.0775619
282.71	300.00	432.195	99.967	0.0279047
283.79	300.00	432.198	99.968	-0.0427309
284.88	300.00	432.197	99.968	6.51564e-3
285.96	300.00	432.198	99.968	0.0309512
287.04	300.00	432.195	99.967	-0.0177385
288.13	300.00	432.194	99.967	-0.0247085
289.21	300.00	432.195	99.967	-0.0262708
290.29	300.00	432.194	99.967	-0.0269441
291.38	300.00	432.194	99.967	-0.0184391
292.46	300.00	432.190	99.966	4.73486e-3
293.54	300.00	432.197	99.968	0.0235229
294.63	300.01	432.192	99.967	0.0286872
295.71	300.00	432.191	99.966	0.0347020
296.79	300.00	432.191	99.966	0.0391925
297.88	300.00	432.192	99.966	0.0236461
298.96	300.00	432.192	99.966	6.29471e-4
300.04	300.00	432.191	99.966	-4.82080e-3
301.13	300.00	432.192	99.966	-1.27267e-3
302.21	300.00	432.189	99.966	0.0378489
303.29	300.00	432.192	99.967	0.0283712
304.38	300.00	432.191	99.966	0.0256114
305.46	300.00	432.189	99.966	-8.78645e-3
306.54	300.00	432.186	99.965	-0.0460301
307.63	300.00	432.191	99.966	-0.0537421
308.71	300.00	432.193	99.967	-0.0613282
309.79	300.00	432.187	99.965	-0.0182940
310.88	300.00	432.190	99.966	0.0224304
311.96	300.00	432.187	99.965	0.0407803
313.04	300.00	432.189	99.966	0.0538819
314.13	300.00	432.186	99.965	0.0632181
315.21	300.00	432.187	99.965	0.0628894
316.29	300.00	432.184	99.965	0.0663508
317.38	300.00	432.186	99.965	0.0784126
318.46	300.00	432.188	99.966	0.0800217
319.54	300.00	432.181	99.964	0.0759861
320.63	300.00	432.185	99.965	0.0654556
321.71	300.00	432.184	99.965	0.0251545
322.79	300.00	432.185	99.965	-6.20149e-3
323.88	300.00	432.183	99.964	-0.0215006
324.96	300.00	432.186	99.965	-0.0537871
326.04	299.99	432.185	99.965	-0.0782515
327.13	300.00	432.184	99.965	-0.0934961
328.21	300.00	432.183	99.964	-0.0806900
329.29	300.01	432.182	99.964	-0.0812752
330.38	300.00	432.178	99.963	-0.0682756
331.46	300.00	432.183	99.964	-0.0490739
332.54	300.00	432.182	99.964	-0.0286859
333.63	300.00	432.182	99.964	-3.66000e-3
334.71	300.00	432.179	99.963	0.0337897
335.79	300.00	432.180	99.964	0.0763960
336.88	300.00	432.180	99.964	0.0909291
337.96	300.00	432.181	99.964	0.0888930
339.04	300.00	432.179	99.963	0.0876330
340.13	300.00	432.180	99.964	0.0838602
341.21	300.00	432.178	99.963	0.0589575
342.29	300.00	432.173	99.962	0.0475739
343.38	300.00	432.180	99.964	0.0387012
344.46	300.00	432.178	99.963	0.0278277
345.54	300.00	432.175	99.963	0.0139817
346.63	300.00	432.180	99.964	0.0346140
347.71	300.00	432.180	99.964	0.0289798
348.79	300.00	432.176	99.963	0.0803724
349.88	300.00	432.177	99.963	0.0738789
350.96	300.00	432.176	99.963	0.0119665
352.04	300.00	432.175	99.962	3.05994e-3
353.13	300.00	432.176	99.963	-4.25068e-3
354.21	300.00	432.175	99.963	-0.0405538
355.29	300.00	432.174	99.962	-0.0866224
356.38	300.00	432.172	99.962	2.04995e-3
357.46	300.00	432.174	99.962	0.0227226
358.54	300.00	432.174	99.962	0.0527495
359.63	300.00	432.173	99.962	0.0618607
360.71	300.00	432.173	99.962	0.114456
361.79	300.00	432.174	99.962	0.126468
362.88	300.00	432.171	99.962	0.131690
363.96	300.00	432.173	99.962	0.144624
365.04	300.00	432.172	99.962	0.125485
366.13	300.00	432.174	99.962	0.134786
367.21	300.00	432.172	99.962	0.0654396
368.29	300.00	432.171	99.962	0.0505071
369.38	300.00	432.169	99.961	0.0950608
370.46	300.00	432.170	99.961	0.100281
371.54	300.00	432.168	99.961	0.0844625
372.63	300.00	432.167	99.961	0.105212
373.71	300.00	432.170	99.961	0.111904
374.79	300.00	432.171	99.962	0.105733
375.88	300.00	432.170	99.961	0.0950268
376.96	300.00	432.170	99.961	0.102128
378.04	300.00	432.167	99.961	0.113975
379.13	299.99	432.171	99.962	0.114287
380.21	300.00	432.166	99.960	0.114242
381.29	300.00	432.169	99.961	0.100692
382.38	300.00	432.165	99.960	0.0607936
383.46	300.00	432.168	99.961	0.0457856
384.54	300.00	432.167	99.961	0.0304405
385.63	300.00	432.166	99.960	-7.22603e-3
386.71	300.00	432.167	99.961	-0.0504877
387.79	300.00	432.165	99.960	0.0145902
388.88	300.00	432.167	99.961	-0.0332977
389.96	300.00	432.167	99.961	-0.0718593
391.04	300.00	432.167	99.961	-0.141679
392.13	300.00	432.162	99.959	-0.159986
393.21	300.00	432.160	99.959	-0.170627
394.29	300.00	432.163	99.960	-0.151268
395.38	300.00	432.162	99.960	-0.161495
396.46	300.00	432.161	99.959	-0.149204
397.54	300.00	432.159	99.959	-0.132037
398.63	300.00	432.162	99.959	-0.116876
399.71	300.00	432.159	99.959	-0.110409
400.79	300.00	432.159	99.959	-0.0787030
401.88	300.00	432.159	99.959	0.0376792
402.96	300.00	432.159	99.959	0.110569
404.04	300.00	432.160	99.959	0.182161
405.13	300.00	432.154	99.958	0.190656
406.21	300.00	432.158	99.959	0.182154
407.29	300.00	432.156	99.958	0.155157
408.38	300.00	432.159	99.959	0.139668
409.46	300.00	432.155	99.958	0.125026
410.54	300.00	432.157	99.958	0.114082
411.63	300.00	432.154	99.958	0.117529
412.71	300.00	432.155	99.958	0.108020
413.79	300.00	432.153	99.957	0.0377992
414.88	300.00	432.154	99.958	3.38901e-3
415.96	300.00	432.150	99.957	-0.0645623
417.04	300.00	432.156	99.958	-0.0864995
418.13	300.00	432.155	99.958	-0.0964385
419.21	300.00	432.156	99.958	-0.0253777
420.29	300.00	432.148	99.956	-6.93908e-4
421.38	300.00	432.151	99.957	0.0228268
422.46	300.00	432.152	99.957	0.0198607
423.54	300.00	432.156	99.958	5.94863e-4
424.63	300.00	432.146	99.956	-0.0335047
425.71	300.00	432.152	99.957	-0.0427138
426.79	300.00	432.149	99.957	0.0168181
427.88	300.00	432.148	99.956	0.0867218
428.96	300.00	432.149	99.957	0.137059
430.04	300.00	432.147	99.956	0.110416
431.13	300.00	432.148	99.956	0.0953099
432.21	300.00	432.146	99.956	-0.0184283
433.29	300.00	432.147	99.956	-0.0419946
434.38	300.00	432.145	99.956	-0.0813329
435.46	300.00	432.146	99.956	-0.0570611
436.54	300.00	432.145	99.956	0.0646459
437.63	300.00	432.145	99.956	0.0465739
438.71	300.00	432.145	99.956	0.0590315
439.79	300.00	432.145	99.956	0.0784945
440.88	300.00	432.143	99.955	0.0619462
441.96	300.00	432.143	99.955	0.0556977
443.04	300.00	432.143	99.955	0.0745959
444.13	300.00	432.144	99.955	0.126406
445.21	300.00	432.144	99.955	0.143835
446.29	300.00	432.141	99.955	0.151081
447.38	300.00	432.143	99.955	0.149952
448.46	300.00	432.142	99.955	0.121810
449.54	300.00	432.141	99.955	0.141080
450.63	300.00	432.140	99.954	0.142683
451.71	300.00	432.142	99.955	0.102661
452.79	300.00	432.141	99.955	0.133112
453.88	300.00	432.139	99.954	0.0991056
454.96	300.00	432.140	99.954	0.105875
456.04	300.00	432.140	99.954	0.0323797
457.13	300.00	432.140	99.954	0.0382487
458.21	300.00	432.139	99.954	0.0268990
459.29	300.00	432.137	99.954	0.0256464
460.38	300.00	432.138	99.954	0.0279767
461.46	300.00	432.136	99.954	0.0431909
462.54	300.00	432.138	99.954	0.0849451
463.63	300.00	432.135	99.953	0.0969647
464.71	300.00	432.136	99.953	0.0819429
465.79	300.00	432.137	99.954	0.0640485
466.88	300.00	432.135	99.953	0.0339908
467.96	300.00	432.133	99.953	0.0157676
469.04	300.00	432.138	99.954	6.39465e-3
470.13	300.00	432.136	99.953	0.0379328
471.21	300.00	432.134	99.953	2.59701e-4
472.29	300.00	432.134	99.953	8.90636e-4
473.38	300.00	432.134	99.953	-0.0162212
474.46	300.00	432.133	99.953	-0.0682667
475.54	300.00	432.132	99.953	-0.0829852
476.63	300.00	432.132	99.952	-0.0864204
477.71	300.00	432.130	99.952	-0.0677397
478.79	300.00	432.132	99.952	-0.0462416
479.88	300.00	432.130	99.952	0.0334172
480.96	300.00	432.131	99.952	0.103429
482.04	300.00	432.130	99.952	0.114238
483.13	300.00	432.125	99.951	0.0849235
484.21	300.00	432.127	99.951	0.0968059
485.29	300.00	432.129	99.952	0.0975664
486.38	300.00	432.129	99.952	0.102116
487.46	300.00	432.131	99.952	0.0788658
488.54	300.00	432.129	99.952	0.0536796
489.63	300.00	432.129	99.952	0.0825854
490.71	300.00	432.126	99.951	0.0737483
491.79	300.00	432.124	99.951	0.0217470
492.88	300.00	432.126	99.951	0.0166772
493.96	300.00	432.127	99.951	0.0762717
495.04	300.00	432.125	99.951	0.109250
496.13	300.00	432.126	99.951	0.0980597
497.21	300.00	432.126	99.951	0.133392
498.29	300.00	432.125	99.951	0.139654
499.38	300.00	432.126	99.951	0.123988
500.46	300.00	432.125	99.951	0.129754
501.54	300.00	432.124	99.951	0.0525484
502.63	300.00	432.122	99.950	0.0605115
503.71	300.00	432.123	99.951	0.0605809
504.79	300.00	432.122	99.950	4.65056e-3
505.88	300.00	432.122	99.950	-0.0178545
506.96	300.00	432.118	99.949	7.56482e-3
508.04	300.00	432.124	99.951	0.0254515
509.13	300.00	432.123	99.950	0.0118957
510.21	300.00	432.120	99.950	-2.27403e-3
511.29	300.00	432.112	99.948	0.0341034
512.38	300.00	432.118	99.949	0.0504721
513.46	300.00	432.119	99.950	0.0797292
514.54	300.00	432.119	99.950	0.0707018
515.63	300.00	432.118	99.949	0.0374156
516.71	300.00	432.116	99.949	0.0446060
517.79	300.00	432.117	99.949	0.0257326
518.88	300.00	432.118	99.949	-0.0548124
519.96	300.00	432.117	99.949	-0.0841278
521.04	300.00	432.116	99.949	-0.0990135
522.13	300.00	432.116	99.949	-0.0963790
523.21	300.00	432.116	99.949	-0.0462167
524.29	300.00	432.115	99.949	-0.0174448
525.38	300.00	432.116	99.949	0.0624784
526.46	300.00	432.114	99.948	0.0799427
527.54	300.00	432.116	99.949	0.114889
528.63	300.00	432.114	99.949	0.119874
529.71	300.00	432.114	99.948	0.132035
530.79	300.00	432.115	99.949	0.146336
531.88	300.00	432.116	99.949	0.116319
532.96	300.00	432.112	99.948	0.132904
534.04	300.00	432.113	99.948	0.0890281
535.13	300.00	432.112	99.948	0.0381985
536.21	300.00	432.119	99.950	3.87624e-4
537.29	300.00	432.110	99.947	0.0378111
538.38	300.00	432.111	99.948	0.0435034
539.46	300.00	432.111	99.948	0.0850137
540.54	300.00	432.112	99.948	0.0967074
541.63	300.00	432.112	99.948	0.0514371
542.71	300.00	432.109	99.947	0.0316226
543.79	300.00	432.111	99.948	0.0134261
544.88	300.00	432.110	99.947	0.0114834
545.96	300.00	432.108	99.947	8.63518e-3
547.04	300.00	432.109	99.947	0.0143340
548.13	300.00	432.107	99.947	-4.02869e-3
549.21	300.00	432.107	99.947	-0.0204737
550.29	300.00	432.107	99.947	-9.63702e-3
551.38	300.00	432.107	99.947	-0.0351152
552.46	300.00	432.107	99.947	-0.0622360
553.54	300.00	432.106	99.946	-0.0581455
554.63	300.00	432.107	99.947	-2.76173e-3
555.71	300.00	432.104	99.946	0.0757505
556.79	300.00	432.106	99.947	0.166165
557.88	300.00	432.105	99.946	0.154171
558.96	300.00	432.107	99.947	0.116952
560.04	300.00	432.103	99.946	0.145705
561.13	300.00	432.102	99.946	0.153486
562.21	300.00	432.104	99.946	0.121265
563.29	300.00	432.103	99.946	0.140266
564.38	300.00	432.103	99.946	0.0923627
565.46	300.00	432.100	99.945	0.0385811
566.54	300.00	432.101	99.945	0.0257823
567.63	300.00	432.102	99.946	0.0565955
568.71	300.00	432.102	99.946	0.0484439
569.79	300.00	432.101	99.945	0.0318028
570.88	300.00	432.101	99.945	-6.82148e-3
571.96	300.00	432.101	99.945	-0.0183180
573.04	300.00	432.100	99.945	-0.0724900
574.13	300.00	432.100	99.945	-0.0797731
575.21	300.00	432.102	99.946	-0.0930791
576.29	300.00	432.099	99.945	-0.0678369
577.38	300.00	432.098	99.945	-0.0165866
578.46	300.00	432.099	99.945	0.0387653
579.54	300.00	432.099	99.945	0.0835643
580.63	300.00	432.099	99.945	0.0943146
581.71	300.00	432.098	99.945	0.0925740
582.79	300.00	432.099	99.945	0.112917
583.88	300.00	432.095	99.944	0.117837
584.96	300.00	432.098	99.945	0.103585
586.04	300.00	432.094	99.944	0.0858584
587.13	300.00	432.096	99.944	0.0649719
588.21	300.00	432.095	99.944	0.0411208
589.29	300.00	432.097	99.944	-1.82243e-3
590.38	300.00	432.093	99.943	-0.0566302
591.46	300.00	432.094	99.944	-0.109401
592.54	300.00	432.094	99.944	-0.150172
593.63	300.00	432.094	99.944	-0.156735
594.71	300.00	432.093	99.944	-0.145211
595.79	300.00	432.093	99.943	-0.128874
596.88	300.00	432.092	99.943	-0.105137
597.96	300.00	432.092	99.943	-0.0637775
599.04	300.00	432.092	99.943	-0.0302863
600.13	300.00	432.091	99.943	0.0167802
601.21	300.00	432.091	99.943	0.0586951
602.29	300.00	432.090	99.943	0.0193409
603.38	300.00	432.089	99.943	0.0191663
604.46	300.00	432.091	99.943	0.0537633
605.54	300.00	432.091	99.943	0.0674358
606.63	300.00	432.090	99.943	0.0641955
607.71	300.00	432.087	99.942	0.0531479
608.79	300.00	432.088	99.942	0.0218440
609.88	300.00	432.090	99.943	0.0304025
610.96	300.00	432.089	99.943	-1.24323e-3
612.04	300.00	432.087	99.942	0.0380945
613.13	300.00	432.088	99.942	0.0513145
614.21	300.00	432.088	99.942	0.0718659
615.29	300.00	432.088	99.942	0.0820491
616.38	300.00	432.087	99.942	0.0883343
617.46	300.00	432.086	99.942	0.0999189
618.54	300.00	432.086	99.942	0.0911054
619.63	300.00	432.086	99.942	0.0641283
620.71	300.00	432.085	99.942	0.0677636
621.79	300.00	432.086	99.942	0.0766907
622.88	300.00	432.086	99.942	0.0538329
623.96	300.00	432.087	99.942	0.0698407
625.04	300.00	432.080	99.941	0.0704653
626.13	300.00	432.084	99.942	0.0432527
627.21	300.00	432.084	99.942	-3.80462e-3
628.29	300.00	432.085	99.942	-0.0401099
629.38	300.00	432.084	99.941	-0.0449642
630.46	300.00	432.083	99.941	-0.0975603
631.54	300.00	432.082	99.941	-0.103731
632.63	300.00	432.085	99.942	-0.113188
633.71	300.00	432.082	99.941	-0.129191
634.79	300.00	432.082	99.941	-0.131256
635.88	300.00	432.081	99.941	-0.121019
636.96	300.00	432.081	99.941	-0.131907
638.04	300.00	432.081	99.941	-0.104571
639.13	300.00	432.079	99.940	-0.0977309
640.21	300.00	432.080	99.941	-0.0913885
641.29	300.00	432.079	99.940	-0.0419895
642.38	300.00	432.079	99.940	-2.25487e-3
643.46	300.00	432.079	99.940	0.0162969
644.54	300.00	432.078	99.940	0.0465479
645.63	300.00	432.079	99.940	0.0567729
646.71	300.00	432.077	99.940	0.0976758
647.79	300.00	432.077	99.940	0.104871
648.88	300.00	432.079	99.940	0.0536178
649.96	300.00	432.078	99.940	0.0475547
651.04	300.00	432.078	99.940	0.0541844
652.13	300.00	432.081	99.941	0.0524115
653.21	300.00	432.077	99.940	0.0540628
654.29	300.00	432.078	99.940	0.0484163
655.38	300.00	432.076	99.940	0.0453385
656.46	300.00	432.077	99.940	0.0361568
657.54	300.00	432.078	99.940	0.0193618
658.63	300.00	432.075	99.939	0.0145754
659.71	300.00	432.077	99.940	0.0165418
660.79	300.00	432.076	99.940	-2.59558e-3
661.88	300.00	432.074	99.939	-0.0393303
662.96	300.00	432.073	99.939	-0.0636299
664.04	300.00	432.074	99.939	-0.0833173
665.13	300.00	432.076	99.940	-0.0836972
666.21	300.00	432.076	99.940	-0.0843080
667.29	300.00	432.076	99.940	-0.0898165
668.38	300.00	432.075	99.939	-0.101970
669.46	300.00	432.075	99.939	-0.115662
670.54	300.00	432.074	99.939	-0.109513
671.63	300.00	432.074	99.939	-0.0877549
672.71	300.00	432.072	99.939	-0.0602250
673.79	300.00	432.071	99.938	-0.0260344
674.88	300.00	432.074	99.939	7.03822e-3
675.96	300.00	432.072	99.939	0.116416
677.04	300.00	432.073	99.939	0.157374
678.13	300.00	432.072	99.939	0.146170
679.21	300.00	432.069	99.938	0.146294
680.29	300.00	432.069	99.938	0.128202
681.38	300.00	432.072	99.939	0.133703
682.46	300.00	432.066	99.937	0.126242
683.54	300.00	432.070	99.938	0.103254
684.63	300.00	432.070	99.938	0.0664890
685.71	300.00	432.072	99.939	0.0156183
686.79	300.00	432.073	99.939	-2.22568e-3
687.88	300.00	432.072	99.939	-8.56217e-3
688.96	300.00	432.071	99.938	0.0734376
690.04	300.00	432.070	99.938	0.0956982
691.13	300.00	432.070	99.938	0.0808933
692.21	300.00	432.070	99.938	0.0986003
693.29	300.00	432.071	99.938	0.103802
694.38	300.00	432.069	99.938	0.104838
695.46	300.00	432.070	99.938	0.108260
696.54	300.00	432.066	99.937	0.112204
697.63	300.00	432.068	99.938	0.0919149
698.71	300.00	432.071	99.939	0.0761923
699.79	300.00	432.070	99.938	0.0381669
700.88	300.00	432.067	99.938	0.0129654
701.96	300.00	432.067	99.938	-0.0198710
703.04	300.00	432.066	99.937	-0.0516344
704.13	300.00	432.066	99.937	-0.0835119
705.21	300.00	432.066	99.937	-0.110986
706.29	300.00	432.071	99.938	-0.127611
707.38	300.00	432.067	99.938	-0.123152
708.46	300.00	432.067	99.937	-0.132890
709.54	300.00	432.065	99.937	-0.150810
710.63	300.00	432.066	99.937	-0.151537
711.71	300.00	432.064	99.937	-0.143008
712.79	300.00	432.067	99.938	-0.169753
713.88	300.00	432.063	99.937	-0.144741
714.96	300.00	432.063	99.937	-0.0979966
716.04	300.00	432.062	99.936	-0.104216
717.13	300.00	432.062	99.936	-0.0837636
718.21	300.00	432.062	99.937	0.0223555
719.29	300.00	432.061	99.936	0.0669632
720.38	300.00	432.062	99.936	0.142383
721.46	300.00	432.062	99.936	0.107444
722.54	300.00	432.062	99.936	0.123151
723.63	300.00	432.060	99.936	0.161085
724.71	300.00	432.061	99.936	0.159506
725.79	300.00	432.061	99.936	0.144492
726.88	300.00	432.061	99.936	0.102715
727.96	300.00	432.059	99.936	0.0996467
729.04	300.00	432.060	99.936	0.0801073
730.13	300.00	432.062	99.936	0.0863227
731.21	300.00	432.063	99.937	0.0757519
732.29	300.00	432.062	99.936	0.0861266
733.38	300.00	432.060	99.936	0.0957932
734.46	300.00	432.060	99.936	0.102077
735.54	300.00	432.061	99.936	0.104262
736.63	300.00	432.055	99.935	0.0938786
737.71	300.00	432.058	99.936	0.0787058
738.79	300.00	432.058	99.935	0.0773056
739.88	300.00	432.059	99.936	0.0717400
740.96	300.00	432.057	99.935	0.0341493
742.04	300.00	432.056	99.935	-6.47385e-3
743.13	300.00	432.057	99.935	9.95544e-3
744.21	300.00	432.057	99.935	6.29940e-3
745.29	300.00	432.058	99.936	-0.0658684
746.38	300.00	432.055	99.935	-0.108314
747.46	300.00	432.056	99.935	-0.134964
748.54	300.00	432.055	99.935	-0.140092
749.63	300.00	432.054	99.935	-0.150358
750.71	300.00	432.053	99.934	-0.151325
751.79	300.00	432.055	99.935	-0.143206
752.88	300.00	432.051	99.934	-0.141767
753.96	300.00	432.052	99.934	-0.132409
755.04	300.00	432.055	99.935	-0.118645
756.13	300.00	432.054	99.935	-0.115539
757.21	300.00	432.050	99.934	-0.0875768
758.29	300.00	432.050	99.934	-0.0938609
759.38	300.00	432.051	99.934	-0.0726496
760.46	300.00	432.050	99.934	-0.0547073
761.54	300.00	432.050	99.934	-0.0605000
762.63	300.00	432.048	99.933	8.26709e-3
763.71	300.00	432.048	99.933	0.121342
764.79	300.00	432.048	99.933	0.113712
765.88	300.00	432.048	99.933	0.0901934
766.96	300.00	432.048	99.933	0.103364
768.04	300.00	432.047	99.933	0.0820604
769.13	300.00	432.047	99.933	0.0413446
770.21	300.00	432.044	99.932	0.0759036
771.29	300.00	432.046	99.933	0.107973
772.38	300.00	432.047	99.933	0.116903
773.46	300.00	432.046	99.933	0.121096
774.54	300.00	432.045	99.933	0.146208
775.63	300.00	432.045	99.933	0.163290
776.71	300.00	432.043	99.932	0.163794
777.79	300.00	432.045	99.933	0.154443
778.88	300.00	432.045	99.932	0.151884
779.96	300.00	432.044	99.932	0.151640
781.04	300.00	432.047	99.933	0.154783
782.13	300.00	432.045	99.932	0.148930
783.21	300.00	432.042	99.932	0.133631
784.29	300.00	432.043	99.932	0.111806
785.38	300.00	432.047	99.933	0.0902950
786.46	300.00	432.044	99.932	0.0355343
787.54	300.00	432.044	99.932	1.28287e-3
788.63	300.00	432.044	99.932	-0.0370427
789.71	300.00	432.042	99.932	-0.115587
790.79	300.00	432.044	99.932	-0.130102
791.88	300.00	432.041	99.932	-0.147244
792.96	300.00	432.042	99.932	-0.151869
794.04	300.00	432.039	99.931	-0.191922
795.13	300.00	432.043	99.932	-0.175978
796.21	300.00	432.041	99.932	-0.146605
797.29	300.00	432.039	99.931	-0.0687058
798.38	300.00	432.039	99.931	-7.16549e-3
799.46	300.00	432.039	99.931	0.0259848
800.54	300.00	432.038	99.931	0.0279115
801.63	300.00	432.038	99.931	0.0379099
802.71	300.00	432.040	99.931	0.0503240
803.79	300.00	432.035	99.930	0.0624205
804.88	300.00	432.039	99.931	0.113007
805.96	300.00	432.037	99.931	0.115934
807.04	300.00	432.037	99.931	0.0321895
808.13	300.00	432.037	99.931	-0.0357777
809.21	300.00	432.036	99.930	-0.0571993
810.29	300.00	432.037	99.931	-0.0515822
811.38	300.00	432.035	99.930	-0.0576188
812.46	300.00	432.035	99.930	-0.0284668
813.54	300.00	432.036	99.930	0.0159238
814.63	300.00	432.034	99.930	0.0584792
815.71	300.00	432.033	99.930	0.0815658
816.79	300.00	432.035	99.930	0.0842862
817.88	300.00	432.041	99.931	0.0790385
818.96	300.00	432.032	99.930	0.0721094
820.04	300.00	432.033	99.930	0.0702329
821.13	300.00	432.035	99.930	0.0733324
822.21	300.00	432.034	99.930	0.0800931
823.29	300.00	432.031	99.929	0.0788681
824.38	300.00	432.032	99.929	0.106489
825.46	300.00	432.035	99.930	0.0916570
826.54	300.00	432.034	99.930	0.0498793
827.63	300.00	432.035	99.930	-0.0185835
828.71	300.00	432.032	99.930	-0.0636371
829.79	300.00	432.031	99.929	-0.104190
830.88	300.00	432.031	99.929	-0.123290
831.96	300.00	432.032	99.930	-0.138264
833.04	300.00	432.029	99.929	-0.151153
834.13	300.00	432.026	99.928	-0.157298
835.21	300.00	432.030	99.929	-0.164657
836.29	300.00	432.031	99.929	-0.147931
837.38	300.00	432.027	99.928	-0.135821
838.46	300.00	432.029	99.929	-0.127078
839.54	300.00	432.027	99.928	-0.0911215
840.63	300.00	432.028	99.928	-0.0562117
841.71	300.00	432.027	99.928	8.56022e-3
842.79	300.00	432.027	99.928	0.0620534
843.88	300.00	432.027	99.928	0.0836559
844.96	300.00	432.026	99.928	0.101833
846.04	300.00	432.025	99.928	0.120419
847.13	300.00	432.026	99.928	0.102154
848.21	300.00	432.026	99.928	0.0863300
849.29	300.00	432.025	99.928	0.0756616
850.38	300.00	432.025	99.928	0.0684149
851.46	300.00	432.026	99.928	0.0779137
852.54	300.00	432.026	99.928	0.0742983
853.63	300.00	432.028	99.929	0.0780147
854.71	300.00	432.023	99.927	0.0401906
855.79	300.00	432.023	99.927	4.76938e-3
856.88	300.00	432.022	99.927	-0.0241631
857.96	300.00	432.024	99.928	-0.0383497
859.04	300.00	432.021	99.927	-8.71294e-3
860.13	300.00	432.023	99.927	0.0384285
861.21	300.00	432.022	99.927	0.0137946
862.29	300.00	432.020	99.927	0.0217275
863.38	300.00	432.022	99.927	-6.38003e-3
864.46	300.00	432.021	99.927	2.73077e-3
865.54	300.00	432.021	99.927	0.0104146
866.63	300.00	432.019	99.926	-0.0229697
867.71	300.00	432.019	99.926	0.0614586
868.79	300.00	432.017	99.926	0.0166632
869.88	300.00	432.020	99.927	-0.0107652
870.96	300.00	432.018	99.926	-0.0820866
872.04	300.00	432.019	99.927	-0.141121
873.13	300.00	432.017	99.926	-0.170912
874.21	300.00	432.016	99.926	-0.172922
875.29	300.00	432.016	99.926	-0.159872
876.38	300.00	432.013	99.925	-0.130410
877.46	300.00	432.019	99.927	-0.112788
878.54	300.00	432.015	99.925	-0.0861659
879.63	300.00	432.014	99.925	-0.0655947
880.71	300.00	432.015	99.926	-0.0354905
881.79	300.00	432.017	99.926	0.0163606
882.88	300.00	432.012	99.925	0.0356966
883.96	300.00	432.012	99.925	0.0907044
885.04	300.00	432.014	99.925	0.128606
886.13	300.00	432.013	99.925	0.124743
887.21	300.00	432.012	99.925	0.0853072
888.29	300.00	432.013	99.925	0.0684124
889.38	300.00	432.014	99.925	0.0743797
890.46	300.00	432.013	99.925	0.0651150
891.54	300.00	432.011	99.925	0.0489995
892.63	300.00	432.011	99.925	0.0458214
893.71	300.00	432.011	99.925	0.0484438
894.79	300.00	432.012	99.925	0.0572173
895.88	300.00	432.015	99.925	0.0433926
896.96	300.00	432.012	99.925	0.0284799
898.04	300.00	432.013	99.925	0.0350656
899.13	300.00	432.011	99.925	0.0382974
900.21	300.00	432.013	99.925	0.0322657
901.29	300.00	432.011	99.925	0.0227384
902.38	300.00	432.008	99.924	0.0208543
903.46	300.00	432.009	99.924	-0.0161523
904.54	300.00	432.008	99.924	-0.0608683
905.63	300.00	432.008	99.924	-0.0800369
906.71	300.00	432.003	99.923	-0.103616
907.79	300.00	432.009	99.924	-0.118904
908.88	300.00	432.008	99.924	-0.101208
909.96	300.00	432.008	99.924	-0.0892529
911.04	300.00	432.007	99.924	-0.0949539
912.13	300.00	432.006	99.923	-0.123219
913.21	300.00	432.006	99.923	-0.157551
914.29	300.00	432.006	99.923	-0.179986
915.38	300.00	432.005	99.923	-0.188774
916.46	300.00	432.005	99.923	-0.178382
917.54	300.00	432.004	99.923	-0.166501
918.63	300.00	432.003	99.923	-0.131104
919.71	300.00	432.003	99.923	-0.0585998
920.79	300.00	432.002	99.922	0.0329737
921.88	300.00	432.003	99.923	0.138536
922.96	300.00	432.002	99.923	0.139150
924.04	300.00	432.003	99.923	0.0893007
925.13	300.00	432.000	99.922	0.0611130
926.21	300.00	432.002	99.923	0.0472269
927.29	300.00	432.000	99.922	0.105603
928.38	300.00	432.000	99.922	0.0941746
929.46	300.00	432.001	99.922	0.105405
930.54	300.00	432.000	99.922	0.0994784
931.63	300.00	432.000	99.922	0.111600
932.71	300.00	431.999	99.922	0.101370
933.79	300.00	431.999	99.922	0.0887345
934.88	300.00	431.999	99.922	0.0796061
935.96	300.00	431.998	99.922	0.0550040
937.04	300.00	431.999	99.922	0.0657168
938.13	300.00	431.998	99.921	0.0869657
939.21	300.00	431.998	99.922	0.0901972
940.29	300.00	431.997	99.921	0.0740634
941.38	300.00	431.997	99.921	0.0625735
942.46	300.00	431.999	99.922	0.0589996
943.54	300.00	431.996	99.921	0.0478956
944.63	300.00	431.996	99.921	0.0316699
945.71	300.00	431.999	99.922	0.0648407
946.79	300.00	431.995	99.921	0.0968516
947.88	300.00	431.998	99.922	0.120871
948.96	300.00	431.995	99.921	0.153925
950.04	300.00	431.999	99.922	0.128266
951.13	300.00	431.996	99.921	0.0766261
952.21	300.00	431.995	99.921	0.0157619
953.29	300.00	431.996	99.921	-0.0724877
954.38	300.00	431.997	99.921	-0.0931578
955.46	300.00	431.994	99.921	-0.107940
956.54	300.00	431.995	99.921	-0.0896800
957.63	300.00	431.992	99.920	-0.0821602
958.71	300.00	431.994	99.921	-0.0751297
959.79	300.00	431.993	99.920	-0.0859107
960.88	300.00	431.993	99.920	-0.0963288
961.96	300.00	431.989	99.920	-0.0902239
963.04	300.00	431.992	99.920	-0.109828
964.13	300.00	431.990	99.920	-0.103763
965.21	300.00	431.989	99.920	-0.0752015
966.29	300.00	431.991	99.920	-0.0311034
967.38	300.00	431.991	99.920	0.0205461
968.46	300.00	431.991	99.920	0.0348590
969.54	300.00	431.992	99.920	0.0236699
970.63	300.00	431.987	99.919	0.0182874
971.71	300.00	431.988	99.919	0.0137831
972.79	300.00	431.991	99.920	0.0163348
973.88	300.00	431.990	99.920	0.0486398
974.96	300.00	431.991	99.920	0.0632457
976.04	300.00	431.988	99.919	0.0841915
977.13	300.00	431.988	99.919	0.0838179
978.21	300.00	431.991	99.920	0.0742266
979.29	300.00	431.990	99.920	0.0602562
980.38	300.00	431.984	99.918	0.0663446
981.46	300.00	431.987	99.919	0.0515302
982.54	300.00	431.989	99.919	0.0440449
983.63	300.00	431.987	99.919	0.0455440
984.71	300.00	431.986	99.919	0.0542759
985.79	300.00	431.986	99.919	0.0471179
986.88	300.00	431.986	99.919	0.0326565
987.96	300.00	431.985	99.919	0.0532261
989.04	300.00	431.984	99.918	0.0313868
990.13	300.00	431.987	99.919	0.0126653
991.21	300.00	431.985	99.919	-0.0716385
992.29	300.00	431.985	99.919	-0.143526
993.38	300.00	431.984	99.918	-0.176502
994.46	300.00	431.987	99.919	-0.171844
995.54	300.00	431.984	99.918	-0.165717
996.63	300.00	431.983	99.918	-0.157862
997.71	300.00	431.982	99.918	-0.129987
998.79	300.00	431.981	99.918	-0.118332
999.88	300.00	431.984	99.918	-0.160293
1000.96	300.00	431.982	99.918	-0.167760
1002.04	300.00	431.983	99.918	-0.175305
1003.13	300.00	431.978	99.917	-0.147098
1004.21	300.00	431.980	99.917	-0.0756996
1005.29	300.00	431.980	99.917	0.0137374
1006.38	300.00	431.979	99.917	0.0402049
1007.46	300.00	431.979	99.917	0.0755158
1008.54	300.00	431.979	99.917	0.0475653
1009.63	300.00	431.978	99.917	0.0160918
1010.71	300.00	431.978	99.917	0.0109911
1011.79	300.00	431.977	99.917	-0.0110223
1012.88	300.00	431.978	99.917	5.39740e-3
1013.96	300.00	431.978	99.917	0.0279002
1015.04	300.00	431.977	99.917	0.0634803
1016.13	300.00	431.978	99.917	0.0624956
1017.21	300.00	431.978	99.917	0.0571133
1018.29	300.00	431.975	99.916	0.0327238
1019.38	300.00	431.975	99.916	0.0294184
1020.46	300.00	431.975	99.916	0.0436962
1021.54	300.00	431.976	99.917	0.0538449
1022.63	300.00	431.977	99.917	0.0642525
1023.71	300.00	431.977	99.917	0.0666214
1024.79	300.00	431.975	99.916	0.0819064
1025.88	300.00	431.975	99.916	0.0713044
1026.96	300.00	431.978	99.917	0.0973897
1028.04	300.00	431.975	99.916	0.118656
1029.13	300.00	431.971	99.915	0.123252
1030.21	300.00	431.974	99.916	0.113823
1031.29	300.00	431.971	99.915	0.154702
1032.38	300.00	431.973	99.916	0.163478
1033.46	300.00	431.973	99.916	0.137650
1034.54	300.00	431.974	99.916	0.160850
1035.63	300.00	431.973	99.916	0.0897965
1036.71	300.00	431.975	99.916	0.0354281
1037.79	300.00	431.974	99.916	-0.0356129
1038.88	300.00	431.973	99.916	-0.131443
1039.96	300.00	431.969	99.915	-0.216086
1041.04	300.00	431.969	99.915	-0.248748
1042.13	300.00	431.974	99.916	-0.257181
1043.21	300.00	431.970	99.915	-0.244632
1044.29	300.00	431.969	99.915	-0.244015
1045.38	300.00	431.967	99.914	-0.184966
1046.46	300.00	431.969	99.915	-0.180495
1047.54	300.00	431.967	99.914	-0.154756
1048.63	300.00	431.964	99.914	-0.106573
1049.71	300.00	431.967	99.914	-0.0215845
1050.79	300.00	431.966	99.914	0.0675089
1051.88	300.00	431.963	99.914	0.0952714
1052.96	300.00	431.971	99.915	0.144936
1054.04	300.00	431.964	99.914	0.103826
1055.13	300.00	431.964	99.914	0.0573552
1056.21	300.00	431.963	99.914	2.62610e-3
1057.29	300.00	431.965	99.914	-0.0271223
1058.38	300.00	431.963	99.914	-0.0459547
1059.46	300.00	431.962	99.913	-6.93628e-3
1060.54	300.00	431.964	99.914	6.86705e-3
1061.63	300.00	431.964	99.914	-8.05858e-3
1062.71	300.00	431.964	99.914	0.0148192
1063.79	300.00	431.963	99.913	0.0185176
1064.88	300.00	431.962	99.913	0.0174799
1065.96	300.00	431.960	99.913	0.0288722
1067.04	300.00	431.962	99.913	0.0503492
1068.13	300.00	431.963	99.914	0.0563886
1069.21	300.00	431.960	99.913	0.0554565
1070.29	300.00	431.959	99.913	0.0609672
1071.38	300.00	431.961	99.913	0.0712961
1072.46	300.00	431.958	99.912	0.0794003
1073.54	300.00	431.962	99.913	0.0855060
1074.63	300.00	431.961	99.913	0.129549
1075.71	300.00	431.960	99.913	0.163922
1076.79	300.00	431.967	99.914	0.166769
1077.88	300.00	431.960	99.913	0.118983
1078.96	300.00	431.958	99.912	0.0799375
1080.04	300.00	431.960	99.913	-0.0151028
1081.13	300.00	431.959	99.913	-0.112260
1082.21	300.00	431.959	99.912	-0.172551
1083.29	300.00	431.958	99.912	-0.234049
1084.38	300.00	431.958	99.912	-0.241393
1085.46	300.00	431.954	99.911	-0.239090
1086.54	300.00	431.956	99.912	-0.244192
1087.63	300.00	431.955	99.912	-0.242229
1088.71	300.00	431.954	99.911	-0.225398
1089.79	300.00	431.955	99.912	-0.202348
1090.88	300.00	431.955	99.912	-0.204933
1091.96	300.00	431.953	99.911	-0.172417
1093.04	300.00	431.955	99.912	-0.0964750
1094.13	300.00	431.953	99.911	-0.0183580
1095.21	300.00	431.952	99.911	0.0393394
1096.29	300.00	431.956	99.912	0.0767921
1097.38	300.00	431.952	99.911	0.0907735
1098.46	300.00	431.950	99.911	0.0938639
1099.54	300.00	431.951	99.911	0.104041
1100.63	300.00	431.952	99.911	0.123865
1101.71	300.00	431.950	99.910	0.118241
1102.79	300.00	431.949	99.910	0.106646
1103.88	300.00	431.950	99.911	0.107374
1104.96	300.00	431.949	99.910	0.110289
1106.04	300.00	431.949	99.910	0.0919368
1107.13	300.00	431.949	99.910	0.0737586
1108.21	300.00	431.949	99.910	-3.36861e-4
1109.29	300.00	431.948	99.910	-0.0291195
1110.38	300.00	431.950	99.910	-0.0744393
1111.46	300.00	431.948	99.910	-0.103220
1112.54	300.00	431.946	99.910	-0.111285
1113.63	300.00	431.946	99.910	-0.110645
1114.71	300.00	431.949	99.910	-0.109546
1115.79	300.00	431.946	99.909	-0.116924
1116.88	300.00	431.945	99.909	-0.114137
1117.96	300.00	431.946	99.909	-0.114169
1119.04	300.00	431.946	99.910	-0.126220
1120.13	300.00	431.945	99.909	-0.127390
1121.21	300.00	431.944	99.909	-0.0968134
1122.29	300.00	431.944	99.909	-0.0360930
1123.38	300.00	431.945	99.909	0.0314875
1124.46	300.00	431.943	99.909	0.0549440
1125.54	300.00	431.946	99.909	0.0372596
1126.63	300.00	431.943	99.909	0.0886615
1127.71	300.00	431.942	99.909	0.0860255
1128.79	300.00	431.942	99.909	0.0403226
1129.88	300.00	431.942	99.909	0.0341965
1130.96	300.00	431.942	99.909	0.0609850
1132.04	300.00	431.941	99.908	0.0691530
1133.13	300.00	431.942	99.909	0.0623802
1134.21	300.00	431.939	99.908	0.0575899
1135.29	300.00	431.941	99.908	0.0558550
1136.38	300.00	431.940	99.908	0.0233406
1137.46	300.00	431.942	99.909	0.0159507
1138.54	300.00	431.940	99.908	0.0151699
1139.63	300.00	431.941	99.909	0.0139680
1140.71	300.00	431.940	99.908	4.79392e-3
1141.79	300.00	431.939	99.908	-0.0217201
1142.88	300.00	431.938	99.908	-0.0590642
1143.96	300.00	431.940	99.908	-0.0734935
1145.04	300.00	431.940	99.908	-0.107384
1146.13	300.00	431.939	99.908	-0.103454
1147.21	300.00	431.938	99.908	-0.0353904
1148.29	300.00	431.938	99.908	2.98272e-3
1149.38	300.00	431.939	99.908	0.0418396
1150.46	300.00	431.940	99.908	0.0837918
1151.54	300.00	431.937	99.907	0.0968158
1152.63	300.00	431.937	99.907	0.0892553
1153.71	300.00	431.935	99.907	0.0784498
1154.79	300.00	431.937	99.908	0.0456155
1155.88	300.00	431.936	99.907	7.53653e-3
1156.96	300.00	431.936	99.907	-0.0193051
1158.04	300.00	431.936	99.907	-0.0176714
1159.13	300.00	431.932	99.906	-0.0326070
1160.21	300.00	431.936	99.907	-0.0521218
1161.29	300.00	431.936	99.907	-0.0789963
1162.38	300.00	431.934	99.907	-0.0898251
1163.46	300.00	431.933	99.907	-0.0848957
1164.54	300.00	431.931	99.906	-0.0782568
1165.63	300.00	431.934	99.907	-0.0337940
1166.71	300.00	431.933	99.907	0.0186431
1167.79	300.00	431.933	99.907	0.0504835
1168.88	300.00	431.934	99.907	0.119880
1169.96	300.00	431.931	99.906	0.162256
1171.04	300.00	431.932	99.906	0.156712
1172.13	300.00	431.931	99.906	0.145625
1173.21	300.00	431.933	99.906	0.131344
1174.29	300.00	431.934	99.907	0.100219
1175.38	300.00	431.931	99.906	0.0783475
1176.46	300.00	431.930	99.906	0.0889189
1177.54	300.00	431.930	99.906	0.155491
1178.63	300.00	431.930	99.906	0.156382
1179.71	300.00	431.930	99.906	0.117926
1180.79	300.00	431.928	99.905	0.110415
1181.88	300.00	431.930	99.906	0.0946970
1182.96	300.00	431.927	99.905	0.0121763
1184.04	300.00	431.926	99.905	-0.0327197
1185.13	300.00	431.928	99.905	-0.0272852
1186.21	300.00	431.928	99.905	0.0125653
1187.29	300.00	431.927	99.905	0.0395908
1188.38	300.00	431.930	99.906	0.0665856
1189.46	300.00	431.930	99.906	0.0679790
1190.54	300.00	431.929	99.906	0.0658715
1191.63	300.00	431.924	99.904	0.0636280
1192.71	300.00	431.925	99.905	0.0669213
1193.79	300.00	431.925	99.905	0.0515635
1194.88	300.00	431.927	99.905	0.0572778
1195.96	300.00	431.925	99.905	0.0571148
1197.04	300.00	431.925	99.905	0.0364551
1198.13	300.00	431.925	99.905	6.02422e-3
1199.21	300.00	431.924	99.904	-0.0364010
1200.29	300.00	431.926	99.905	-0.0763019
1201.38	300.00	431.924	99.905	-0.103908
1202.46	300.00	431.925	99.905	-0.103306
1203.54	300.00	431.926	99.905	-0.118408
1204.63	300.00	431.925	99.905	-0.120136
1205.71	300.00	431.925	99.905	-0.110685
1206.79	300.00	431.923	99.904	-0.0983975
1207.88	300.00	431.921	99.904	-0.0826586
1208.96	300.00	431.921	99.904	-0.0172918
1210.04	300.00	431.921	99.904	0.0401427
1211.13	300.00	431.922	99.904	0.0365571
1212.21	300.00	431.923	99.904	0.0399987
1213.29	300.00	431.920	99.904	0.0809285
1214.38	300.00	431.920	99.904	0.0185962
1215.46	300.00	431.918	99.903	-0.0356071
1216.54	300.00	431.921	99.904	-0.0410896
1217.63	300.00	431.918	99.903	-0.0234154
1218.71	300.00	431.920	99.903	0.0370834
1219.79	300.00	431.920	99.903	1.28633e-3
1220.88	300.00	431.919	99.903	-0.0725969
1221.96	300.00	431.917	99.903	-0.0563297
1223.04	300.00	431.921	99.904	-8.38184e-3
1224.13	300.00	431.916	99.903	0.0176044
1225.21	300.00	431.918	99.903	0.0495482
1226.29	300.00	431.918	99.903	0.125837
1227.38	300.00	431.917	99.903	0.119514
1228.46	300.00	431.916	99.903	0.133890
1229.54	300.00	431.915	99.902	0.143203
1230.63	300.00	431.917	99.903	0.146258
1231.71	300.00	431.917	99.903	0.180284
1232.79	300.00	431.916	99.903	0.181246
1233.88	300.00	431.914	99.902	0.170343
1234.96	300.00	431.915	99.902	0.137066
1236.04	300.00	431.914	99.902	0.0786327
1237.13	300.00	431.914	99.902	-4.03782e-4
1238.21	300.00	431.915	99.902	-0.0281584
1239.29	300.00	431.915	99.902	-0.0535345
1240.38	300.00	431.914	99.902	-0.0600055
1241.46	300.00	431.914	99.902	-0.0666686
1242.54	300.00	431.912	99.902	-0.101209
1243.63	300.00	431.912	99.902	-0.154845
1244.71	300.00	431.912	99.902	-0.158991
1245.79	300.00	431.909	99.901	-0.150415
1246.88	300.00	431.913	99.902	-0.149219
1247.96	300.00	431.913	99.902	-0.149408
1249.04	300.00	431.912	99.902	-0.0442053
1250.13	300.00	431.917	99.903	-1.90041e-3
1251.21	300.00	431.914	99.902	0.0225466
1252.29	300.00	431.910	99.901	0.0145782
1253.38	300.00	431.910	99.901	-3.19211e-3
1254.46	300.00	431.906	99.900	0.0290021
1255.54	300.00	431.909	99.901	0.0561451
1256.63	300.00	431.915	99.902	3.70003e-3
1257.71	300.00	431.915	99.902	1.21035e-4
1258.79	300.00	431.904	99.900	-1.91234e-5
1259.88	300.00	431.908	99.901	-1.83979e-5
1260.96	300.00	431.911	99.902	-2.46783e-5
1262.04	300.00	431.908	99.901	-2.54391e-5
1263.13	300.00	431.907	99.901	-4.03563e-5
1264.21	300.00	431.907	99.901	-6.35005e-5
1265.29	300.64	431.910	99.901	-9.63425e-5
1266.38	306.53	431.904	99.900	-1.49165e-4
1267.46	315.94	431.911	99.901	-2.38318e-4
1268.54	325.89	431.902	99.899	-3.81032e-4
1269.63	336.06	431.906	99.900	-6.02265e-4
1270.71	346.56	431.900	99.899	-9.09627e-4
1271.79	357.40	431.888	99.896	-1.26304e-3
1272.88	368.41	431.874	99.893	-1.59377e-3
1273.96	379.47	431.841	99.885	-1.87672e-3
1275.04	390.50	431.781	99.871	-2.10282e-3
1276.13	401.47	431.674	99.847	-2.25323e-3
1277.21	412.38	431.491	99.804	-2.32754e-3
1278.29	423.25	431.224	99.743	-2.32365e-3
1279.38	434.12	430.940	99.677	-2.24232e-3
1280.46	444.97	430.767	99.637	-2.08398e-3
1281.54	455.83	430.711	99.624	-1.85060e-3
1282.63	466.69	430.697	99.621	-1.55043e-3
1283.71	477.56	430.699	99.621	-1.19917e-3
1284.79	488.43	430.698	99.621	-8.25469e-4
1285.88	499.31	430.697	99.621	-4.74845e-4
1286.96	510.18	430.697	99.621	-2.07276e-4
1288.04	521.04	430.696	99.620	-6.15639e-5
1289.13	531.90	430.697	99.621	-1.05064e-5
1290.21	542.76	430.697	99.621	1.52142e-6
1291.29	553.62	430.698	99.621	3.91034e-6
1292.38	564.49	430.695	99.620	4.92965e-6
1293.46	575.34	430.700	99.621	5.08108e-6
1294.54	586.20	430.701	99.622	6.29524e-6
1295.63	597.05	430.699	99.621	7.08893e-6
1296.71	607.91	430.700	99.621	7.78918e-6
1297.79	618.76	430.698	99.621	9.18954e-6
1298.88	629.62	430.703	99.622	9.13958e-6
1299.96	640.47	430.699	99.621	1.08782e-5
1301.04	651.32	430.698	99.621	1.21732e-5
1302.13	662.18	430.698	99.621	1.40678e-5
1303.21	673.03	430.698	99.621	1.57820e-5
1304.29	683.88	430.705	99.622	1.77204e-5
1305.38	694.73	430.704	99.622	1.89919e-5
1306.46	705.58	430.705	99.623	1.89700e-5
1307.54	716.43	430.708	99.623	1.93512e-5
1308.63	727.28	430.706	99.623	2.04801e-5
1309.71	738.12	430.709	99.623	2.01115e-5
1310.79	748.97	430.709	99.623	2.14508e-5
1311.88	759.82	430.711	99.624	1.99988e-5
1312.96	770.67	430.711	99.624	2.17021e-5
1314.04	781.51	430.707	99.623	1.98796e-5
1314.54	786.52	430.710	99.624	2.16020e-5