File: data/TGA/005d-L_M/L4_000001 -temp_104 AMU_XIC
Time	Ion Current
min	mA
0.00	1.20372e-4
0.97	1.31146e-4
1.94	1.83164e-4
2.91	1.37402e-4
3.88	1.41689e-4
4.85	1.29756e-4
5.82	1.26628e-4
6.79	1.26860e-4
7.76	1.40646e-4
8.73	1.50841e-4
9.70	1.37981e-4
10.67	8.85121e-5
11.64	1.18634e-4
12.61	2.05524e-4
13.58	9.53474e-5
14.55	8.45730e-5
15.52	1.16433e-4
16.49	9.16401e-5
17.46	7.24084e-5
18.43	6.74267e-5
19.40	1.08902e-4
20.37	1.31957e-4
21.34	5.86219e-5
22.31	1.21878e-4
23.28	4.71524e-5
24.25	1.21994e-4
25.22	6.91645e-5
26.19	9.53474e-5
27.16	8.95547e-5
28.13	1.04732e-4
29.10	1.18518e-4
30.07	1.08323e-4
31.04	9.75486e-5
32.01	6.08231e-5
32.98	6.18658e-5
33.95	7.32194e-5
34.92	1.00677e-4
35.89	1.09134e-4
36.86	3.60304e-5
37.83	7.40304e-5
38.80	7.18292e-5
39.77	7.18292e-5
40.74	3.24390e-5
41.71	8.02865e-5
42.68	4.06646e-5
43.65	4.51829e-5
44.62	4.14755e-5
45.59	7.37987e-5
46.56	6.87011e-5
47.53	4.98170e-5
48.50	5.28292e-5
49.47	1.01372e-4
50.44	2.61829e-5
51.41	5.72316e-5
52.38	3.59146e-5
53.35	4.22865e-5
54.32	4.59938e-5
55.29	5.34085e-5
56.26	4.30975e-5
57.23	1.99268e-5
58.20	1.91158e-5
59.17	7.87804e-5
60.14	3.09329e-5
61.11	4.85426e-5
62.08	6.70792e-5
63.05	4.06646e-5
64.02	8.31828e-5
64.99	5.27133e-5
65.96	2.82682e-5
66.93	2.81524e-5
67.90	5.15548e-5
68.87	1.51768e-5
69.84	1.06585e-5
70.81	3.95060e-5
71.78	3.67256e-5
72.75	1.56402e-5
73.72	4.62255e-5
74.69	2.90792e-5
75.66	4.03170e-5
76.63	2.71097e-5
77.60	3.13963e-5
78.57	4.63414e-5
79.54	1.23963e-5
80.51	4.10121e-5
81.48	1.76097e-5
82.45	3.26707e-5
83.42	3.11646e-5
84.39	4.72682e-5
85.36	3.68414e-5
86.33	3.97377e-5
87.30	3.76524e-5
88.27	3.62621e-5
89.24	1.00000e-13
90.21	2.88475e-5
91.18	1.05427e-5
92.15	1.00000e-13
93.12	2.50244e-5
94.09	1.35549e-5
95.06	1.85366e-5
96.03	2.32865e-5
97.00	3.29024e-5
97.97	1.65670e-5
98.94	1.00000e-13
99.91	1.58719e-5
100.88	4.28658e-6
101.85	9.38413e-6
102.82	2.94268e-5
103.79	5.32926e-6
104.76	1.00000e-13
105.73	5.09755e-6
106.70	1.36707e-5
107.67	2.64146e-5
108.64	1.37866e-5
109.60	1.00000e-13
110.58	3.69573e-5
111.55	1.32073e-5
112.52	1.77256e-5
113.49	1.00000e-13
114.46	4.63414e-6
115.43	1.00000e-13
116.40	8.57316e-6
117.36	1.39024e-6
118.33	1.00000e-13
119.30	1.12378e-5
120.28	2.56036e-5
121.25	8.10974e-7
122.22	1.06585e-5
123.18	1.00000e-13
124.15	9.84755e-6
125.12	9.96340e-6
126.10	1.48292e-5
127.06	1.79573e-5
128.03	1.67988e-5
129.00	1.00000e-13
129.98	1.40183e-5
130.94	3.47560e-6
131.92	1.00000e-13
132.89	1.00000e-13
133.86	5.90853e-6
134.82	2.91951e-5
135.79	1.00000e-13
136.76	1.39024e-6
137.74	9.38413e-6
138.70	1.00000e-13
139.67	1.00000e-13
140.64	2.43292e-6
141.61	3.59146e-6
142.59	1.00000e-13
143.56	1.00000e-13
144.52	6.95121e-6
145.49	2.53719e-5
146.46	1.00000e-13
147.44	1.00000e-13
148.40	1.00000e-13
149.37	1.00000e-13
150.35	1.00000e-13
151.32	1.15853e-7
152.28	3.67256e-5
153.25	2.31707e-7
154.23	2.25914e-5
155.20	8.10974e-6
156.16	5.21341e-6
157.13	1.00000e-13
158.11	1.00000e-13
159.08	9.73169e-6
160.04	1.00000e-13
161.02	1.00000e-13
161.99	7.18292e-6
162.95	9.61584e-6
163.92	1.55244e-5
164.89	2.49085e-5
165.87	1.00000e-13
166.83	3.93902e-6
167.81	1.00000e-13
168.77	1.00000e-13
169.74	1.50610e-6
170.71	1.00000e-13
171.68	3.09329e-5
172.65	1.00000e-13
173.62	1.41341e-5
174.59	1.00000e-13
175.56	1.00000e-13
176.53	1.00000e-13
177.50	1.00000e-13
178.47	2.08536e-6
179.44	1.49451e-5
180.41	1.00000e-13
181.38	9.61584e-6
182.35	1.00000e-13
183.32	1.00000e-13
184.29	4.85426e-5
185.26	1.00000e-13
186.23	1.00000e-13
187.20	1.00000e-13
188.17	1.00000e-13
189.14	4.17073e-6
190.11	2.01585e-5
191.08	1.32073e-5
192.05	2.45609e-5
193.02	4.74999e-6
193.99	1.05427e-5
194.96	1.40183e-5
195.93	1.14695e-5
196.90	1.00000e-13
197.87	6.95121e-7
198.84	5.79267e-7
199.81	1.85366e-6
200.78	1.00000e-13
201.75	5.21341e-6
202.72	9.61584e-6
203.69	1.00000e-13
204.66	1.00000e-13
205.63	1.00000e-13
206.60	1.00000e-13
207.57	1.00000e-13
208.54	1.00000e-13
209.51	5.09755e-6
210.48	1.00000e-13
211.45	1.00000e-13
212.42	1.00000e-13
213.39	1.00000e-13
214.36	1.91158e-5
215.33	1.00000e-13
216.30	1.00000e-13
217.27	1.00000e-13
218.24	1.40183e-5
219.21	1.00000e-13
220.18	5.90853e-6
221.15	1.00000e-13
222.12	1.00000e-13
223.09	1.00000e-13
224.06	3.47560e-7
225.03	2.89634e-6
226.00	1.00000e-13
226.97	1.00000e-13
227.94	1.00000e-13
228.91	1.00000e-13
229.88	1.00000e-13
230.85	1.00000e-13
231.82	1.94634e-5
232.79	1.90000e-5
233.76	1.00000e-13
234.73	1.00000e-13
235.70	3.12804e-6
236.67	4.63414e-7
237.64	2.81524e-5
238.61	1.00000e-13
239.58	1.00000e-13
240.55	1.00000e-13
241.52	2.27073e-5
242.49	1.00000e-13
243.46	1.00000e-13
244.43	1.00000e-13
245.40	1.00000e-13
246.37	1.00000e-13
247.34	1.00000e-13
248.31	2.43292e-6
249.28	1.00000e-13
250.25	1.00000e-13
251.22	1.62195e-6
252.19	1.00000e-13
253.16	1.00000e-13
254.13	2.66463e-6
255.10	1.00000e-13
256.07	1.00000e-13
257.04	1.00000e-13
258.01	1.00000e-13
258.98	2.25914e-5
259.95	1.00000e-13
260.92	1.00000e-13
261.89	1.27439e-6
262.86	1.00000e-13
263.83	1.00000e-13
264.80	8.80486e-6
265.77	9.26828e-7
266.74	1.74939e-5
267.71	5.21341e-6
268.68	8.45730e-6
269.65	1.00000e-13
270.62	1.00000e-13
271.59	1.00000e-13
272.56	1.00000e-13
273.53	1.00000e-13
274.50	3.01219e-5
275.47	1.00000e-13
276.44	1.00000e-13
277.41	1.00000e-13
278.38	6.25609e-6
279.35	3.61463e-5
280.32	1.00000e-13
281.29	1.36707e-5
282.26	3.47560e-6
283.23	1.00000e-13
284.20	1.00000e-13
285.17	1.00000e-13
286.14	1.00000e-13
287.11	1.00000e-13
288.08	1.00000e-13
289.05	1.00000e-13
290.02	1.00000e-13
290.99	1.00000e-13
291.96	1.00000e-13
292.93	1.00000e-13
293.90	1.00000e-13
294.87	1.00000e-13
295.84	1.00000e-13
296.81	1.00000e-13
297.78	1.00000e-13
298.75	1.00000e-13
299.72	1.00000e-13
300.69	9.38413e-6
301.66	1.00000e-13
302.63	1.00000e-13
303.60	1.00000e-13
304.57	2.45609e-5
305.54	7.99389e-6
306.51	1.00000e-13
307.48	1.15853e-6
308.45	2.54878e-6
309.42	1.96951e-6
310.39	7.18292e-6
311.36	1.00000e-13
312.33	1.00000e-13
313.30	1.00000e-13
314.27	1.00000e-13
315.24	1.00000e-13
316.21	1.00000e-13
317.18	1.00000e-13
318.15	1.00000e-13
319.12	1.00000e-13
320.09	1.00000e-13
321.06	1.00000e-13
322.03	3.93902e-6
323.00	1.00000e-13
323.97	8.10974e-6
324.94	1.73780e-6
325.91	3.59146e-6
326.88	1.00000e-13
327.85	1.00000e-13
328.82	1.00000e-13
329.79	1.49451e-5
330.76	1.00000e-13
331.73	1.00000e-13
332.70	4.98170e-6
333.67	1.00000e-13
334.64	1.00000e-13
335.61	1.00000e-13
336.58	1.00000e-13
337.55	1.00000e-13
338.52	1.00000e-13
339.49	1.00000e-13
340.46	1.00000e-13
341.43	2.78048e-6
342.40	1.00000e-13
343.37	1.00000e-13
344.34	1.00000e-13
345.31	1.00000e-13
346.28	1.00000e-13
347.25	2.43292e-6
348.22	1.88841e-5
349.19	1.00000e-13
350.16	1.00000e-13
351.13	1.13536e-5
352.10	1.00000e-13
353.07	1.88841e-5
354.04	2.43292e-5
355.01	1.00000e-13
355.98	1.00000e-13
356.95	1.00000e-13
357.92	1.00000e-13
358.89	1.00000e-13
359.86	1.00000e-13
360.83	1.40183e-5
361.80	3.12804e-6
362.77	1.00000e-13
363.74	1.05427e-5
364.71	1.00000e-13
365.68	9.26828e-6
366.65	1.07744e-5
367.62	1.00000e-13
368.59	1.00000e-13
369.56	1.06585e-5
370.52	1.17012e-5
371.50	1.00000e-13
372.47	1.00000e-13
373.44	1.00000e-13
374.41	1.00000e-13
375.38	1.00000e-13
376.34	2.06219e-5
377.32	1.00000e-13
378.29	1.00000e-13
379.25	1.00000e-13
380.22	1.00000e-13
381.20	4.40243e-6
382.16	1.00000e-13
383.13	2.43292e-6
384.11	1.00000e-13
385.08	1.00000e-13
386.05	2.43292e-6
387.02	1.00000e-13
387.99	1.00000e-13
388.96	1.00000e-13
389.93	1.00000e-13
390.89	1.00000e-13
391.86	1.00000e-13
392.83	1.00000e-13
393.81	1.00000e-13
394.78	1.00000e-13
395.75	1.00000e-13
396.71	1.00000e-13
397.69	1.00000e-13
398.65	1.00000e-13
399.63	1.00000e-13
400.60	2.78048e-6
401.57	1.00000e-13
402.54	1.00000e-13
403.51	1.00000e-13
404.47	1.00000e-13
405.44	1.15853e-7
406.41	1.37866e-5
407.38	1.00000e-13
408.35	1.00000e-13
409.32	1.00000e-13
410.29	1.00000e-13
411.26	1.00000e-13
412.23	3.29024e-5
413.20	1.00000e-13
414.18	1.00000e-13
415.15	6.71950e-6
416.12	7.87804e-6
417.08	1.00000e-13
418.05	1.00000e-13
419.02	1.00000e-13
419.99	1.00000e-13
420.96	1.00000e-13
421.93	1.00000e-13
422.90	1.00000e-13
423.87	1.00000e-13
424.84	1.00000e-13
425.81	1.00000e-13
426.79	1.00000e-13
427.75	1.00000e-13
428.72	7.76218e-6
429.69	1.00000e-13
430.66	1.00000e-13
431.63	1.00000e-13
432.60	1.00000e-13
433.57	1.00000e-13
434.54	1.00000e-13
435.51	1.00000e-13
436.48	1.00000e-13
437.46	1.00000e-13
438.43	1.00000e-13
439.40	1.00000e-13
440.36	1.00000e-13
441.34	1.00000e-13
442.30	1.00000e-13
443.27	1.00000e-13
444.24	1.00000e-13
445.21	1.00000e-13
446.19	1.00000e-13
447.16	5.67682e-6
448.12	1.00000e-13
449.09	1.00000e-13
450.06	1.00000e-13
451.03	1.00000e-13
452.00	1.00000e-13
452.97	1.00000e-13
453.94	1.00000e-13
454.91	1.12378e-5
455.88	1.00000e-13
456.85	1.00000e-13
457.82	1.00000e-13
458.79	3.01219e-6
459.76	1.00000e-13
460.73	1.00000e-13
461.70	1.00000e-13
462.67	1.00000e-13
463.64	1.00000e-13
464.61	1.00000e-13
465.58	1.00000e-13
466.55	1.00000e-13
467.52	6.95121e-7
468.49	1.00000e-13
469.46	1.87683e-5
470.43	1.00000e-13
471.40	1.00000e-13
472.37	8.80486e-6
473.34	1.00000e-13
474.31	8.10974e-6
475.28	1.27439e-6
476.25	1.00000e-13
477.22	1.00000e-13
478.19	1.00000e-13
479.16	1.00000e-13
480.13	1.00000e-13
481.10	8.57316e-6
482.07	1.00000e-13
483.04	1.00000e-13
484.01	1.00000e-13
484.98	2.66463e-6
485.95	1.00000e-13
486.92	1.00000e-13
487.89	3.61463e-5
488.86	1.00000e-13
489.83	1.00000e-13
490.80	1.58719e-5
491.77	1.00000e-13
492.74	2.59512e-5
493.71	1.00000e-13
494.68	1.00000e-13
495.65	1.00000e-13
496.62	3.53353e-5
497.59	1.00000e-13
498.56	1.00000e-13
499.53	1.00000e-13
500.50	1.00000e-13
501.47	1.00000e-13
502.44	1.00000e-13
503.41	1.00000e-13
504.38	1.00000e-13
505.35	1.00000e-13
506.32	1.00000e-13
507.29	1.00000e-13
508.26	1.00000e-13
509.23	1.00000e-13
510.20	1.00000e-13
511.17	1.00000e-13
512.14	1.00000e-13
513.11	1.00000e-13
514.08	2.52561e-5
515.05	1.00000e-13
516.02	4.80792e-5
516.99	1.00000e-13
517.96	1.00000e-13
518.93	1.15853e-7
519.90	1.00000e-13
520.87	3.12804e-6
521.84	1.00000e-13
522.81	1.00000e-13
523.78	1.00000e-13
524.75	1.00000e-13
525.72	1.00000e-13
526.69	1.00000e-13
527.66	8.10974e-6
528.63	1.00000e-13
529.60	1.00000e-13
530.57	1.00000e-13
531.54	1.00000e-13
532.51	1.00000e-13
533.48	3.12804e-6
534.45	1.00000e-13
535.42	5.21341e-6
536.39	1.00000e-13
537.36	1.00000e-13
538.33	1.20488e-5
539.30	1.00000e-13
540.27	1.00000e-13
541.24	1.00000e-13
542.21	1.32073e-5
543.18	1.00000e-13
544.15	1.00000e-13
545.12	1.00000e-13
546.09	1.00000e-13
547.06	1.12378e-5
548.03	1.00000e-13
549.00	1.00000e-13
549.97	1.00000e-13
550.94	1.00000e-13
551.91	1.00000e-13
552.88	1.00000e-13
553.85	1.00000e-13
554.82	1.00000e-13
555.79	1.00000e-13
556.76	1.00000e-13
557.73	1.00000e-13
558.70	1.00000e-13
559.67	1.08902e-5
560.64	1.00000e-13
561.61	1.62195e-6
562.58	1.15853e-5
563.55	1.00000e-13
564.52	1.00000e-13
565.49	1.00000e-13
566.46	1.30914e-5
567.43	2.54878e-6
568.40	1.00000e-13
569.37	1.00000e-13
570.34	1.00000e-13
571.31	1.00000e-13
572.28	1.00000e-13
573.25	9.73169e-6
574.22	1.00000e-13
575.19	1.00000e-13
576.16	1.00000e-13
577.13	1.00000e-13
578.10	1.00000e-13
579.07	1.00000e-13
580.04	1.00000e-13
581.01	1.00000e-13
581.98	1.00000e-13
582.95	1.00000e-13
583.92	1.00000e-13
584.89	1.00000e-13
585.86	1.00793e-5
586.83	2.54878e-6
587.80	1.00000e-13
588.77	1.00000e-13
589.74	1.00000e-13
590.71	1.00000e-13
591.68	4.51829e-6
592.65	1.00000e-13
593.62	1.00000e-13
594.59	1.00000e-13
595.56	5.32926e-6
596.53	1.00000e-13
597.50	3.93902e-6
598.47	4.86585e-6
599.44	1.00000e-13
600.41	1.00000e-13
601.38	1.00000e-13
602.35	1.00000e-13
603.32	1.00000e-13
604.29	1.00000e-13
605.26	1.00000e-13
606.23	1.00000e-13
607.20	1.00000e-13
608.17	1.00000e-13
609.14	1.00000e-13
610.11	1.39024e-5
611.08	1.64512e-5
612.05	1.00000e-13
613.02	1.00000e-13
613.99	1.00000e-13
614.96	1.00000e-13
615.93	2.89634e-5
616.90	1.00000e-13
617.87	1.00000e-13
618.84	1.00000e-13
619.81	1.32073e-5
620.77	1.00000e-13
621.75	9.84755e-6
622.72	1.00000e-13
623.69	1.00000e-13
624.65	1.00000e-13
625.63	1.00000e-13
626.60	6.60365e-6
627.56	1.00000e-13
628.53	2.43292e-5
629.51	1.43658e-5
630.48	1.00000e-13
631.45	1.00000e-13
632.42	1.00000e-13
633.39	1.00000e-13
634.35	1.00000e-13
635.33	1.00000e-13
636.30	1.00000e-13
637.27	1.00000e-13
638.24	1.00000e-13
639.21	1.00000e-13
640.18	1.00000e-13
641.15	1.00000e-13
642.11	2.20122e-5
643.09	2.18963e-5
644.06	1.00000e-13
645.02	1.00000e-13
646.00	5.79267e-6
646.96	1.00000e-13
647.93	1.00000e-13
648.90	1.15853e-6
649.88	1.00000e-13
650.85	1.00000e-13
651.81	1.00000e-13
652.78	2.59512e-5
653.75	1.00000e-13
654.72	1.00000e-13
655.69	4.63414e-7
656.66	1.00000e-13
657.63	1.00000e-13
658.60	1.00000e-13
659.58	1.00000e-13
660.54	1.00000e-13
661.51	1.00000e-13
662.49	1.00000e-13
663.46	1.00000e-13
664.43	1.00000e-13
665.39	2.08536e-6
666.36	1.00000e-13
667.33	1.00000e-13
668.30	1.00000e-13
669.27	1.00000e-13
670.24	1.00000e-13
671.21	1.15853e-7
672.18	1.00000e-13
673.15	1.00000e-13
674.13	1.00000e-13
675.09	1.00000e-13
676.07	1.00000e-13
677.03	1.00000e-13
678.00	1.00000e-13
678.97	1.00000e-13
679.95	1.94634e-5
680.92	1.00000e-13
681.88	1.00000e-13
682.85	1.00000e-13
683.83	9.61584e-6
684.79	1.00000e-13
685.76	1.00000e-13
686.73	3.00061e-5
687.70	8.22560e-6
688.67	2.81524e-5
689.64	1.00000e-13
690.61	1.00000e-13
691.58	1.73780e-6
692.56	1.00000e-13
693.52	1.00000e-13
694.49	1.00000e-13
695.46	1.00000e-13
696.43	1.00000e-13
697.40	1.00000e-13
698.37	1.00000e-13
699.34	1.44817e-5
700.31	1.00000e-13
701.28	1.00000e-13
702.25	1.04268e-5
703.22	1.00000e-13
704.19	1.04268e-6
705.16	1.00000e-13
706.13	1.00000e-13
707.10	1.00000e-13
708.07	1.00000e-13
709.04	1.00000e-13
710.01	1.00000e-13
710.98	1.00000e-13
711.95	1.00000e-13
712.92	1.30914e-5
713.89	1.00000e-13
714.86	1.00000e-13
715.83	3.98536e-5
716.80	1.00000e-13
717.77	1.00000e-13
718.74	3.24390e-6
719.71	4.54146e-5
720.68	3.24390e-6
721.65	1.00000e-13
722.62	1.00000e-13
723.59	1.00000e-13
724.56	1.00000e-13
725.53	1.00000e-13
726.50	1.00000e-13
727.47	1.00000e-13
728.44	1.00000e-13
729.41	1.40183e-5
730.38	1.00000e-13
731.35	1.00000e-13
732.32	1.00000e-13
733.29	1.00000e-13
734.26	5.64206e-5
735.23	1.00000e-13
736.20	3.20914e-5
737.17	1.00000e-13
738.14	3.34817e-5
739.11	1.00000e-13
740.08	1.00000e-13
741.05	1.00000e-13
742.02	1.00000e-13
742.99	1.00000e-13
743.96	1.00000e-13
744.93	1.00000e-13
745.90	1.00000e-13
746.87	1.00000e-13
747.84	1.00000e-13
748.81	1.00000e-13
749.78	1.00000e-13
750.75	1.85366e-6
751.72	1.00000e-13
752.69	1.00000e-13
753.66	1.00000e-13
754.63	1.00000e-13
755.60	1.00000e-13
756.57	1.00000e-13
757.54	1.78414e-5
758.51	3.35975e-6
759.48	9.96340e-6
760.45	2.78048e-6
761.42	1.00000e-13
762.39	1.00000e-13
763.36	1.00000e-13
764.33	1.35549e-5
765.30	1.00000e-13
766.27	1.00000e-13
767.24	1.00000e-13
768.21	1.00000e-13
769.18	2.17805e-5
770.15	1.00000e-13
771.12	8.34145e-6
772.09	1.00000e-13
773.06	1.00000e-13
774.03	1.00000e-13
775.00	1.00000e-13
775.97	1.00000e-13
776.94	1.00000e-13
777.91	1.00000e-13
778.88	1.00000e-13
779.85	1.00000e-13
780.82	1.00000e-13
781.79	1.00000e-13
782.76	1.00000e-13
783.73	1.00000e-13
784.70	1.00000e-13
785.67	1.00000e-13
786.64	1.00000e-13
787.61	1.00000e-13
788.58	1.00000e-13
789.55	1.11219e-5
790.52	6.95121e-6
791.49	1.00000e-13
792.46	1.15853e-6
793.43	3.01219e-6
794.40	1.00000e-13
795.37	1.00000e-13
796.34	1.00000e-13
797.31	1.00000e-13
798.28	1.00000e-13
799.25	1.00000e-13
800.22	1.00000e-13
801.19	1.00000e-13
802.16	1.00000e-13
803.13	1.00000e-13
804.10	1.00000e-13
805.07	1.00000e-13
806.04	1.00000e-13
807.01	1.00000e-13
807.98	1.00000e-13
808.95	1.00000e-13
809.92	3.12804e-6
810.89	1.00000e-13
811.86	1.00000e-13
812.83	1.35549e-5
813.80	1.00000e-13
814.77	1.00793e-5
815.74	1.00000e-13
816.71	1.00000e-13
817.68	1.00000e-13
818.65	1.00000e-13
819.62	1.00000e-13
820.59	5.44511e-6
821.56	1.00000e-13
822.53	1.00000e-13
823.50	1.00000e-13
824.47	1.00000e-13
825.44	1.00000e-13
826.41	1.00000e-13
827.38	1.00000e-13
828.35	1.00000e-13
829.32	1.00000e-13
830.29	1.00000e-13
831.26	1.00000e-13
832.23	1.00000e-13
833.20	1.00000e-13
834.17	1.00000e-13
835.14	1.00000e-13
836.11	1.00000e-13
837.08	8.57316e-6
838.05	1.00000e-13
839.02	3.82316e-6
839.99	1.00000e-13
840.96	1.00000e-13
841.93	1.00000e-13
842.90	2.89634e-6
843.87	1.00000e-13
844.84	1.91158e-5
845.81	6.95121e-6
846.78	1.00000e-13
847.75	1.00000e-13
848.72	2.12012e-5
849.69	1.00000e-13
850.66	1.00000e-13
851.63	8.10974e-7
852.60	1.00000e-13
853.57	1.00000e-13
854.54	1.00000e-13
855.51	1.00000e-13
856.48	1.00000e-13
857.45	1.00000e-13
858.42	1.00000e-13
859.39	1.00000e-13
860.36	1.00000e-13
861.33	1.00000e-13
862.30	5.79267e-7
863.27	1.00000e-13
864.24	1.35549e-5
865.21	6.95121e-6
866.18	5.56097e-6
867.15	8.10974e-7
868.12	1.00000e-13
869.09	1.00000e-13
870.06	1.00000e-13
871.03	1.21646e-5
872.00	1.00000e-13
872.97	1.00000e-13
873.94	1.00000e-13
874.91	1.00000e-13
875.88	1.00000e-13
876.85	1.00000e-13
877.82	1.00000e-13
878.79	2.35183e-5
879.76	4.98170e-6
880.73	1.00000e-13
881.70	1.00000e-13
882.67	1.58719e-5
883.64	1.00000e-13
884.61	1.00000e-13
885.58	3.93902e-6
886.54	1.00000e-13
887.51	1.00000e-13
888.49	1.00000e-13
889.45	1.00000e-13
890.43	4.40243e-6
891.40	1.00000e-13
892.37	1.15853e-7
893.33	1.21646e-5
894.30	1.00000e-13
895.28	1.00000e-13
896.24	3.04695e-5
897.22	1.00000e-13
898.19	1.00000e-13
899.15	1.00000e-13
900.13	1.00000e-13
901.09	1.00000e-13
902.06	1.00000e-13
903.03	1.00000e-13
904.01	1.00000e-13
904.97	1.00000e-13
905.95	5.79267e-6
906.91	1.00000e-13
907.89	1.00000e-13
908.85	1.00000e-13
909.83	1.00000e-13
910.79	1.96951e-6
911.77	1.00000e-13
912.74	1.67988e-5
913.70	1.00000e-13
914.68	2.89634e-6
915.64	1.04268e-5
916.61	1.00000e-13
917.59	1.00000e-13
918.56	1.00000e-13
919.53	1.00000e-13
920.49	1.00000e-13
921.46	1.00000e-13
922.43	1.00000e-13
923.41	1.00000e-13
924.37	1.00000e-13
925.35	1.00000e-13
926.31	1.00000e-13
927.29	1.00000e-13
928.26	1.00000e-13
929.22	1.00000e-13
930.19	1.00000e-13
931.17	1.00000e-13
932.14	1.00000e-13
933.10	1.00000e-13
934.08	1.96951e-6
935.04	1.00000e-13
936.02	1.00000e-13
936.98	1.00000e-13
937.95	1.00000e-13
938.92	1.00000e-13
939.90	1.00000e-13
940.87	1.15853e-6
941.84	1.00000e-13
942.80	1.00000e-13
943.78	1.00000e-13
944.74	1.00000e-13
945.72	1.00000e-13
946.68	1.00000e-13
947.65	1.03110e-5
948.62	1.00000e-13
949.59	7.64633e-6
950.56	9.38413e-6
951.54	1.00000e-13
952.50	2.08536e-6
953.48	1.00000e-13
954.44	1.00000e-13
955.41	1.00000e-13
956.38	1.00000e-13
957.35	1.00000e-13
958.32	1.00000e-13
959.29	1.00000e-13
960.26	1.00000e-13
961.23	1.00000e-13
962.20	1.00000e-13
963.17	1.00000e-13
964.14	1.00000e-13
965.12	1.00000e-13
966.08	1.00000e-13
967.05	3.64938e-5
968.02	6.95121e-7
968.99	1.00000e-13
969.96	1.00000e-13
970.93	1.00000e-13
971.90	1.00000e-13
972.87	1.00000e-13
973.85	1.00000e-13
974.81	1.00000e-13
975.78	1.00000e-13
976.75	1.00000e-13
977.72	1.00000e-13
978.69	1.00000e-13
979.66	2.66463e-6
980.63	1.00000e-13
981.60	1.00000e-13
982.57	1.00000e-13
983.54	1.00000e-13
984.51	1.00000e-13
985.48	1.00000e-13
986.45	1.00000e-13
987.42	1.00000e-13
988.39	1.00000e-13
989.36	1.00000e-13
990.33	1.23963e-5
991.30	1.00000e-13
992.27	1.84207e-5
993.24	1.00000e-13
994.21	1.00000e-13
995.18	1.00000e-13
996.15	1.00000e-13
997.12	1.00000e-13
998.09	1.00000e-13
999.06	1.00000e-13
1000.03	1.00000e-13
1001.00	7.53048e-6
1001.97	1.00000e-13
1002.94	1.00000e-13
1003.91	8.92072e-6
1004.88	2.01585e-5
1005.85	8.68901e-6
1006.82	1.00000e-13
1007.79	1.00000e-13
1008.76	1.00000e-13
1009.73	1.00000e-13
1010.70	2.08536e-6
1011.67	1.00000e-13
1012.64	3.01219e-6
1013.61	1.00000e-13
1014.58	1.00000e-13
1015.55	1.00000e-13
1016.52	1.00000e-13
1017.49	1.00000e-13
1018.46	1.00000e-13
1019.43	1.00000e-13
1020.40	1.00000e-13
1021.37	1.00000e-13
1022.34	5.09755e-6
1023.31	1.81890e-5
1024.28	1.37866e-5
1025.25	1.00000e-13
1026.22	1.00000e-13
1027.19	1.00000e-13
1028.16	2.66463e-6
1029.13	1.00000e-13
1030.10	1.00000e-13
1031.07	1.00000e-13
1032.04	1.00000e-13
1033.01	1.00000e-13
1033.98	1.00000e-13
1034.95	1.00000e-13
1035.92	1.00000e-13
1036.89	1.00000e-13
1037.86	1.00000e-13
1038.83	1.00000e-13
1039.80	1.00000e-13
1040.77	1.00000e-13
1041.74	1.00000e-13
1042.71	1.00000e-13
1043.68	1.00000e-13
1044.65	3.01219e-6
1045.62	4.63414e-7
1046.59	1.00000e-13
1047.56	1.00000e-13
1048.53	1.00000e-13
1049.50	1.00000e-13
1050.47	1.00000e-13
1051.44	9.15242e-6
1052.41	1.00000e-13
1053.38	1.00000e-13
1054.35	5.44511e-6
1055.32	1.00000e-13
1056.29	1.00000e-13
1057.26	1.00000e-13
1058.23	1.00000e-13
1059.20	1.00000e-13
1060.17	1.00000e-13
1061.14	1.00000e-13
1062.11	1.00000e-13
1063.08	4.05487e-6
1064.05	1.00000e-13
1065.02	1.00000e-13
1065.99	3.24390e-6
1066.96	1.00000e-13
1067.93	1.00000e-13
1068.90	1.00000e-13
1069.87	1.00000e-13
1070.84	1.00000e-13
1071.81	1.00000e-13
1072.78	1.00000e-13
1073.75	1.00000e-13
1074.72	1.00000e-13
1075.69	1.00000e-13
1076.66	1.00000e-13
1077.63	3.59146e-6
1078.60	1.00000e-13
1079.57	1.00000e-13
1080.54	1.00000e-13
1081.51	1.00000e-13
1082.48	1.00000e-13
1083.45	7.41462e-6
1084.42	1.00000e-13
1085.39	1.47134e-5
1086.36	1.00000e-13
1087.33	4.40243e-6
1088.30	1.00000e-13
1089.27	1.00000e-13
1090.24	1.00000e-13
1091.21	1.00000e-13
1092.18	1.00000e-13
1093.15	3.93902e-6
1094.12	1.00000e-13
1095.09	1.00000e-13
1096.06	1.00000e-13
1097.03	1.00000e-13
1098.00	7.64633e-6
1098.97	1.00000e-13
1099.94	1.00000e-13
1100.91	1.00000e-13
1101.88	1.00000e-13
1102.85	1.00000e-13
1103.82	2.43292e-6
1104.79	1.00000e-13
1105.76	1.00000e-13
1106.73	1.00000e-13
1107.70	1.00000e-13
1108.67	1.00000e-13
1109.64	1.04268e-6
1110.61	1.00000e-13
1111.58	1.00000e-13
1112.55	4.40243e-6
1113.52	5.79267e-7
1114.49	1.00000e-13
1115.46	1.00000e-13
1116.43	1.00000e-13
1117.40	1.00000e-13
1118.37	1.00000e-13
1119.34	1.00000e-13
1120.31	1.00000e-13
1121.28	2.66463e-6
1122.25	1.00000e-13
1123.22	1.00000e-13
1124.19	5.79267e-6
1125.16	1.00000e-13
1126.13	1.00000e-13
1127.10	1.00000e-13
1128.07	1.00000e-13
1129.04	1.00000e-13
1130.01	5.32926e-6
1130.98	1.00000e-13
1131.95	1.00000e-13
1132.92	1.00000e-13
1133.89	1.00000e-13
1134.86	1.00000e-13
1135.83	1.00000e-13
1136.80	1.00000e-13
1137.77	1.93475e-5
1138.74	1.00000e-13
1139.71	1.00000e-13
1140.68	1.00000e-13
1141.65	1.00000e-13
1142.62	1.00000e-13
1143.59	1.00000e-13
1144.56	1.00000e-13
1145.53	1.00000e-13
1146.50	1.00000e-13
1147.47	1.00000e-13
1148.44	1.00000e-13
1149.41	1.00000e-13
1150.38	1.00000e-13
1151.35	1.00000e-13
1152.32	1.00000e-13
1153.29	1.00000e-13
1154.26	1.00000e-13
1155.23	5.56097e-6
1156.20	1.00000e-13
1157.17	1.00000e-13
1158.14	4.86585e-6
1159.11	4.40243e-6
1160.08	1.00000e-13
1161.05	1.00000e-13
1162.02	1.00000e-13
1162.99	1.00000e-13
1163.96	1.00000e-13
1164.93	1.00000e-13
1165.90	1.00000e-13
1166.87	1.00000e-13
1167.84	1.00000e-13
1168.81	1.00000e-13
1169.78	1.00000e-13
1170.75	1.00000e-13
1171.72	1.00000e-13
1172.69	1.00000e-13
1173.66	9.26828e-7
1174.63	1.00000e-13
1175.60	1.00000e-13
1176.57	1.00000e-13
1177.53	1.00000e-13
1178.50	1.00000e-13
1179.48	1.00000e-13
1180.45	8.92072e-6
1181.42	1.00000e-13
1182.39	2.66463e-6
1183.36	2.47926e-5
1184.32	1.00000e-13
1185.29	1.00000e-13
1186.26	1.00000e-13
1187.24	1.00000e-13
1188.21	1.07744e-5
1189.18	1.39024e-6
1190.15	1.00000e-13
1191.11	1.00000e-13
1192.08	1.00000e-13
1193.06	6.48779e-6
1194.02	1.00000e-13
1194.99	1.26280e-5
1195.97	1.00000e-13
1196.94	1.00000e-13
1197.91	1.00000e-13
1198.87	1.00000e-13
1199.85	1.00000e-13
1200.81	1.00000e-13
1201.79	1.00000e-13
1202.75	1.00000e-13
1203.72	1.00000e-13
1204.69	1.00000e-13
1205.66	1.00000e-13
1206.63	1.00000e-13
1207.60	1.00000e-13
1208.57	1.00000e-13
1209.54	1.00000e-13
1210.51	1.00000e-13
1211.49	1.00000e-13
1212.45	1.00000e-13
1213.42	1.00000e-13
1214.39	1.00000e-13
1215.37	1.00000e-13
1216.33	1.00000e-13
1217.30	1.00000e-13
1218.27	1.00000e-13
1219.25	1.62195e-5
1220.21	1.00000e-13
1221.18	1.00000e-13
1222.15	1.00000e-13
1223.12	7.18292e-6
1224.09	1.00000e-13
1225.06	1.00000e-13
1226.03	1.00000e-13
1227.00	1.00000e-13
1227.97	1.00000e-13
1228.94	1.00000e-13
1229.91	1.00000e-13
1230.88	1.00000e-13
1231.86	4.63414e-7
1232.83	1.00000e-13
1233.79	8.22560e-6
1234.76	1.00000e-13
1235.74	1.00000e-13
1236.70	5.02804e-5
1237.67	1.00000e-13
1238.65	1.00000e-13
1239.61	1.08902e-4
1240.58	1.00000e-13
1241.55	2.31707e-6
1242.53	1.00000e-13
1243.50	1.50610e-6
1244.46	1.00000e-13
1245.43	1.00000e-13
1246.40	1.00000e-13
1247.38	1.00000e-13
1248.34	1.00000e-13
1249.31	1.00000e-13
1250.28	1.00000e-13
1251.25	1.00000e-13
1252.22	1.00000e-13
1253.19	1.00000e-13
1254.16	1.00000e-13
1255.14	1.00000e-13
1256.10	1.00000e-13
1257.07	1.00000e-13
1258.04	1.00000e-13
1259.01	1.00000e-13
1259.98	1.03110e-5
1260.95	1.00000e-13
1261.92	1.00000e-13
1262.89	1.42500e-5
1263.86	1.00000e-13
1264.83	1.00000e-13
1265.80	1.04268e-5
1266.77	6.37194e-6
1267.74	1.00000e-13
1268.71	1.15853e-7
1269.68	1.00000e-13
1270.65	1.00000e-13
1271.62	1.00000e-13
1272.59	1.00000e-13
1273.56	1.00000e-13
1274.53	1.00000e-13
1275.50	1.00000e-13
1276.47	1.00000e-13
1277.44	2.36341e-5
1278.41	6.20975e-5
1279.38	1.34622e-4
1280.35	2.85231e-4
1281.32	3.95987e-4
1282.29	5.57139e-4
1283.26	6.43103e-4
1284.23	6.68011e-4
1285.20	7.52584e-4
1286.17	7.80157e-4
1287.14	7.01956e-4
1288.11	7.09139e-4
1289.08	5.99773e-4
1290.05	6.98133e-4
1291.02	4.57969e-4
1291.99	4.93768e-4
1292.96	5.59341e-4
1293.93	5.50536e-4
1294.90	4.08847e-4
1295.87	4.42097e-4
1296.84	3.74438e-4
1297.81	3.59377e-4
1298.78	3.54164e-4
1299.75	3.74670e-4
1300.72	4.21591e-4
1301.69	3.80347e-4
1302.66	4.81371e-4
1303.63	2.95658e-4
1304.60	3.33310e-4
1305.57	3.13615e-4
1306.54	2.44335e-4
1307.51	2.73993e-4
1308.48	2.61597e-4
1309.45	2.50244e-4
1310.42	2.97859e-4
1311.39	3.02378e-4
1312.36	2.51865e-4
1313.33	2.26609e-4
1314.30	2.76195e-4