File: data/TGA/005d-L_M/M2.txt
Filename	M2
Instrument name
Operator	Gwenael
rundate	2025-02-10
Sample name	M2
[step]
Step 1
Time	Temperature	Weight	Weight	Deriv. Weight
min	°C	mg	%	% / °C
0,03	25,19	1,812	100,036	5,70909e-3
0,96	25,68	1,818	100,373	4,25952e-3
1,96	27,62	1,820	100,507	3,12144e-3
2,96	31,30	1,821	100,553	2,20962e-3
3,96	36,08	1,821	100,567	1,40914e-3
4,96	41,23	1,821	100,552	6,40634e-4
5,96	46,30	1,821	100,545	-1,00146e-4
6,96	51,15	1,820	100,521	-7,90505e-4
7,96	55,85	1,821	100,529	-1,55610e-3
8,96	60,50	1,820	100,505	-3,43109e-3
9,96	65,22	1,820	100,497	-5,18477e-3
10,96	70,06	1,820	100,482	-6,65368e-3
11,96	75,01	1,819	100,451	-8,09010e-3
12,96	80,04	1,819	100,431	-9,50815e-3
13,96	85,11	1,818	100,370	-0,0110060
14,96	90,19	1,817	100,340	-0,0126461
15,96	95,27	1,816	100,258	-0,0145180
16,96	99,53	1,814	100,183	-0,0165156
17,96	102,02	1,812	100,066	-0,0187093
18,96	102,96	1,811	99,995	-0,0211015
19,96	102,97	1,810	99,924	-0,0231934
20,96	102,51	1,809	99,891	-0,0235679
21,96	101,88	1,808	99,858	-0,0194565
22,96	101,23	1,808	99,826	-0,0118500
23,96	100,63	1,807	99,798	-5,53362e-3
24,96	100,14	1,807	99,786	-2,55528e-3
25,96	100,33	1,808	99,831	-1,56755e-3
26,96	102,59	1,809	99,871	-1,30870e-3
27,96	106,63	1,809	99,887	-1,28309e-3
28,96	111,40	1,809	99,893	-1,35413e-3
29,96	116,22	1,809	99,875	-1,58201e-3
30,96	120,95	1,809	99,863	-1,87645e-3
31,96	125,67	1,808	99,831	-2,25151e-3
32,96	130,48	1,808	99,830	-2,75688e-3
33,96	135,39	1,808	99,825	-3,32549e-3
34,96	140,38	1,807	99,789	-3,62705e-3
35,96	145,42	1,807	99,784	-3,81811e-3
36,96	150,48	1,807	99,786	-3,93846e-3
37,96	155,55	1,806	99,734	-4,13753e-3
38,96	160,61	1,806	99,698	-4,40868e-3
39,96	165,66	1,805	99,683	-4,74564e-3
40,96	170,67	1,805	99,677	-5,17442e-3
41,96	175,67	1,804	99,634	-5,65526e-3
42,96	180,68	1,805	99,650	-6,23200e-3
43,96	185,69	1,804	99,605	-6,92874e-3
44,96	190,71	1,803	99,572	-7,73465e-3
45,96	195,71	1,802	99,527	-8,62472e-3
46,96	200,72	1,802	99,482	-9,65836e-3
47,96	205,71	1,801	99,436	-0,0107475
48,96	210,71	1,800	99,373	-0,0118705
49,96	215,71	1,799	99,322	-0,0130397
50,96	220,71	1,797	99,246	-0,0141577
51,96	225,72	1,796	99,187	-0,0150804
52,96	230,73	1,794	99,086	-0,0159754
53,96	235,74	1,793	98,999	-0,0167674
54,96	240,75	1,791	98,908	-0,0174627
55,96	245,76	1,789	98,813	-0,0181000
56,96	250,77	1,788	98,717	-0,0186661
57,96	255,78	1,786	98,625	-0,0191310
58,96	260,79	1,784	98,532	-0,0196506
59,96	265,80	1,783	98,428	-0,0203323
60,96	270,80	1,781	98,320	-0,0211809
61,96	275,81	1,779	98,210	-0,0222020
62,96	280,82	1,777	98,130	-0,0234560
63,96	285,83	1,775	98,018	-0,0249617
64,96	290,84	1,773	97,905	-0,0267091
65,96	295,79	1,771	97,799	-0,0287747
66,96	299,23	1,769	97,697	-0,0312999
67,96	300,90	1,767	97,573	-0,0344013
68,96	301,71	1,765	97,481	-0,0382549
69,96	301,92	1,764	97,393	-0,0432612
70,96	301,67	1,762	97,316	-0,0498438
71,96	301,17	1,761	97,245	-0,0580688
72,96	300,62	1,760	97,180	-0,0650777
73,96	300,16	1,759	97,138	-0,0298947
74,96	299,84	1,758	97,076	0,174076
75,96	299,68	1,757	97,030	0,271931
76,96	299,66	1,756	96,974	0,262454
77,96	299,72	1,756	96,938	0,251751
78,96	299,82	1,755	96,890	0,250974
79,96	299,93	1,754	96,830	0,221823
80,96	300,01	1,753	96,791	-0,0295823
81,96	300,06	1,752	96,746	-0,789874
82,96	300,08	1,751	96,696	-1,18963
83,96	300,07	1,751	96,703	-1,16225
84,96	300,05	1,749	96,587	-1,14405
85,96	300,04	1,749	96,558	-1,08633
86,96	300,01	1,748	96,503	-0,504776
87,96	300,00	1,747	96,444	2,18051
88,96	299,99	1,746	96,399	5,45229
89,96	299,99	1,745	96,344	5,87333
90,96	299,99	1,744	96,306	5,76919
91,96	299,99	1,743	96,238	5,98056
92,96	300,00	1,742	96,185	5,90375
93,96	300,00	1,741	96,143	2,70115
94,96	300,00	1,740	96,081	-15,2255
95,96	300,00	1,739	96,025	-30,9450
96,96	300,00	1,738	95,967	-31,6678
97,96	300,00	1,737	95,913	-30,4654
98,96	300,00	1,736	95,862	-32,9384
99,96	300,00	1,735	95,827	-24,4967
100,96	300,00	1,734	95,730	30,4780
101,96	300,00	1,733	95,686	56,6108
102,96	300,00	1,732	95,630	80,0765
103,96	300,00	1,730	95,543	92,4237
104,96	300,00	1,730	95,523	89,8676
105,96	300,00	1,729	95,459	62,6566
106,96	300,00	1,728	95,391	4,07422
107,96	300,00	1,726	95,309	-48,8170
108,96	300,00	1,726	95,281	-58,3803
109,96	300,00	1,725	95,230	-36,2652
110,96	300,00	1,723	95,159	37,7449
111,96	300,00	1,722	95,089	49,4561
112,96	300,00	1,721	95,021	46,8077
113,96	300,00	1,720	94,993	40,2772
114,96	300,00	1,718	94,890	56,0718
115,96	300,00	1,718	94,839	68,7851
116,96	300,00	1,716	94,780	74,0196
117,96	300,00	1,715	94,723	80,7271
118,96	300,00	1,714	94,640	79,1173
119,96	300,00	1,713	94,589	97,7298
120,96	300,00	1,712	94,520	119,358
121,96	300,00	1,711	94,472	131,423
122,96	300,00	1,710	94,399	127,466
123,96	300,00	1,708	94,320	125,459
124,96	300,00	1,708	94,285	116,137
125,96	300,00	1,706	94,219	119,017
126,96	300,00	1,705	94,156	112,217
127,96	300,00	1,704	94,082	163,115
128,96	300,00	1,702	93,992	175,937
129,96	300,00	1,701	93,943	170,035
130,96	300,00	1,700	93,887	142,963
131,96	300,00	1,699	93,824	106,891
132,96	300,00	1,698	93,746	94,2511
133,96	300,00	1,696	93,661	-50,7181
134,96	300,00	1,695	93,594	-132,105
135,96	300,00	1,694	93,528	-159,636
136,96	300,00	1,692	93,452	-109,103
137,96	300,00	1,692	93,405	-43,5120
138,96	300,00	1,690	93,318	-36,6215
139,96	300,00	1,688	93,226	-47,1832
140,96	300,00	1,688	93,198	-78,9189
141,96	300,00	1,686	93,121	-133,032
142,96	300,00	1,685	93,053	-148,315
143,96	300,00	1,684	92,985	-120,622
144,96	300,00	1,682	92,904	-95,5624
145,96	300,00	1,681	92,839	-6,27935
146,96	300,00	1,680	92,766	66,2940
147,96	300,00	1,679	92,702	100,347
148,96	300,00	1,677	92,608	95,9401
149,96	300,00	1,676	92,572	111,458
150,96	300,00	1,675	92,490	26,3188
151,96	300,00	1,674	92,415	-51,7558
152,96	300,00	1,672	92,344	-82,2980
153,96	300,00	1,671	92,277	-42,0678
154,96	300,00	1,671	92,251	-4,25208
155,96	300,00	1,668	92,130	9,13639
156,96	300,00	1,667	92,043	35,8775
157,96	300,00	1,666	91,995	2,27778
158,96	300,00	1,665	91,938	-51,3886
159,96	300,00	1,664	91,859	-76,4955
160,96	300,00	1,663	91,802	-66,4848
161,96	300,00	1,661	91,726	-88,4460
162,96	300,00	1,659	91,626	-57,2314
163,96	300,00	1,658	91,557	-40,9898
164,96	300,00	1,657	91,505	-75,0594
165,96	300,00	1,656	91,443	-96,4050
166,96	300,00	1,655	91,374	-101,492
167,96	300,00	1,654	91,305	-114,666
168,96	300,00	1,652	91,246	-132,100
169,96	300,00	1,651	91,178	-110,121
170,96	300,00	1,650	91,115	-91,5398
171,96	300,00	1,649	91,028	-75,6967
172,96	300,00	1,647	90,971	-50,6810
173,96	300,00	1,646	90,900	-19,6352
174,96	300,00	1,645	90,857	-36,3178
175,96	300,00	1,644	90,788	-41,9074
176,96	300,00	1,643	90,741	16,0915
177,96	300,00	1,641	90,626	71,6566
178,96	300,00	1,640	90,582	112,775
179,96	300,00	1,640	90,531	138,091
180,96	300,00	1,638	90,464	150,559
181,96	300,00	1,637	90,371	152,049
182,96	300,00	1,636	90,346	130,652
183,96	300,00	1,635	90,276	113,829
184,96	300,00	1,634	90,206	104,173
185,96	300,00	1,633	90,145	64,2280
186,96	300,00	1,631	90,047	26,0114
187,96	300,00	1,631	90,069	-21,0059
188,96	300,00	1,629	89,961	-40,1591
189,96	300,00	1,628	89,894	-69,1190
190,96	300,00	1,627	89,839	-94,5597
191,96	300,00	1,626	89,776	-158,712
192,96	300,00	1,625	89,725	-145,897
193,96	300,00	1,624	89,654	-118,211
194,96	300,00	1,623	89,607	-72,6663
195,96	300,00	1,622	89,543	-53,3688
196,96	300,00	1,621	89,497	-66,2113
197,96	300,00	1,620	89,445	-51,6865
198,96	300,00	1,618	89,367	-62,6489
199,96	300,00	1,618	89,317	-51,2361
200,96	300,00	1,616	89,255	-18,5690
201,96	300,00	1,616	89,213	-6,97772
202,96	300,00	1,615	89,154	27,1031
203,96	300,00	1,614	89,109	25,7822
204,96	300,00	1,612	89,037	17,2025
205,96	300,00	1,611	88,956	-17,6767
206,96	300,00	1,611	88,953	-40,9616
207,96	300,00	1,609	88,868	-34,0137
208,96	300,00	1,608	88,813	-79,2873
209,96	300,00	1,608	88,765	-74,1752
210,96	300,00	1,606	88,694	-61,8176
211,96	300,00	1,605	88,629	-16,7231
212,96	300,00	1,605	88,599	26,4546
213,96	300,00	1,604	88,544	54,9221
214,96	300,00	1,603	88,493	38,8537
215,96	300,00	1,602	88,437	37,1901
216,96	300,00	1,601	88,397	38,0404
217,96	300,00	1,600	88,334	38,1891
218,96	300,00	1,599	88,279	10,3196
219,96	300,00	1,598	88,236	32,3784
220,96	300,00	1,597	88,172	60,7058
221,96	300,00	1,596	88,129	57,8155
222,96	300,00	1,595	88,076	2,23681
223,96	300,00	1,594	88,032	-17,2375
224,96	300,00	1,594	87,995	-23,6954
225,96	300,00	1,592	87,907	-53,7127
226,96	300,00	1,592	87,883	-83,0805
227,96	300,00	1,591	87,825	-91,2991
228,96	300,00	1,589	87,762	-74,8043
229,96	300,00	1,589	87,730	-51,6174
230,96	300,00	1,588	87,686	-20,9465
231,96	300,00	1,588	87,660	-24,4031
232,96	300,00	1,587	87,608	41,6726
233,96	300,00	1,585	87,543	57,3355
234,96	300,00	1,585	87,497	37,5021
235,96	300,00	1,584	87,477	14,2763
236,96	300,00	1,584	87,450	-1,84341
237,96	300,00	1,582	87,362	3,62738
238,96	300,00	1,581	87,318	-48,5250
239,96	300,00	1,581	87,277	-107,546
240,96	300,00	1,580	87,227	-150,603
241,96	300,00	1,579	87,186	-152,319
242,96	300,00	1,578	87,141	-99,3542
243,96	300,00	1,577	87,087	-83,0171
244,96	300,00	1,577	87,059	-47,8446
245,96	300,00	1,576	87,020	2,58471
246,96	300,00	1,575	86,973	35,9492
247,96	300,00	1,575	86,941	63,7524
248,96	300,00	1,573	86,879	76,9621
249,96	300,00	1,573	86,878	103,710
250,96	300,00	1,572	86,801	103,871
251,96	300,00	1,571	86,768	84,3351
252,96	300,00	1,571	86,760	55,3384
253,96	300,00	1,569	86,643	36,2231
254,96	300,00	1,569	86,643	55,1481
255,96	300,00	1,568	86,606	41,2877
256,96	300,00	1,567	86,543	30,3660
257,96	300,00	1,567	86,502	11,6413
258,96	300,00	1,566	86,473	-4,29057
259,96	300,00	1,565	86,438	-16,5857
260,96	300,00	1,565	86,408	-42,1007
261,96	300,00	1,564	86,358	-29,4759
262,96	300,00	1,563	86,314	5,41245
263,96	300,00	1,563	86,282	38,0692
264,96	300,00	1,562	86,235	72,8902
265,96	300,00	1,561	86,202	52,9384
266,96	300,00	1,560	86,156	46,4091
267,96	300,00	1,560	86,123	24,4172
268,96	300,00	1,559	86,080	-2,94852
269,96	300,00	1,559	86,058	-47,3711
270,96	300,00	1,558	86,008	-63,5105
271,96	300,00	1,557	85,967	-12,3231
272,96	300,00	1,556	85,918	3,52371
273,96	300,00	1,555	85,886	26,2336
274,96	300,00	1,555	85,858	37,7728
275,96	300,00	1,554	85,800	38,6662
276,96	300,00	1,553	85,770	21,1636
277,96	300,00	1,553	85,731	40,6229
278,96	300,00	1,552	85,708	18,9120
279,96	300,00	1,551	85,626	0,768703
280,96	300,00	1,551	85,620	30,5389
281,96	300,00	1,550	85,574	55,7232
282,96	300,00	1,549	85,534	61,2198
283,96	300,00	1,548	85,481	50,2651
284,96	300,00	1,548	85,459	30,6217
285,96	300,00	1,547	85,421	24,1910
286,96	300,00	1,547	85,399	14,8995
287,96	300,00	1,546	85,356	4,15510
288,96	300,00	1,545	85,316	-18,0884
289,96	300,00	1,544	85,283	-27,3685
290,96	300,00	1,544	85,238	-33,1438
291,96	300,00	1,543	85,198	-20,4000
292,96	300,00	1,542	85,164	-15,2127
293,96	300,00	1,541	85,110	-18,6239
294,96	300,00	1,541	85,084	-3,23060
295,96	300,00	1,540	85,047	-24,8506
296,96	300,00	1,540	85,013	-70,4313
297,96	300,00	1,539	84,970	-76,6342
298,96	300,00	1,538	84,939	-77,9527
299,96	300,00	1,538	84,953	-75,6607
300,96	300,00	1,537	84,874	-65,8648
301,96	300,00	1,537	84,865	-40,3487
302,96	300,00	1,536	84,810	-18,3932
303,96	300,00	1,535	84,769	2,35278
304,96	300,00	1,534	84,705	17,9834
305,96	300,00	1,534	84,682	1,27577
306,96	300,00	1,533	84,646	17,9163
307,96	300,00	1,532	84,609	27,6491
308,96	300,00	1,532	84,585	49,2360
309,96	300,00	1,531	84,529	66,8509
310,96	300,00	1,530	84,499	68,8904
311,96	300,00	1,530	84,463	76,5582
312,96	300,00	1,529	84,431	81,7578
313,96	300,00	1,529	84,409	77,1402
314,96	300,00	1,528	84,366	74,8241
315,96	300,00	1,527	84,338	63,3500
316,96	300,00	1,527	84,309	30,5160
317,96	300,00	1,526	84,269	0,845264
318,96	300,00	1,525	84,232	-12,2357
319,96	300,00	1,525	84,215	-18,5996
320,96	300,00	1,524	84,168	-15,6174
321,96	300,00	1,524	84,140	-37,0577
322,96	300,00	1,523	84,081	-71,2502
323,96	300,00	1,522	84,061	-40,3665
324,96	300,00	1,522	84,029	-51,7218
325,96	300,00	1,521	84,005	-39,0281
326,96	300,00	1,521	83,970	10,3223
327,96	300,00	1,520	83,936	9,49611
328,96	300,00	1,520	83,912	23,8800
329,96	300,00	1,519	83,855	43,9131
330,96	300,00	1,518	83,818	39,6659
331,96	300,00	1,517	83,782	74,8596
332,96	300,00	1,516	83,724	60,9001
333,96	300,00	1,516	83,704	9,78494
334,96	300,00	1,516	83,692	-30,7440
335,96	300,00	1,515	83,653	-73,9209
336,96	300,00	1,514	83,616	-80,5748
337,96	300,00	1,514	83,586	-88,1668
338,96	300,00	1,513	83,549	-85,8359
339,96	300,00	1,512	83,512	-90,1936
340,96	300,00	1,512	83,480	-91,9269
341,96	300,00	1,511	83,443	-99,5197
342,96	300,00	1,511	83,425	-103,871
343,96	300,00	1,510	83,382	-83,3985
344,96	300,00	1,509	83,351	-55,6960
345,96	300,00	1,509	83,319	-20,0710
346,96	300,00	1,508	83,286	19,9542
347,96	300,00	1,508	83,260	34,5992
348,96	300,00	1,508	83,255	7,67494
349,96	300,00	1,507	83,192	-11,4778
350,96	300,00	1,506	83,132	-31,2180
351,96	300,00	1,506	83,144	-40,3436
352,96	300,00	1,504	83,066	-32,6500
353,96	300,00	1,504	83,046	-32,8088
354,96	300,00	1,504	83,031	-23,7346
355,96	300,00	1,503	82,988	-4,75946
356,96	300,00	1,503	82,976	1,05059
357,96	300,00	1,502	82,947	-8,48513
358,96	300,00	1,501	82,902	-16,3574
359,96	300,00	1,501	82,870	-5,31528
360,96	300,00	1,500	82,842	12,1335
361,96	300,00	1,500	82,808	25,6799
362,96	300,00	1,499	82,787	37,0513
363,96	300,00	1,499	82,760	44,6108
364,96	300,00	1,498	82,718	45,6222
365,96	300,00	1,497	82,677	45,2695
366,96	300,00	1,497	82,663	44,8036
367,96	300,00	1,496	82,622	36,4345
368,96	300,00	1,496	82,605	22,2885
369,96	300,00	1,495	82,565	8,39528
370,96	300,00	1,495	82,530	-8,38487
371,96	300,00	1,494	82,471	-14,5738
372,96	300,00	1,494	82,493	-14,0558
373,96	300,00	1,493	82,419	-14,5046
374,96	300,00	1,492	82,406	-27,0504
375,96	300,00	1,492	82,370	-39,2379
376,96	300,00	1,492	82,367	-40,2933
377,96	300,00	1,490	82,293	-40,9529
378,96	300,00	1,490	82,277	-40,9331
379,96	300,00	1,489	82,241	-42,1619
380,96	300,00	1,489	82,208	-41,9722
381,96	300,00	1,489	82,213	-42,5615
382,96	300,00	1,488	82,161	-39,5973
383,96	300,00	1,487	82,121	-29,1852
384,96	300,00	1,487	82,095	-25,4161
385,96	300,00	1,486	82,049	-23,8988
386,96	300,00	1,485	82,018	-19,1598
387,96	300,00	1,485	81,998	-14,6052
388,96	300,00	1,485	81,977	-11,2355
389,96	300,00	1,484	81,932	20,3802
390,96	300,00	1,483	81,911	64,6124
391,96	300,00	1,483	81,871	71,4445
392,96	300,00	1,483	81,864	64,1041
393,96	300,00	1,482	81,817	54,5925
394,96	300,00	1,481	81,792	38,4775
395,96	300,00	1,481	81,769	36,3421
396,96	300,00	1,480	81,737	35,0337
397,96	300,00	1,480	81,716	37,3240
398,96	300,00	1,479	81,684	19,3724
399,96	300,00	1,479	81,656	-4,28476
400,96	300,00	1,478	81,614	-14,2726
401,96	300,00	1,478	81,613	-33,6877
402,96	300,00	1,478	81,586	-46,6971
403,96	300,00	1,477	81,564	-44,0066
404,96	300,00	1,477	81,545	-41,3961
405,96	300,00	1,476	81,490	-27,2342
406,96	300,00	1,476	81,504	-10,3861
407,96	300,00	1,475	81,464	12,8801
408,96	300,00	1,475	81,445	28,9798
409,96	300,00	1,474	81,414	41,8674
410,96	300,00	1,474	81,394	40,8450
411,96	300,00	1,473	81,355	38,8732
412,96	300,00	1,473	81,345	39,3275
413,96	300,00	1,473	81,319	45,6790
414,96	300,00	1,472	81,284	34,9223
415,96	300,00	1,472	81,270	22,1826
416,96	300,00	1,472	81,259	21,4494
417,96	300,00	1,471	81,232	24,3652
418,96	300,00	1,471	81,201	25,9222
419,96	300,00	1,470	81,178	33,9891
420,96	300,00	1,469	81,136	30,3034
421,96	300,00	1,469	81,123	26,6014
422,96	300,00	1,468	81,062	7,85368
423,96	300,00	1,468	81,075	-3,58735
424,96	300,00	1,468	81,064	-7,01903
425,96	300,00	1,467	81,014	-6,64319
426,96	300,00	1,467	81,031	-2,25176
427,96	300,00	1,467	80,999	2,46507
428,96	300,00	1,466	80,963	2,67316
429,96	300,00	1,466	80,945	-7,87865
430,96	300,00	1,465	80,911	-20,9898
431,96	300,00	1,465	80,909	-42,2726
432,96	300,00	1,465	80,867	-56,4616
433,96	300,00	1,464	80,846	-57,8782
434,96	300,00	1,464	80,819	-44,1924
435,96	300,00	1,463	80,800	-8,49489
436,96	300,00	1,463	80,775	4,22862
437,96	300,00	1,462	80,744	13,0633
438,96	300,00	1,462	80,733	5,76863
439,96	300,00	1,461	80,686	-13,3531
440,96	300,00	1,461	80,656	-11,4262
441,96	300,00	1,461	80,651	-10,9941
442,96	300,00	1,460	80,614	-17,7707
443,96	300,00	1,460	80,595	-9,15545
444,96	300,00	1,459	80,590	10,4160
445,96	300,00	1,459	80,563	17,4963
446,96	300,00	1,458	80,532	20,7737
447,96	300,00	1,459	80,548	20,8847
448,96	300,00	1,458	80,518	18,8186
449,96	300,00	1,457	80,457	15,4563
450,96	300,00	1,457	80,432	15,0218
451,96	300,00	1,456	80,420	24,7263
452,96	300,00	1,456	80,398	40,1259
453,96	300,00	1,455	80,363	38,8912
454,96	300,00	1,455	80,351	41,4047
455,96	300,00	1,455	80,315	30,1949
456,96	300,00	1,454	80,300	14,6066
457,96	300,00	1,454	80,274	19,5800
458,96	300,00	1,453	80,257	20,7237
459,96	300,00	1,453	80,227	15,0675
460,96	300,00	1,453	80,205	10,2845
461,96	300,00	1,452	80,183	4,44850
462,96	300,00	1,451	80,148	-0,0271119
463,96	300,00	1,451	80,137	-6,53890
464,96	300,00	1,451	80,127	-9,76738
465,96	300,00	1,450	80,090	-21,1935
466,96	300,00	1,450	80,057	-31,6781
467,96	300,00	1,450	80,048	-26,4724
468,96	300,00	1,449	79,997	-14,0199
469,96	300,00	1,449	80,005	2,73124
470,96	300,00	1,448	79,938	2,30477
471,96	300,00	1,448	79,974	2,77193
472,96	300,00	1,447	79,913	-8,57053
473,96	300,00	1,447	79,896	-14,8343
474,96	300,00	1,446	79,851	-5,78128
475,96	300,00	1,446	79,854	-2,55887
476,96	300,00	1,446	79,833	0,862483
477,96	300,00	1,445	79,801	1,61563
478,96	300,00	1,444	79,751	2,17424
479,96	300,00	1,444	79,737	2,02891
480,96	300,00	1,444	79,729	-12,4766
481,96	300,00	1,443	79,705	-17,3464
482,96	300,00	1,443	79,663	-14,2464
483,96	300,00	1,442	79,636	-8,85693
484,96	300,00	1,442	79,619	-0,112243
485,96	300,00	1,441	79,584	18,5192
486,96	300,00	1,441	79,559	39,1736
487,96	300,00	1,440	79,541	28,1291
488,96	300,00	1,440	79,501	13,5524
489,96	300,00	1,440	79,515	-8,23612
490,96	300,00	1,439	79,457	-6,66397
491,96	300,00	1,439	79,440	-4,37556
492,96	300,00	1,438	79,412	-8,05646
493,96	300,00	1,438	79,390	-16,1034
494,96	300,00	1,437	79,366	-17,8686
495,96	300,00	1,437	79,340	0,159558
496,96	300,00	1,436	79,297	16,4848
497,96	300,00	1,436	79,285	20,9744
498,96	300,00	1,436	79,271	16,4945
499,96	300,00	1,435	79,245	18,0580
500,96	300,00	1,434	79,204	23,2700
501,96	300,00	1,434	79,170	44,6642
502,96	300,00	1,433	79,121	26,1303
503,96	300,00	1,433	79,116	21,2184
504,96	300,00	1,433	79,120	12,9894
505,96	300,00	1,432	79,081	3,40296
506,96	300,00	1,432	79,052	-7,85968
507,96	300,00	1,431	79,030	11,9738
508,96	300,00	1,431	79,003	10,0285
509,96	300,00	1,430	78,964	17,3189
510,96	300,00	1,430	78,937	-1,08042
511,96	300,00	1,429	78,907	6,51683
512,96	300,00	1,429	78,891	23,8974
513,96	300,00	1,428	78,870	31,0582
514,96	300,00	1,428	78,865	25,8971
515,96	300,00	1,427	78,813	-3,36202
516,96	300,00	1,426	78,768	-21,5533
517,96	300,00	1,426	78,746	-29,6077
518,96	300,00	1,426	78,746	-35,4399
519,96	300,00	1,425	78,706	-44,7120
520,96	300,00	1,425	78,673	-30,6495
521,96	300,00	1,425	78,661	-24,5966
522,96	300,00	1,424	78,619	-22,9503
523,96	300,00	1,424	78,608	-0,835986
524,96	300,00	1,423	78,559	9,13947
525,96	300,00	1,422	78,544	6,38895
526,96	300,00	1,422	78,494	10,0024
527,96	300,00	1,421	78,473	6,51560
528,96	300,00	1,421	78,480	10,5364
529,96	300,00	1,420	78,432	22,0351
530,96	300,00	1,420	78,401	25,2782
531,96	300,00	1,419	78,372	19,7642
532,96	300,00	1,419	78,336	11,7874
533,96	300,00	1,418	78,317	-3,87799
534,96	300,00	1,418	78,292	-18,0413
535,96	300,00	1,417	78,255	-31,4922
536,96	300,00	1,417	78,233	-22,1232
537,96	300,00	1,416	78,183	-22,7026
538,96	300,00	1,416	78,169	-25,4520
539,96	300,00	1,415	78,160	-21,1899
540,96	300,00	1,415	78,123	-3,42708
541,96	300,00	1,414	78,057	-11,3959
542,96	300,00	1,414	78,067	-11,3773
543,96	300,00	1,413	78,044	23,0155
544,96	300,00	1,413	78,000	17,7235
545,96	300,00	1,413	78,019	10,1169
546,96	300,00	1,412	77,977	2,12339
547,96	300,00	1,412	77,961	11,7748
548,96	300,00	1,411	77,888	37,0638
549,96	300,00	1,410	77,875	32,8397
550,96	300,00	1,410	77,861	14,6672
551,96	300,00	1,409	77,799	9,62088
552,96	300,00	1,410	77,836	8,04409
553,96	300,00	1,409	77,796	8,55067
554,96	300,00	1,408	77,756	0,823648
555,96	300,00	1,408	77,738	-9,11874
556,96	300,00	1,407	77,704	-21,9343
557,96	300,00	1,407	77,674	-33,3422
558,96	300,00	1,406	77,652	-42,4796
559,96	300,00	1,406	77,611	-35,8912
560,96	300,00	1,405	77,591	-4,10986
561,96	300,00	1,405	77,570	-0,580974
562,96	300,00	1,404	77,548	3,26072
563,96	300,00	1,404	77,515	7,24905
564,96	300,00	1,403	77,490	30,1994
565,96	300,00	1,403	77,474	49,7558
566,96	300,00	1,403	77,458	36,4148
567,96	300,00	1,401	77,385	27,4710
568,96	300,00	1,402	77,397	3,45217
569,96	300,00	1,401	77,364	-14,9908
570,96	300,00	1,400	77,331	-21,5686
571,96	300,00	1,400	77,323	-23,4548
572,96	300,00	1,400	77,292	-27,7539
573,96	300,00	1,399	77,259	-19,5945
574,96	300,00	1,399	77,237	-15,3817
575,96	300,00	1,398	77,212	-14,0375
576,96	300,00	1,398	77,197	-12,5669
577,96	300,00	1,397	77,164	-6,95275
578,96	300,00	1,397	77,134	-8,42526
579,96	300,00	1,397	77,112	-13,1405
580,96	300,00	1,396	77,083	-8,40219
581,96	300,00	1,395	77,056	6,00862
582,96	300,00	1,395	77,038	10,0035
583,96	300,00	1,395	77,014	10,0659
584,96	300,00	1,394	76,994	19,4652
585,96	300,00	1,394	76,949	18,0486
586,96	300,00	1,393	76,946	4,71536
587,96	300,00	1,393	76,899	-10,2210
588,96	300,00	1,392	76,888	-27,4567
589,96	300,00	1,392	76,865	-18,5501
590,96	300,00	1,391	76,809	19,3793
591,96	300,00	1,391	76,833	40,9496
592,96	300,00	1,391	76,792	55,3222
593,96	300,00	1,390	76,737	53,8924
594,96	300,00	1,389	76,724	43,3436
595,96	300,00	1,389	76,689	25,4701
596,96	300,00	1,389	76,683	0,879387
597,96	300,00	1,388	76,659	-12,3178
598,96	300,00	1,388	76,630	-14,8094
599,96	300,00	1,387	76,609	-14,8922
600,96	300,00	1,387	76,568	-24,8258
601,96	300,00	1,387	76,590	-11,6970
602,96	300,00	1,386	76,534	-2,50987
603,96	300,00	1,386	76,508	-2,28787
604,96	300,00	1,385	76,492	-11,4706
605,96	300,00	1,385	76,467	-26,4871
606,96	300,00	1,384	76,444	-30,0754
607,96	300,00	1,383	76,388	-25,0316
608,96	300,00	1,383	76,393	-13,4065
609,96	300,00	1,383	76,346	20,4019
610,96	300,00	1,383	76,351	34,3592
611,96	300,00	1,382	76,314	39,2366
612,96	300,00	1,382	76,288	40,2161
613,96	300,00	1,381	76,264	40,4634
614,96	300,00	1,381	76,246	44,1959
615,96	300,00	1,380	76,195	46,3970
616,96	300,00	1,380	76,198	48,4112
617,96	300,00	1,379	76,160	28,9657
618,96	300,00	1,379	76,129	9,51940
619,96	300,00	1,378	76,099	-4,31431
620,96	300,00	1,378	76,090	-6,89567
621,96	300,00	1,378	76,067	-15,5669
622,96	300,00	1,377	76,040	-24,1443
623,96	300,00	1,377	76,031	-31,5267
624,96	300,00	1,376	76,002	-32,5289
625,96	300,00	1,376	76,007	-23,0121
626,96	300,00	1,376	75,959	-8,93902
627,96	300,00	1,375	75,937	-2,82424
628,96	300,00	1,375	75,903	-0,301987
629,96	300,00	1,374	75,883	1,53597
630,96	300,00	1,374	75,850	5,21253
631,96	300,00	1,373	75,829	11,3189
632,96	300,00	1,373	75,809	18,9431
633,96	300,00	1,373	75,797	20,2767
634,96	300,00	1,372	75,780	16,4032
635,96	300,00	1,372	75,757	8,31863
636,96	300,00	1,371	75,717	2,58176
637,96	300,00	1,371	75,698	-0,758227
638,96	300,00	1,371	75,685	-3,74337
639,96	300,00	1,370	75,650	-16,4170
640,96	300,00	1,370	75,622	-30,7788
641,96	300,00	1,369	75,620	-30,4968
642,96	300,00	1,369	75,571	-18,6074
643,96	300,00	1,368	75,536	-5,84840
644,96	300,00	1,368	75,523	8,75998
645,96	300,00	1,368	75,517	15,9046
646,96	300,00	1,367	75,475	23,7160
647,96	300,00	1,366	75,451	31,3862
648,96	300,00	1,366	75,437	30,7396
649,96	300,00	1,366	75,405	31,2683
650,96	300,00	1,365	75,380	20,2352
651,96	300,00	1,365	75,368	-8,08637
652,96	300,00	1,365	75,346	-24,7922
653,96	300,00	1,364	75,327	-29,7697
654,96	300,00	1,364	75,311	-22,2494
655,96	300,00	1,363	75,267	2,82831
656,96	300,00	1,363	75,267	-0,236513
657,96	300,00	1,363	75,248	-5,63357
658,96	300,00	1,362	75,207	2,32100
659,96	300,00	1,362	75,201	10,6987
660,96	300,00	1,361	75,164	12,1794
661,96	300,00	1,361	75,130	13,5786
662,96	300,00	1,361	75,146	13,5099
663,96	300,00	1,360	75,099	18,4413
664,96	300,00	1,359	75,066	17,5121
665,96	300,00	1,359	75,030	17,3876
666,96	300,00	1,358	75,012	23,9044
667,96	300,00	1,358	74,987	14,3355
668,96	300,00	1,358	74,973	-2,64298
669,96	300,00	1,357	74,946	-18,7254
670,96	300,00	1,357	74,944	-33,0183
671,96	300,00	1,357	74,907	-19,5068
672,96	300,00	1,356	74,870	-0,529549
673,96	300,00	1,356	74,864	-23,8229
674,96	300,00	1,355	74,837	-36,0997
675,96	300,00	1,355	74,812	-32,4353
676,96	300,00	1,354	74,792	-30,4975
677,96	300,00	1,354	74,768	-18,6915
678,96	300,00	1,354	74,755	-14,2441
679,96	300,00	1,353	74,736	-17,8890
680,96	300,00	1,353	74,701	-14,9067
681,96	300,00	1,353	74,684	-10,1369
682,96	300,00	1,352	74,680	-13,0478
683,96	300,00	1,352	74,638	-10,4939
684,96	300,00	1,351	74,615	-16,5839
685,96	300,00	1,351	74,596	-22,5544
686,96	300,00	1,351	74,573	-6,93820
687,96	300,00	1,350	74,552	2,57091
688,96	300,00	1,349	74,515	25,1480
689,96	300,00	1,349	74,485	46,6017
690,96	300,00	1,348	74,454	47,3452
691,96	300,00	1,348	74,451	34,1558
692,96	300,00	1,348	74,437	14,9913
693,96	300,00	1,348	74,420	5,37626
694,96	300,00	1,347	74,366	4,76335
695,96	300,00	1,347	74,355	-0,956419
696,96	300,00	1,347	74,357	-1,84846
697,96	300,00	1,346	74,319	0,411652
698,96	300,00	1,346	74,300	10,8851
699,96	300,00	1,345	74,274	-7,00928
700,96	300,00	1,345	74,242	7,75197
701,96	300,00	1,344	74,205	13,7382
702,96	300,00	1,344	74,204	17,7612
703,96	300,00	1,344	74,201	21,4795
704,96	300,00	1,343	74,152	5,12463
705,96	300,00	1,343	74,138	-4,63674
706,96	300,00	1,342	74,112	-7,17771
707,96	300,00	1,342	74,076	-4,37179
708,96	300,00	1,341	74,058	0,709487
709,96	300,00	1,341	74,054	-5,20943
710,96	300,00	1,341	74,028	-7,02906
711,96	300,00	1,340	74,004	-13,7880
712,96	300,00	1,339	73,963	-16,2212
713,96	300,00	1,339	73,960	-2,55993
714,96	300,00	1,339	73,945	2,92491
715,96	300,00	1,339	73,920	3,10171
716,96	300,00	1,337	73,851	-1,86429
717,96	300,00	1,338	73,877	7,94352
718,96	300,00	1,338	73,864	18,5804
719,96	300,00	1,337	73,810	14,2538
720,96	300,00	1,337	73,801	17,3114
721,96	300,00	1,336	73,794	3,94892
722,96	300,00	1,336	73,761	0,712696
723,96	300,00	1,336	73,772	-9,35858
724,96	300,00	1,335	73,715	-17,4443
725,96	300,00	1,335	73,693	-17,1837
726,96	300,00	1,334	73,665	-19,8989
727,96	300,00	1,334	73,638	-5,82510
728,96	300,00	1,333	73,621	4,71823
729,96	300,00	1,333	73,592	9,11989
730,96	300,00	1,332	73,577	10,2543
731,96	300,00	1,332	73,545	10,7621
732,96	300,00	1,332	73,523	8,30381
733,96	300,00	1,331	73,491	3,81211
734,96	300,00	1,331	73,477	7,06416
735,96	300,00	1,330	73,456	4,26295
736,96	300,00	1,330	73,441	-7,62979
737,96	300,00	1,330	73,429	-19,6288
738,96	300,00	1,329	73,393	-28,9622
739,96	300,00	1,329	73,382	-23,8337
740,96	300,00	1,328	73,336	-29,2760
741,96	300,00	1,328	73,340	-22,9197
742,96	300,00	1,327	73,298	-15,7755
743,96	300,00	1,327	73,286	-16,0191
744,96	300,00	1,326	73,243	-5,65735
745,96	300,00	1,326	73,234	6,74668
746,96	300,00	1,326	73,219	18,2269
747,96	300,00	1,325	73,175	11,9898
748,96	300,00	1,325	73,167	13,9297
749,96	300,00	1,325	73,152	21,2263
750,96	300,00	1,324	73,128	23,3706
751,96	300,00	1,324	73,110	24,6119
752,96	300,00	1,323	73,064	25,6585
753,96	300,00	1,323	73,065	19,5470
754,96	300,00	1,323	73,032	8,70530
755,96	300,00	1,322	73,022	3,18629
756,96	300,00	1,322	72,995	0,884407
757,96	300,00	1,321	72,966	-14,5718
758,96	300,00	1,321	72,954	-8,49782
759,96	300,00	1,321	72,930	4,40540
760,96	300,00	1,320	72,898	-4,77901
761,96	300,00	1,320	72,885	-11,4343
762,96	300,00	1,320	72,870	-2,21234
763,96	300,00	1,319	72,844	2,41158
764,96	300,00	1,319	72,823	-11,4145
765,96	300,00	1,319	72,813	-17,2522
766,96	300,00	1,318	72,780	-15,6268
767,96	300,00	1,317	72,739	-30,5717
768,96	300,00	1,317	72,741	-40,4345
769,96	300,00	1,317	72,711	-29,4033
770,96	300,00	1,317	72,706	-37,6451
771,96	300,00	1,316	72,654	-36,5937
772,96	300,00	1,316	72,666	-38,7045
773,96	300,00	1,315	72,627	-39,9090
774,96	300,00	1,315	72,598	-33,7888
775,96	300,00	1,314	72,584	-11,5471
776,96	300,00	1,314	72,569	17,3565
777,96	300,00	1,314	72,539	15,4911
778,96	300,00	1,313	72,517	15,9371
779,96	300,00	1,313	72,503	26,3919
780,96	300,00	1,313	72,488	33,5938
781,96	300,00	1,312	72,442	36,1094
782,96	300,00	1,312	72,438	23,0734
783,96	300,00	1,312	72,428	8,84474
784,96	300,00	1,311	72,396	-7,46757
785,96	300,00	1,311	72,379	-10,9591
786,96	300,00	1,311	72,364	-5,62969
787,96	300,00	1,310	72,321	-10,0452
788,96	300,00	1,309	72,301	-8,80778
789,96	300,00	1,309	72,302	-8,43395
790,96	300,00	1,309	72,264	-18,9157
791,96	300,00	1,309	72,269	-22,5955
792,96	300,00	1,308	72,239	-8,67576
793,96	300,00	1,308	72,201	8,49181
794,96	300,00	1,307	72,180	11,3193
795,96	300,00	1,307	72,161	3,37052
796,96	300,00	1,306	72,137	1,54704
797,96	300,00	1,306	72,133	20,4136
798,96	300,00	1,306	72,117	20,5705
799,96	300,00	1,306	72,089	19,2351
800,96	300,00	1,305	72,052	5,46518
801,96	300,00	1,305	72,051	16,0266
802,96	300,00	1,305	72,042	17,0930
803,96	300,00	1,304	72,003	19,0459
804,96	300,00	1,304	71,989	3,89124
805,96	300,00	1,303	71,957	-2,26509
806,96	300,00	1,302	71,916	4,42507
807,96	300,00	1,302	71,915	-8,08268
808,96	300,00	1,302	71,904	-18,9215
809,96	300,00	1,301	71,855	-18,7677
810,96	300,00	1,301	71,826	-9,17625
811,96	300,00	1,301	71,854	-9,05069
812,96	300,00	1,300	71,784	-1,61149
813,96	300,00	1,300	71,789	-10,4627
814,96	300,00	1,300	71,772	8,67803
815,96	300,00	1,299	71,742	11,3445
816,96	300,00	1,299	71,736	16,3942
817,96	300,00	1,299	71,718	6,71716
818,96	300,00	1,298	71,688	13,0856
819,96	300,00	1,298	71,665	20,6721
820,96	300,00	1,297	71,638	37,6797
821,96	300,00	1,297	71,611	39,4637
822,96	300,00	1,297	71,610	41,3961
823,96	300,00	1,296	71,590	44,3899
824,96	300,00	1,296	71,561	36,9123
825,96	300,00	1,296	71,550	27,6484
826,96	300,00	1,295	71,510	22,0723
827,96	300,00	1,295	71,506	14,1694
828,96	300,00	1,294	71,471	-8,56470
829,96	300,00	1,295	71,517	-17,6613
830,96	300,00	1,294	71,427	-23,0636
831,96	300,00	1,293	71,409	-6,17694
832,96	300,00	1,293	71,385	9,47722
833,96	300,00	1,293	71,374	-0,221074
834,96	300,00	1,292	71,347	-18,3903
835,96	300,00	1,292	71,329	-41,7846
836,96	300,00	1,291	71,306	-47,4191
837,96	300,00	1,291	71,290	-45,6679
838,96	300,00	1,291	71,270	-42,3975
839,96	300,00	1,290	71,258	-21,3904
840,96	300,00	1,290	71,219	-1,75984
841,96	300,00	1,290	71,214	0,101849
842,96	300,00	1,289	71,181	12,2492
843,96	300,00	1,289	71,160	22,5010
844,96	300,00	1,288	71,148	19,6796
845,96	300,00	1,288	71,109	10,9777
846,96	300,00	1,287	71,085	8,06494
847,96	300,00	1,287	71,072	12,9182
848,96	300,00	1,287	71,044	25,7012
849,96	300,00	1,287	71,048	40,4594
850,96	300,00	1,286	71,002	29,8416
851,96	300,00	1,286	70,996	15,7632
852,96	300,00	1,285	70,977	-1,90504
853,96	300,00	1,285	70,973	-18,0205
854,96	300,00	1,285	70,942	-17,4644
855,96	300,00	1,284	70,907	-23,8389
856,96	300,00	1,284	70,893	-0,593186
857,96	300,00	1,283	70,869	3,93058
858,96	300,00	1,283	70,846	-6,30775
859,96	300,00	1,283	70,837	-22,0914
860,96	300,00	1,283	70,819	-25,5607
861,96	300,00	1,282	70,816	-35,6791
862,96	300,00	1,282	70,766	-39,1626
863,96	300,00	1,281	70,751	-34,5120
864,96	300,00	1,281	70,710	-34,6062
865,96	300,00	1,281	70,710	-30,3035
866,96	300,00	1,280	70,680	-28,4549
867,96	300,00	1,280	70,664	-32,8350
868,96	300,00	1,280	70,656	-28,8173
869,96	300,00	1,279	70,609	-18,9049
870,96	300,00	1,278	70,591	-5,64374
871,96	300,00	1,278	70,588	7,56804
872,96	300,00	1,278	70,571	16,2509
873,96	300,00	1,278	70,552	33,2920
874,96	300,00	1,278	70,542	24,9990
875,96	300,00	1,277	70,510	3,90475
876,96	300,00	1,277	70,494	-21,5221
877,96	300,00	1,276	70,478	-35,7663
878,96	300,00	1,276	70,446	-43,2514
879,96	300,00	1,276	70,454	-42,9832
880,96	300,00	1,275	70,419	-39,2383
881,96	300,00	1,275	70,414	-34,1418
882,96	300,00	1,275	70,393	-25,2690
883,96	300,00	1,274	70,372	-12,1890
884,96	300,00	1,274	70,358	-6,32914
885,96	300,00	1,274	70,324	6,54772
886,96	300,00	1,274	70,336	18,3105
887,96	300,00	1,273	70,303	27,4633
888,96	300,00	1,273	70,304	35,9024
889,96	300,00	1,273	70,277	38,7495
890,96	300,00	1,273	70,271	40,5734
891,96	300,00	1,272	70,246	31,5901
892,96	300,00	1,272	70,224	22,8420
893,96	300,00	1,272	70,221	21,2097
894,96	300,00	1,271	70,201	4,79213
895,96	300,00	1,271	70,199	-7,55572
896,96	300,00	1,271	70,157	-16,2794
897,96	300,00	1,270	70,151	-27,2450
898,96	300,00	1,270	70,133	-27,1388
899,96	300,00	1,270	70,125	-26,5893
900,96	300,00	1,270	70,101	-17,8789
901,96	300,00	1,269	70,090	-4,27895
902,96	300,00	1,269	70,079	5,50691
903,96	300,00	1,269	70,047	23,8070
904,96	300,00	1,268	70,042	26,8652
905,96	300,00	1,268	70,029	26,4577
906,96	300,00	1,268	70,003	31,8605
907,96	300,00	1,268	69,993	20,5530
908,96	300,00	1,267	69,986	3,19502
909,96	300,00	1,267	69,959	-6,73800
910,96	300,00	1,267	69,965	-8,56901
911,96	300,00	1,267	69,951	-23,8389
912,96	300,00	1,266	69,920	-22,4271
913,96	300,00	1,266	69,896	-17,4567
914,96	300,00	1,265	69,877	-9,67441
915,96	300,00	1,265	69,877	-8,07907
916,96	300,00	1,265	69,855	-4,43126
917,96	300,00	1,265	69,843	-3,07485
918,96	300,00	1,265	69,823	3,93970
919,96	300,00	1,264	69,806	14,4164
920,96	300,00	1,264	69,791	31,5014
921,96	300,00	1,264	69,778	35,0965
922,96	300,00	1,263	69,761	32,5754
923,96	300,00	1,263	69,758	25,3907
924,96	300,00	1,263	69,727	14,3413
925,96	300,00	1,262	69,709	0,406985
926,96	300,00	1,262	69,702	-12,1448
927,96	300,00	1,262	69,683	-21,1958
928,96	300,00	1,262	69,684	-23,9712
929,96	300,00	1,261	69,653	-12,7093
930,96	300,00	1,261	69,630	-6,27406
931,96	300,00	1,261	69,614	-2,87500
932,96	300,00	1,261	69,615	-6,60878
933,96	300,00	1,260	69,565	-5,84259
934,96	300,00	1,259	69,543	-4,77033
935,96	300,00	1,260	69,551	0,342932
936,96	300,00	1,259	69,532	11,2907
937,96	300,00	1,259	69,512	20,8398
938,96	300,00	1,259	69,501	24,7240
939,96	300,00	1,258	69,489	16,7369
940,96	300,00	1,259	69,521	8,02938
941,96	300,00	1,258	69,472	-1,90373
942,96	300,00	1,257	69,432	-9,18056
943,96	300,00	1,258	69,439	-18,4544
944,96	300,00	1,257	69,409	-15,7607
945,96	300,00	1,257	69,402	-1,56920
946,96	300,00	1,256	69,374	12,2845
947,96	300,00	1,256	69,345	23,6034
948,96	300,00	1,256	69,340	16,2108
949,96	300,00	1,255	69,319	11,5667
950,96	300,00	1,255	69,282	11,6399
951,96	300,00	1,255	69,279	10,7296
952,96	300,00	1,254	69,262	6,01494
953,96	300,00	1,254	69,256	4,24078
954,96	300,00	1,254	69,229	8,94887
955,96	300,00	1,253	69,209	-2,32544
956,96	300,00	1,253	69,187	-21,0095
957,96	300,00	1,254	69,232	-29,3870
958,96	300,00	1,253	69,194	-30,7873
959,96	300,00	1,252	69,136	-34,3606
960,96	300,00	1,252	69,140	-32,6175
961,96	300,00	1,252	69,136	-27,0364
962,96	300,00	1,251	69,098	-18,7211
963,96	300,00	1,251	69,074	-8,72060
964,96	300,00	1,250	69,045	-4,51221
965,96	300,00	1,250	69,037	4,47599
966,96	300,00	1,250	69,006	15,4875
967,96	300,00	1,250	69,008	33,2346
968,96	300,00	1,249	68,980	38,3469
969,96	300,00	1,249	68,969	38,3469
970,96	300,00	1,249	68,968	43,4292
971,96	300,00	1,248	68,929	46,6960
972,96	300,00	1,248	68,923	41,9705
973,96	300,00	1,248	68,891	28,7899
974,96	300,00	1,247	68,881	15,4583
975,96	300,00	1,247	68,854	1,03971
976,96	300,00	1,247	68,837	-7,30570
977,96	300,00	1,246	68,818	-16,4742
978,96	300,00	1,246	68,800	-22,0203
979,96	300,00	1,246	68,807	-16,8274
980,96	300,00	1,246	68,776	-14,3695
981,96	300,00	1,245	68,765	-10,8884
982,96	300,00	1,245	68,743	-7,91669
983,96	300,00	1,245	68,720	-14,2307
984,96	300,00	1,244	68,697	-11,3694
985,96	300,00	1,244	68,695	1,53629
986,96	300,00	1,244	68,681	5,18562
987,96	300,00	1,243	68,631	16,5692
988,96	300,00	1,243	68,634	26,2200
989,96	300,00	1,242	68,572	31,1429
990,96	300,00	1,242	68,591	29,7909
991,96	300,00	1,242	68,560	25,8303
992,96	300,00	1,241	68,545	24,6698
993,96	300,00	1,241	68,515	20,5807
994,96	300,00	1,241	68,510	8,27139
995,96	300,00	1,240	68,485	0,0223870
996,96	300,00	1,240	68,475	6,23305
997,96	300,00	1,240	68,448	10,8220
998,96	300,00	1,239	68,435	20,6934
999,96	300,00	1,239	68,415	22,6146
1000,96	300,00	1,239	68,397	12,7755
1001,96	300,00	1,238	68,371	8,61941
1002,96	300,00	1,238	68,352	18,7855
1003,96	300,00	1,238	68,342	-5,56286
1004,96	300,00	1,237	68,318	-24,4623
1005,96	300,00	1,237	68,290	-44,0212
1006,96	300,00	1,237	68,300	-32,3128
1007,96	300,00	1,236	68,257	-40,0953
1008,96	300,00	1,236	68,258	-34,9244
1009,96	300,00	1,235	68,191	-0,659073
1010,96	300,00	1,235	68,194	-3,54395
1011,96	300,00	1,235	68,188	2,48130
1012,96	300,00	1,234	68,157	5,83863
1013,96	300,00	1,234	68,155	6,39195
1014,96	300,00	1,234	68,154	-10,9818
1015,96	300,00	1,234	68,129	-29,3012
1016,96	300,00	1,233	68,099	-37,2304
1017,96	300,00	1,233	68,066	-38,8117
1018,96	300,00	1,232	68,050	-24,0216
1019,96	300,00	1,232	68,029	-9,88038
1020,96	300,00	1,232	68,016	5,28361
1021,96	300,00	1,231	67,993	8,87916
1022,96	300,00	1,231	67,974	4,33504
1023,96	300,00	1,231	67,969	18,1762
1024,96	300,00	1,230	67,937	18,8528
1025,96	300,00	1,230	67,910	34,3002
1026,96	300,00	1,230	67,897	34,3168
1027,96	300,00	1,229	67,879	18,2317
1028,96	300,00	1,229	67,851	6,02969
1029,96	300,00	1,229	67,852	4,62916
1030,96	300,00	1,229	67,849	-0,0590635
1031,96	300,00	1,228	67,811	-8,50870
1032,96	300,00	1,227	67,766	-18,2823
1033,96	300,00	1,227	67,734	-35,3904
1034,96	300,00	1,227	67,768	-36,0155
1035,96	300,00	1,226	67,724	-23,2292
1036,96	300,00	1,226	67,705	-11,9595
1037,96	300,00	1,226	67,690	7,89811
1038,96	300,00	1,225	67,656	12,1177
1039,96	300,00	1,225	67,646	18,3319
1040,96	300,00	1,225	67,625	24,1163
1041,96	300,00	1,224	67,613	37,0532
1042,96	300,00	1,224	67,591	47,5380
1043,96	300,00	1,224	67,572	48,3983
1044,96	300,00	1,223	67,556	46,4937
1045,96	300,00	1,223	67,523	47,9194
1046,96	300,00	1,223	67,509	41,6597
1047,96	300,00	1,223	67,507	41,8630
1048,96	300,00	1,222	67,463	43,6410
1049,96	300,00	1,221	67,444	30,6553
1050,96	300,00	1,221	67,422	33,0823
1051,96	300,00	1,221	67,406	34,6706
1052,96	300,00	1,221	67,403	41,1153
1053,96	300,00	1,221	67,395	44,2406
1054,96	300,00	1,220	67,352	39,1372
1055,96	300,00	1,219	67,298	27,5694
1056,96	300,00	1,219	67,315	26,8680
1057,96	300,00	1,219	67,294	11,1342
1058,96	300,00	1,218	67,262	-16,0843
1059,96	300,00	1,218	67,259	-29,9721
1060,96	300,00	1,217	67,218	-43,0894
1061,96	300,00	1,217	67,201	-47,0243
1062,96	300,00	1,216	67,172	-48,8378
1063,96	300,00	1,216	67,133	-49,9351
1064,96	300,00	1,216	67,141	-42,4054
1065,96	300,00	1,216	67,118	-39,5987
1066,96	300,00	1,215	67,096	-39,1354
1067,96	300,00	1,215	67,065	-36,0584
1068,96	300,00	1,214	67,045	-13,7574
1069,96	300,00	1,214	67,030	-0,718336
1070,96	300,00	1,213	67,006	3,11609
1071,96	300,00	1,213	66,995	-9,21917
1072,96	300,00	1,213	66,958	-7,00061
1073,96	300,00	1,212	66,945	2,30410
1074,96	300,00	1,212	66,914	6,85888
1075,96	300,00	1,212	66,901	10,8842
1076,96	300,00	1,211	66,873	17,9665
1077,96	300,00	1,211	66,877	11,1051
1078,96	300,00	1,211	66,867	13,0254
1079,96	300,00	1,210	66,813	16,4274
1080,96	300,00	1,209	66,786	21,4972
1081,96	300,00	1,209	66,757	30,3164
1082,96	300,00	1,208	66,730	37,7026
1083,96	300,00	1,209	66,744	37,7102
1084,96	300,00	1,208	66,705	28,5325
1085,96	300,00	1,208	66,686	50,4404
1086,96	300,00	1,207	66,642	51,8750
1087,96	300,00	1,207	66,634	41,0282
1088,96	300,00	1,206	66,615	13,2623
1089,96	300,00	1,206	66,600	-15,2608
1090,96	300,00	1,206	66,580	-41,3836
1091,96	300,00	1,205	66,562	-50,6127
1092,96	300,00	1,205	66,550	-47,1729
1093,96	300,00	1,205	66,523	-46,3999
1094,96	300,00	1,204	66,504	-45,9527
1095,96	300,00	1,204	66,487	-29,4424
1096,96	300,00	1,204	66,485	-16,4935
1097,96	300,00	1,204	66,458	0,835657
1098,96	300,00	1,203	66,430	18,9417
1099,96	300,00	1,203	66,407	35,3163
1100,96	300,00	1,202	66,385	38,3127
1101,96	300,00	1,202	66,368	39,9238
1102,96	300,00	1,202	66,346	43,9405
1103,96	300,00	1,201	66,324	43,9538
1104,96	300,00	1,201	66,323	30,9743
1105,96	300,00	1,200	66,286	20,3402
1106,96	300,00	1,200	66,255	8,00995
1107,96	300,00	1,199	66,220	-6,50060
1108,96	300,00	1,199	66,216	-18,4753
1109,96	300,00	1,199	66,200	-25,7262
1110,96	300,00	1,198	66,173	-28,6686
1111,96	300,00	1,198	66,174	-33,2510
1112,96	300,00	1,198	66,157	-32,7557
1113,96	300,00	1,197	66,118	-34,7160
1114,96	300,00	1,197	66,096	-28,9288
1115,96	300,00	1,197	66,080	-25,6653
1116,96	300,00	1,196	66,056	-13,3932
1117,96	300,00	1,196	66,036	18,1906
1118,96	300,00	1,196	66,025	37,6912
1119,96	300,00	1,195	66,013	57,9242
1120,96	300,00	1,194	65,915	64,8387
1121,96	300,00	1,194	65,930	63,1977
1122,96	300,00	1,195	65,969	60,8692
1123,96	300,00	1,194	65,906	51,7498
1124,96	300,00	1,193	65,880	44,0872
1125,96	300,00	1,193	65,851	31,3351
1126,96	300,00	1,192	65,831	8,13842
1127,96	300,00	1,193	65,851	-1,65542
1128,96	300,00	1,192	65,807	-10,9741
1129,96	300,00	1,192	65,807	-29,8521
1130,96	300,00	1,191	65,749	-44,4006
1131,96	300,00	1,190	65,735	-46,8650
1132,96	300,00	1,191	65,741	-57,7898
1133,96	300,00	1,190	65,697	-56,5616
1134,96	300,00	1,190	65,691	-59,1103
1135,96	300,00	1,189	65,632	-61,3705
1136,96	300,00	1,188	65,615	-48,8657
1137,96	300,00	1,189	65,629	-30,4794
1138,96	300,00	1,188	65,593	4,23273
1139,96	300,00	1,188	65,579	11,5137
1140,96	300,00	1,187	65,561	-4,20935
1141,96	300,00	1,187	65,542	0,533017
1142,96	300,00	1,186	65,514	-10,5511
1143,96	300,00	1,186	65,489	-17,2082
1144,96	300,00	1,186	65,469	-10,0818
1145,96	300,00	1,185	65,443	11,1549
1146,96	300,00	1,185	65,428	20,2389
1147,96	300,00	1,184	65,401	23,3425
1148,96	300,00	1,184	65,386	28,7752
1149,96	300,00	1,184	65,358	33,7219
1150,96	300,00	1,183	65,341	23,9493
1151,96	300,00	1,183	65,312	15,0210
1152,96	300,00	1,183	65,315	-3,07146
1153,96	300,00	1,182	65,241	-1,94657
1154,96	300,00	1,181	65,239	3,19260
1155,96	300,00	1,182	65,259	7,25237
1156,96	300,00	1,181	65,219	0,613005
1157,96	300,00	1,180	65,182	-9,33541
1158,96	300,00	1,180	65,172	-11,2574
1159,96	300,00	1,181	65,187	-22,5871
1160,96	300,00	1,179	65,118	-26,4126
1161,96	300,00	1,179	65,114	-9,42293
1162,96	300,00	1,179	65,093	4,11037
1163,96	300,00	1,178	65,070	39,0790
1164,96	300,00	1,178	65,048	47,5892
1165,96	300,00	1,178	65,026	45,4565
1166,96	300,00	1,177	65,011	42,1648
1167,96	300,00	1,177	64,983	8,84326
1168,96	300,00	1,176	64,963	-7,26439
1169,96	300,00	1,177	64,972	-23,0963
1170,96	300,00	1,176	64,922	-28,4302
1171,96	300,00	1,175	64,903	-32,4758
1172,96	300,00	1,175	64,875	-25,4058
1173,96	300,00	1,175	64,858	-21,3375
1174,96	300,00	1,174	64,842	-17,9416
1175,96	300,00	1,173	64,789	-16,4038
1176,96	300,00	1,174	64,819	-22,1370
1177,96	300,00	1,173	64,796	-23,2016
1178,96	300,00	1,173	64,769	-24,2481
1179,96	300,00	1,173	64,751	-25,7416
1180,96	300,00	1,172	64,724	-23,7100
1181,96	300,00	1,172	64,688	-14,5367
1182,96	300,00	1,172	64,693	-8,22229
1183,96	300,00	1,171	64,644	-3,71349
1184,96	300,00	1,170	64,626	-2,76537
1185,96	300,00	1,170	64,605	-7,60397
1186,96	300,00	1,170	64,582	-12,2894
1187,96	300,00	1,169	64,572	-22,0898
1188,96	300,00	1,169	64,552	-23,5845
1189,96	300,00	1,169	64,528	-18,2214
1190,96	300,00	1,168	64,518	-7,46715
1191,96	300,00	1,168	64,495	5,51882
1192,96	300,00	1,168	64,488	10,9937
1193,96	300,00	1,167	64,457	18,3049
1194,96	300,00	1,167	64,429	23,4195
1195,96	300,00	1,167	64,419	24,5829
1196,96	300,00	1,166	64,406	23,0150
1197,96	300,00	1,166	64,396	23,4369
1198,96	300,00	1,165	64,352	27,2832
1199,96	300,00	1,166	64,373	28,7766
1200,96	300,00	1,165	64,338	30,7437
1201,96	300,00	1,165	64,349	31,8353
1202,96	300,00	1,165	64,334	31,4045
1203,96	300,00	1,165	64,302	31,1338
1204,96	300,00	1,164	64,288	29,7486
1205,96	300,00	1,164	64,286	25,9144
1206,96	300,00	1,164	64,258	18,8224
1207,96	300,00	1,163	64,222	6,56140
1208,96	300,00	1,162	64,173	-11,7122
1209,96	300,00	1,162	64,189	-32,1399
1210,96	300,00	1,162	64,174	-37,9823
1211,96	300,00	1,162	64,168	-37,6326
1212,96	300,00	1,162	64,144	-39,1398
1213,96	300,00	1,161	64,130	-38,4561
1214,96	300,00	1,161	64,116	-33,5726
1215,96	300,00	1,161	64,093	-28,9252
1216,96	300,00	1,160	64,072	-16,8883
1217,96	300,00	1,160	64,057	-10,2720
1218,96	300,00	1,160	64,059	-8,68628
1219,96	300,00	1,159	64,019	-3,70064
1220,96	300,00	1,159	64,002	2,25147e-3
1221,96	300,00	1,159	63,982	-8,36866
1222,96	300,00	1,158	63,967	-12,5980
1223,96	300,00	1,158	63,964	-14,4029
1224,96	300,00	1,158	63,939	-15,0116
1225,96	300,00	1,158	63,950	-12,9092
1226,96	300,00	1,158	63,917	-9,03119
1227,96	300,00	1,157	63,874	-15,1483
1228,96	300,00	1,157	63,864	-22,1117
1229,96	300,00	1,156	63,840	-18,9745
1230,96	300,00	1,156	63,821	-14,2471
1231,96	300,00	1,155	63,789	-3,88955
1232,96	300,00	1,155	63,804	-0,0756165
1233,96	300,00	1,155	63,777	8,65844
1234,96	300,00	1,154	63,728	10,0924
1235,96	300,00	1,154	63,735	21,2794
1236,96	300,00	1,154	63,720	26,4021
1237,96	300,00	1,154	63,696	27,0651
1238,96	300,00	1,153	63,683	25,3393
1239,96	300,00	1,153	63,666	21,5515
1240,96	300,00	1,153	63,655	11,3148
1241,96	300,00	1,152	63,630	5,92902
1242,96	300,00	1,152	63,611	3,25606
1243,96	300,00	1,152	63,585	1,70179
1244,96	300,00	1,151	63,582	-3,80870
1245,96	300,00	1,151	63,564	3,86758
1246,96	300,00	1,151	63,551	17,3739
1247,96	300,00	1,150	63,511	29,4734
1248,96	300,00	1,150	63,528	35,1230
1249,96	300,00	1,150	63,522	34,8836
1250,96	300,00	1,150	63,490	35,0921
1251,96	300,00	1,149	63,450	33,9122
1252,96	300,00	1,150	63,487	30,1665
1253,96	300,00	1,149	63,451	23,4739
1254,96	300,00	1,149	63,435	15,8655
1255,96	300,00	1,148	63,413	7,64230
1256,96	300,00	1,148	63,392	-0,748689
1257,96	300,00	1,148	63,391	-0,0295159
1258,96	300,00	1,147	63,356	-9,44301e-3
1259,96	300,00	1,147	63,344	-7,37234e-3
1260,96	300,00	1,147	63,320	-6,92482e-3
1261,96	300,00	1,147	63,308	-7,67662e-3
1262,96	300,00	1,146	63,292	-9,70539e-3
1263,96	300,00	1,146	63,284	-0,0133422
1264,96	300,01	1,146	63,275	-0,0195008
1265,96	302,20	1,147	63,316	-0,0292334
1266,96	309,30	1,147	63,312	-0,0445339
1267,96	318,26	1,145	63,249	-0,0679888
1268,96	327,48	1,144	63,149	-0,102902
1269,96	336,89	1,141	63,030	-0,152486
1270,96	346,61	1,137	62,780	-0,217167
1271,96	356,60	1,129	62,316	-0,290276
1272,96	366,76	1,112	61,401	-0,360549
1273,96	376,96	1,084	59,834	-0,422420
1274,96	387,16	1,033	57,059	-0,473948
1275,96	397,31	0,948	52,360	-0,511338
1276,96	407,40	0,813	44,901	-0,533378
1277,96	417,46	0,616	33,990	-0,540126
1278,96	427,48	0,370	20,429	-0,531653
1279,96	437,51	0,147	8,119	-0,507842
1280,96	447,53	0,022	1,235	-0,468834
1281,96	457,55	-0,022	-1,239	-0,415555
1282,96	467,57	-0,031	-1,730	-0,349871
1283,96	477,61	-0,032	-1,767	-0,275200
1284,96	487,65	-0,032	-1,788	-0,196892
1285,96	497,69	-0,032	-1,779	-0,122810
1286,96	507,72	-0,033	-1,797	-0,0626491
1287,96	517,75	-0,033	-1,804	-0,0243118
1288,96	527,77	-0,033	-1,817	-7,03269e-3
1289,96	537,80	-0,033	-1,826	-1,69688e-3
1290,96	547,82	-0,033	-1,818	-6,81277e-4
1291,96	557,85	-0,033	-1,821	-5,77091e-4
1292,96	567,88	-0,033	-1,829	-5,16739e-4
1293,96	577,90	-0,033	-1,834	-4,56445e-4
1294,96	587,92	-0,034	-1,852	-3,46936e-4
1295,96	597,94	-0,034	-1,876	-2,30554e-4
1296,96	607,96	-0,034	-1,867	-1,29011e-4
1297,96	617,98	-0,034	-1,857	-5,04060e-5
1298,96	628,00	-0,034	-1,857	8,50563e-5
1299,96	638,02	-0,033	-1,839	2,21489e-4
1300,96	648,04	-0,034	-1,861	3,46468e-4
1301,96	658,05	-0,034	-1,858	5,04446e-4
1302,96	668,07	-0,033	-1,817	6,70685e-4
1303,96	678,09	-0,033	-1,827	8,18946e-4
1304,96	688,10	-0,033	-1,842	1,00518e-3
1305,96	698,12	-0,034	-1,880	1,16451e-3
1306,96	708,14	-0,032	-1,782	1,33880e-3
1307,96	718,15	-0,032	-1,769	1,44049e-3
1308,96	728,17	-0,032	-1,784	1,52393e-3
1309,96	738,18	-0,032	-1,783	1,61226e-3
1310,96	748,19	-0,031	-1,724	1,71610e-3
1311,96	758,20	-0,031	-1,722	1,84804e-3
1312,96	768,22	-0,030	-1,644	2,02076e-3
1313,96	778,23	-0,029	-1,624	2,13905e-3
1314,79	786,57	-0,029	-1,628	2,10149e-3