File: data/TGA/005d-L_M/M2_000001 -temp_104 AMU_XIC
Time	Ion Current
min	mA
0.00	1.00000e-13
0.97	1.00000e-13
1.94	1.00000e-13
2.91	1.00000e-13
3.88	1.00000e-13
4.85	1.00000e-13
5.82	1.00000e-13
6.79	1.00000e-13
7.76	1.00000e-13
8.73	1.00000e-13
9.70	1.00000e-13
10.67	1.00000e-13
11.64	1.00000e-13
12.61	1.00000e-13
13.58	1.00000e-13
14.55	1.94634e-5
15.52	1.00000e-13
16.49	1.00000e-13
17.46	1.00000e-13
18.43	1.00000e-13
19.40	1.00000e-13
20.37	1.00000e-13
21.34	1.00000e-13
22.31	1.00000e-13
23.28	1.00000e-13
24.25	1.00000e-13
25.22	1.00000e-13
26.19	1.00000e-13
27.15	1.00000e-13
28.13	1.00000e-13
29.10	1.00000e-13
30.07	9.26828e-6
31.04	1.00000e-13
32.00	1.00000e-13
32.98	1.00000e-13
33.95	1.00000e-13
34.91	1.00000e-13
35.88	1.00000e-13
36.86	1.00000e-13
37.83	1.00000e-13
38.80	1.00000e-13
39.76	1.00000e-13
40.74	1.00000e-13
41.71	1.00000e-13
42.68	7.06706e-6
43.64	1.00000e-13
44.61	1.00000e-13
45.59	1.00000e-13
46.55	1.00000e-13
47.52	2.54878e-6
48.49	1.00000e-13
49.47	1.00000e-13
50.44	1.00000e-13
51.40	1.00000e-13
52.37	1.00000e-13
53.35	1.00000e-13
54.31	1.00000e-13
55.28	1.00000e-13
56.25	1.00000e-13
57.22	1.00000e-13
58.19	1.00000e-13
59.16	1.00000e-13
60.13	1.00000e-13
61.10	1.00000e-13
62.07	1.00000e-13
63.04	1.00000e-13
64.01	1.00000e-13
64.98	1.00000e-13
65.95	1.00000e-13
66.92	1.00000e-13
67.89	1.00000e-13
68.86	1.00000e-13
69.83	1.00000e-13
70.80	1.00000e-13
71.77	1.00000e-13
72.74	8.92072e-6
73.72	1.00000e-13
74.68	1.00000e-13
75.65	1.00000e-13
76.62	1.00000e-13
77.59	2.17805e-5
78.56	1.00000e-13
79.53	1.00000e-13
80.50	1.00000e-13
81.47	1.00000e-13
82.44	1.00000e-13
83.41	1.00000e-13
84.38	1.00000e-13
85.35	5.79267e-7
86.32	1.00000e-13
87.29	1.00000e-13
88.26	1.00000e-13
89.23	1.00000e-13
90.20	1.00000e-13
91.17	1.00000e-13
92.14	1.00000e-13
93.11	1.00000e-13
94.08	1.00000e-13
95.05	1.00000e-13
96.02	1.00000e-13
96.99	1.00000e-13
97.96	1.00000e-13
98.93	1.00000e-13
99.90	1.00000e-13
100.87	1.00000e-13
101.84	1.00000e-13
102.81	1.00000e-13
103.78	1.00000e-13
104.75	1.00000e-13
105.72	1.00000e-13
106.69	1.00000e-13
107.66	1.00000e-13
108.63	7.87804e-6
109.60	1.00000e-13
110.57	1.42500e-5
111.54	1.00000e-13
112.51	1.00000e-13
113.48	1.00000e-13
114.45	1.00000e-13
115.42	1.00000e-13
116.39	1.00000e-13
117.36	1.00000e-13
118.33	1.00000e-13
119.30	1.00000e-13
120.27	1.00000e-13
121.24	1.00000e-13
122.21	1.32073e-5
123.18	7.99389e-6
124.15	1.00000e-13
125.12	1.00000e-13
126.09	1.00000e-13
127.06	1.07744e-5
128.02	1.00000e-13
129.00	1.00000e-13
129.97	1.00000e-13
130.94	1.00000e-13
131.91	1.00000e-13
132.88	1.00000e-13
133.84	1.00000e-13
134.81	2.78048e-6
135.79	1.00000e-13
136.76	1.00000e-13
137.73	1.00000e-13
138.70	1.00000e-13
139.66	1.00000e-13
140.63	1.00000e-13
141.61	1.00000e-13
142.58	1.00000e-13
143.55	1.00000e-13
144.52	1.00000e-13
145.49	1.00000e-13
146.45	1.00000e-13
147.42	1.00000e-13
148.39	1.00000e-13
149.36	1.00000e-13
150.33	9.49998e-6
151.31	1.00000e-13
152.27	1.00000e-13
153.24	1.00000e-13
154.22	1.00000e-13
155.19	1.00000e-13
156.16	1.00000e-13
157.12	1.00000e-13
158.09	1.00000e-13
159.06	1.00000e-13
160.03	1.00000e-13
161.00	1.00000e-13
161.97	1.00000e-13
162.94	1.00000e-13
163.91	2.08536e-6
164.88	1.00000e-13
165.85	1.00000e-13
166.82	1.00000e-13
167.80	1.00000e-13
168.76	1.00000e-13
169.73	1.00000e-13
170.70	1.00000e-13
171.67	1.00000e-13
172.64	1.00000e-13
173.61	1.27439e-6
174.58	1.00000e-13
175.55	1.00000e-13
176.52	1.00000e-13
177.49	1.00000e-13
178.46	1.00000e-13
179.43	1.00000e-13
180.40	1.00000e-13
181.37	8.34145e-6
182.34	1.00000e-13
183.31	1.00000e-13
184.28	1.00000e-13
185.25	6.83536e-6
186.22	1.00000e-13
187.19	1.00000e-13
188.16	1.00000e-13
189.13	1.00000e-13
190.10	1.00000e-13
191.07	1.00000e-13
192.04	1.00000e-13
193.01	1.00000e-13
193.98	1.00000e-13
194.95	1.00000e-13
195.92	1.00000e-13
196.89	1.00000e-13
197.86	1.00000e-13
198.83	2.58353e-5
199.80	1.00000e-13
200.77	1.00000e-13
201.74	1.00793e-5
202.71	1.00000e-13
203.68	1.00000e-13
204.65	1.00000e-13
205.62	1.00000e-13
206.59	1.00000e-13
207.56	1.00000e-13
208.53	1.00000e-13
209.50	1.00000e-13
210.47	1.00000e-13
211.44	1.00000e-13
212.41	1.00000e-13
213.38	1.00000e-13
214.35	1.04268e-6
215.32	1.00000e-13
216.29	1.00000e-13
217.26	1.00000e-13
218.23	1.00000e-13
219.20	1.00000e-13
220.17	1.00000e-13
221.14	1.00000e-13
222.11	1.00000e-13
223.08	1.00000e-13
224.05	1.00000e-13
225.02	1.00000e-13
225.99	1.00000e-13
226.96	1.00000e-13
227.93	1.00000e-13
228.90	1.00000e-13
229.86	1.00000e-13
230.84	1.00000e-13
231.80	1.00000e-13
232.78	1.00000e-13
233.74	1.00000e-13
234.71	1.00000e-13
235.69	1.00000e-13
236.66	1.00000e-13
237.63	1.00000e-13
238.60	1.00000e-13
239.57	1.00000e-13
240.53	1.00000e-13
241.51	1.00000e-13
242.47	1.00000e-13
243.45	1.00000e-13
244.42	1.00000e-13
245.38	1.00000e-13
246.36	1.00000e-13
247.32	1.00000e-13
248.29	1.00000e-13
249.27	1.00000e-13
250.24	1.00000e-13
251.21	1.00000e-13
252.18	1.00000e-13
253.14	1.00000e-13
254.11	1.00000e-13
255.08	1.00000e-13
256.05	1.00000e-13
257.02	1.00000e-13
257.99	1.00000e-13
258.96	1.00000e-13
259.93	1.00000e-13
260.90	1.00000e-13
261.88	1.00000e-13
262.84	1.00000e-13
263.81	1.00000e-13
264.78	1.00000e-13
265.75	1.00000e-13
266.72	1.00000e-13
267.69	3.29024e-5
268.66	1.00000e-13
269.63	1.26280e-5
270.60	1.00000e-13
271.57	1.00000e-13
272.54	1.00000e-13
273.52	1.00000e-13
274.48	1.00000e-13
275.45	1.00000e-13
276.42	1.00000e-13
277.39	1.00000e-13
278.36	1.00000e-13
279.33	1.00000e-13
280.30	1.00000e-13
281.27	1.00000e-13
282.24	1.00000e-13
283.21	1.00000e-13
284.18	1.00000e-13
285.15	1.00000e-13
286.12	1.00000e-13
287.09	1.00000e-13
288.06	1.00000e-13
289.03	1.00000e-13
290.00	1.00000e-13
290.97	1.00000e-13
291.94	1.00000e-13
292.91	1.00000e-13
293.88	1.00000e-13
294.85	1.00000e-13
295.82	1.00000e-13
296.79	1.00000e-13
297.76	1.00000e-13
298.73	1.00000e-13
299.70	1.00000e-13
300.67	1.00000e-13
301.64	1.00000e-13
302.61	1.00000e-13
303.58	1.00000e-13
304.55	1.00000e-13
305.52	1.00000e-13
306.49	1.00000e-13
307.46	1.00000e-13
308.43	1.00000e-13
309.40	1.00000e-13
310.37	1.00000e-13
311.34	1.00000e-13
312.31	1.00000e-13
313.28	1.00000e-13
314.25	1.00000e-13
315.22	1.00000e-13
316.19	1.00000e-13
317.16	1.00000e-13
318.13	1.00000e-13
319.10	1.00000e-13
320.07	1.00000e-13
321.04	1.00000e-13
322.01	1.00000e-13
322.98	1.00000e-13
323.95	1.00000e-13
324.92	1.00000e-13
325.89	1.00000e-13
326.86	1.00000e-13
327.83	1.00000e-13
328.80	1.00000e-13
329.77	1.00000e-13
330.74	1.00000e-13
331.71	1.00000e-13
332.68	1.00000e-13
333.65	1.00000e-13
334.62	1.00000e-13
335.59	1.00000e-13
336.56	1.00000e-13
337.53	1.00000e-13
338.49	1.00000e-13
339.46	1.00000e-13
340.43	1.00000e-13
341.41	1.00000e-13
342.38	1.00000e-13
343.35	1.00000e-13
344.31	1.00000e-13
345.28	1.00000e-13
346.25	1.00000e-13
347.23	1.00000e-13
348.20	1.00000e-13
349.16	1.00000e-13
350.13	1.00000e-13
351.11	1.00000e-13
352.08	1.00000e-13
353.05	1.00000e-13
354.01	1.26280e-5
354.99	1.00000e-13
355.96	1.00000e-13
356.93	1.00000e-13
357.89	1.00000e-13
358.86	1.00000e-13
359.83	1.00000e-13
360.80	1.00000e-13
361.77	1.00000e-13
362.74	1.00000e-13
363.71	1.00000e-13
364.68	1.00000e-13
365.65	1.00000e-13
366.62	1.00000e-13
367.60	1.00000e-13
368.56	1.00000e-13
369.53	1.00000e-13
370.50	1.00000e-13
371.47	1.00000e-13
372.44	1.00000e-13
373.41	1.00000e-13
374.38	1.00000e-13
375.35	1.00000e-13
376.32	1.00000e-13
377.29	1.00000e-13
378.26	1.00000e-13
379.23	1.00000e-13
380.21	9.26828e-7
381.17	1.00000e-13
382.14	1.00000e-13
383.11	1.00000e-13
384.08	1.00000e-13
385.05	9.96340e-6
386.02	1.00000e-13
386.99	1.00000e-13
387.96	1.00000e-13
388.93	1.00000e-13
389.90	1.00000e-13
390.87	1.00000e-13
391.84	1.00000e-13
392.81	1.00000e-13
393.78	1.00000e-13
394.75	1.00000e-13
395.72	1.00000e-13
396.69	1.00000e-13
397.66	1.00000e-13
398.63	1.00000e-13
399.60	1.00000e-13
400.57	1.00000e-13
401.54	1.00000e-13
402.51	1.00000e-13
403.48	1.00000e-13
404.45	1.00000e-13
405.42	1.00000e-13
406.39	1.00000e-13
407.36	1.00000e-13
408.33	1.00000e-13
409.30	1.00000e-13
410.27	1.00000e-13
411.24	1.00000e-13
412.21	1.00000e-13
413.18	1.00000e-13
414.15	1.00000e-13
415.12	1.00000e-13
416.09	1.00000e-13
417.06	1.00000e-13
418.03	1.00000e-13
419.00	1.00000e-13
419.97	1.00000e-13
420.94	1.00000e-13
421.91	1.00000e-13
422.88	1.00000e-13
423.85	1.00000e-13
424.82	1.00000e-13
425.79	1.00000e-13
426.75	1.00000e-13
427.73	1.00000e-13
428.69	1.00000e-13
429.67	1.13536e-5
430.63	1.00000e-13
431.60	1.00000e-13
432.58	1.00000e-13
433.55	1.00000e-13
434.51	1.04268e-6
435.49	1.00000e-13
436.46	1.00000e-13
437.43	1.00000e-13
438.40	1.00000e-13
439.36	1.00000e-13
440.34	1.00000e-13
441.30	4.86585e-6
442.27	1.00000e-13
443.25	1.00000e-13
444.22	1.00000e-13
445.19	1.00000e-13
446.15	1.00000e-13
447.13	1.00000e-13
448.10	1.00000e-13
449.07	1.00000e-13
450.04	1.00000e-13
451.00	1.00000e-13
451.97	1.00000e-13
452.94	1.00000e-13
453.91	1.00000e-13
454.88	1.00000e-13
455.85	1.00000e-13
456.82	1.00000e-13
457.79	1.00000e-13
458.76	1.00000e-13
459.73	1.00000e-13
460.70	1.00000e-13
461.67	1.00000e-13
462.65	1.00000e-13
463.61	1.00000e-13
464.58	2.73414e-5
465.55	1.99268e-5
466.52	1.00000e-13
467.49	1.00000e-13
468.46	1.00000e-13
469.43	1.00000e-13
470.40	1.00000e-13
471.37	1.00000e-13
472.34	1.00000e-13
473.32	1.00000e-13
474.28	1.00000e-13
475.25	1.00000e-13
476.22	1.00000e-13
477.19	1.00000e-13
478.16	1.00000e-13
479.13	1.00000e-13
480.10	1.00000e-13
481.07	1.00000e-13
482.04	1.00000e-13
483.01	1.00000e-13
483.98	1.00000e-13
484.95	1.00000e-13
485.92	1.00000e-13
486.89	1.00000e-13
487.86	1.00000e-13
488.83	1.00000e-13
489.80	1.00000e-13
490.77	1.00000e-13
491.74	1.00000e-13
492.71	1.00000e-13
493.68	1.00000e-13
494.65	1.00000e-13
495.62	1.00000e-13
496.59	1.00000e-13
497.57	1.00000e-13
498.53	1.00000e-13
499.50	1.00000e-13
500.47	1.00000e-13
501.44	1.00000e-13
502.41	1.00000e-13
503.38	1.00000e-13
504.35	1.00000e-13
505.32	1.00000e-13
506.29	1.00000e-13
507.26	1.00000e-13
508.23	1.96951e-6
509.20	1.00000e-13
510.17	1.00000e-13
511.14	1.00000e-13
512.11	1.00000e-13
513.08	1.00000e-13
514.05	1.00000e-13
515.02	1.00000e-13
515.99	1.00000e-13
516.96	1.00000e-13
517.93	1.00000e-13
518.90	1.00000e-13
519.87	1.00000e-13
520.84	1.00000e-13
521.81	1.00000e-13
522.78	4.05487e-6
523.75	1.00000e-13
524.72	1.00000e-13
525.69	1.00000e-13
526.66	1.00000e-13
527.63	1.00000e-13
528.60	1.00000e-13
529.57	1.00000e-13
530.54	1.00000e-13
531.51	1.00000e-13
532.48	1.00000e-13
533.44	1.00000e-13
534.42	1.00000e-13
535.39	1.00000e-13
536.35	1.00000e-13
537.32	1.00000e-13
538.30	1.00000e-13
539.27	1.00000e-13
540.24	1.00000e-13
541.20	1.00000e-13
542.18	1.00000e-13
543.15	1.00000e-13
544.12	1.00000e-13
545.09	1.00000e-13
546.05	1.00000e-13
547.02	1.00000e-13
547.99	1.00000e-13
548.97	1.00000e-13
549.93	4.74999e-6
550.91	1.00000e-13
551.87	1.00000e-13
552.84	1.00000e-13
553.82	1.00000e-13
554.79	1.00000e-13
555.76	1.00000e-13
556.73	1.00000e-13
557.69	1.00000e-13
558.66	1.00000e-13
559.63	1.00000e-13
560.60	1.00000e-13
561.57	1.00000e-13
562.54	1.00000e-13
563.51	1.00000e-13
564.48	1.00000e-13
565.45	1.00000e-13
566.42	1.00000e-13
567.40	1.00000e-13
568.36	1.00000e-13
569.33	1.00000e-13
570.30	4.63414e-7
571.27	1.00000e-13
572.24	1.00000e-13
573.21	1.00000e-13
574.18	1.00000e-13
575.15	1.00000e-13
576.12	1.00000e-13
577.09	1.00000e-13
578.06	1.00000e-13
579.04	1.00000e-13
580.01	1.00000e-13
580.97	1.00000e-13
581.94	1.00000e-13
582.91	1.00000e-13
583.88	1.00000e-13
584.85	1.00000e-13
585.82	1.00000e-13
586.79	1.00000e-13
587.76	1.00000e-13
588.73	1.00000e-13
589.70	1.00000e-13
590.67	1.00000e-13
591.65	1.00000e-13
592.61	1.00000e-13
593.58	1.00000e-13
594.55	1.00000e-13
595.52	1.00000e-13
596.49	1.00000e-13
597.46	1.00000e-13
598.43	1.00000e-13
599.40	1.00000e-13
600.37	1.00000e-13
601.34	1.00000e-13
602.31	1.00000e-13
603.28	1.00000e-13
604.25	1.00000e-13
605.22	1.00000e-13
606.19	1.00000e-13
607.16	1.00000e-13
608.13	1.00000e-13
609.10	1.00000e-13
610.07	1.00000e-13
611.04	1.00000e-13
612.01	1.00000e-13
612.98	1.00000e-13
613.95	1.00000e-13
614.92	1.00000e-13
615.89	1.00000e-13
616.86	1.00000e-13
617.83	1.00000e-13
618.80	1.00000e-13
619.77	1.00000e-13
620.74	1.00000e-13
621.71	1.00000e-13
622.68	1.00000e-13
623.65	1.00000e-13
624.62	1.00000e-13
625.59	1.00000e-13
626.56	1.00000e-13
627.53	1.00000e-13
628.50	1.00000e-13
629.47	1.00000e-13
630.44	1.00000e-13
631.41	1.00000e-13
632.38	1.00000e-13
633.35	1.00000e-13
634.31	1.00000e-13
635.29	1.00000e-13
636.25	1.00000e-13
637.23	1.00000e-13
638.20	1.00000e-13
639.17	1.00000e-13
640.14	1.00000e-13
641.11	1.00000e-13
642.08	1.00000e-13
643.04	1.00000e-13
644.02	1.00000e-13
644.98	1.00000e-13
645.95	1.00000e-13
646.93	1.00000e-13
647.90	3.59146e-6
648.87	1.00000e-13
649.84	1.00000e-13
650.80	1.00000e-13
651.77	1.00000e-13
652.74	1.00000e-13
653.71	1.00000e-13
654.68	1.00000e-13
655.65	1.00000e-13
656.62	1.00000e-13
657.59	1.00000e-13
658.56	1.00000e-13
659.53	1.00000e-13
660.50	1.00000e-13
661.48	1.00000e-13
662.45	1.00000e-13
663.41	1.00000e-13
664.38	1.00000e-13
665.35	1.00000e-13
666.32	1.00000e-13
667.29	1.00000e-13
668.26	1.00000e-13
669.23	1.00000e-13
670.20	1.00000e-13
671.17	1.00000e-13
672.14	1.00000e-13
673.12	1.00000e-13
674.08	1.00000e-13
675.05	1.00000e-13
676.02	1.00000e-13
676.99	1.00000e-13
677.96	1.00000e-13
678.93	1.00000e-13
679.90	1.00000e-13
680.87	1.00000e-13
681.84	1.00000e-13
682.81	1.00000e-13
683.78	1.00000e-13
684.75	1.00000e-13
685.73	1.00000e-13
686.69	1.00000e-13
687.66	1.00000e-13
688.63	1.00000e-13
689.60	1.00000e-13
690.57	1.00000e-13
691.54	1.00000e-13
692.51	1.00000e-13
693.48	1.00000e-13
694.45	1.00000e-13
695.42	1.00000e-13
696.39	1.00000e-13
697.36	1.00000e-13
698.33	1.00000e-13
699.30	1.00000e-13
700.27	1.00000e-13
701.24	1.00000e-13
702.21	1.00000e-13
703.18	1.00000e-13
704.15	1.00000e-13
705.12	1.00000e-13
706.09	1.00000e-13
707.06	1.00000e-13
708.03	1.00000e-13
709.00	1.00000e-13
709.98	1.00000e-13
710.94	1.00000e-13
711.91	1.00000e-13
712.88	1.00000e-13
713.85	1.00000e-13
714.82	1.00000e-13
715.79	1.00000e-13
716.76	1.00000e-13
717.73	1.00000e-13
718.70	1.00000e-13
719.67	1.00000e-13
720.64	1.00000e-13
721.61	1.00000e-13
722.58	1.00000e-13
723.55	1.00000e-13
724.52	1.00000e-13
725.49	1.00000e-13
726.46	1.00000e-13
727.43	1.00000e-13
728.40	1.00000e-13
729.37	1.00000e-13
730.34	1.00000e-13
731.31	1.00000e-13
732.28	1.00000e-13
733.25	1.00000e-13
734.22	1.00000e-13
735.18	1.00000e-13
736.15	1.00000e-13
737.13	1.00000e-13
738.10	1.00000e-13
739.07	1.00000e-13
740.03	1.00000e-13
741.00	1.00000e-13
741.97	1.00000e-13
742.95	1.00000e-13
743.92	1.00000e-13
744.89	1.00000e-13
745.86	1.00000e-13
746.83	1.00000e-13
747.80	1.00000e-13
748.77	1.00000e-13
749.73	1.00000e-13
750.71	1.00000e-13
751.68	1.00000e-13
752.64	1.00000e-13
753.62	1.00000e-13
754.59	1.00000e-13
755.56	1.00000e-13
756.53	1.00000e-13
757.49	1.00000e-13
758.47	1.00000e-13
759.44	1.00000e-13
760.40	1.00000e-13
761.38	1.00000e-13
762.34	1.00000e-13
763.31	1.88841e-5
764.28	1.00000e-13
765.25	1.00000e-13
766.22	1.00000e-13
767.20	1.00000e-13
768.17	1.00000e-13
769.13	1.00000e-13
770.10	1.00000e-13
771.07	1.00000e-13
772.04	1.00000e-13
773.01	6.95121e-6
773.98	1.00000e-13
774.95	1.00000e-13
775.92	1.00000e-13
776.89	1.00000e-13
777.86	1.00000e-13
778.84	1.00000e-13
779.81	1.00000e-13
780.77	1.00000e-13
781.74	1.00000e-13
782.71	1.00000e-13
783.68	1.00000e-13
784.65	1.00000e-13
785.62	1.00000e-13
786.59	1.00000e-13
787.56	1.00000e-13
788.53	1.00000e-13
789.50	1.00000e-13
790.47	3.70731e-6
791.45	1.00000e-13
792.41	1.00000e-13
793.38	1.00000e-13
794.35	1.00000e-13
795.32	1.00000e-13
796.29	1.00000e-13
797.26	1.00000e-13
798.23	1.00000e-13
799.20	1.00000e-13
800.17	1.00000e-13
801.14	1.00000e-13
802.11	1.00000e-13
803.08	1.00000e-13
804.05	1.00000e-13
805.02	1.00000e-13
805.99	1.00000e-13
806.96	1.00000e-13
807.93	1.00000e-13
808.90	1.00000e-13
809.87	1.00000e-13
810.84	1.00000e-13
811.81	1.00000e-13
812.78	1.00000e-13
813.75	1.00000e-13
814.72	1.00000e-13
815.70	1.00000e-13
816.66	1.00000e-13
817.63	1.00000e-13
818.60	1.73780e-6
819.57	1.00000e-13
820.54	1.00000e-13
821.51	1.00000e-13
822.48	1.00000e-13
823.45	1.00000e-13
824.42	1.00000e-13
825.39	1.00000e-13
826.36	1.00000e-13
827.33	1.00000e-13
828.29	1.00000e-13
829.27	1.00000e-13
830.24	1.00000e-13
831.21	1.00000e-13
832.18	1.00000e-13
833.14	1.00000e-13
834.12	1.00000e-13
835.09	1.00000e-13
836.06	1.00000e-13
837.03	1.00000e-13
838.00	1.00000e-13
838.97	1.00000e-13
839.94	1.00000e-13
840.90	1.00000e-13
841.88	1.00000e-13
842.85	1.00000e-13
843.81	1.00000e-13
844.78	1.00000e-13
845.75	1.00000e-13
846.73	1.00000e-13
847.70	1.00000e-13
848.67	1.00000e-13
849.64	1.00000e-13
850.61	1.00000e-13
851.57	1.00000e-13
852.54	1.00000e-13
853.51	1.00000e-13
854.48	1.00000e-13
855.46	1.00000e-13
856.42	1.00000e-13
857.40	1.00000e-13
858.36	1.00000e-13
859.33	1.00000e-13
860.30	1.00000e-13
861.28	1.00000e-13
862.25	1.00000e-13
863.21	1.00000e-13
864.18	2.78048e-6
865.15	1.00000e-13
866.12	1.00000e-13
867.09	1.00000e-13
868.06	1.00000e-13
869.03	1.00000e-13
870.00	1.00000e-13
870.97	1.00000e-13
871.94	1.00000e-13
872.92	1.00000e-13
873.89	1.00000e-13
874.85	1.00000e-13
875.82	1.00000e-13
876.79	1.00000e-13
877.76	1.00000e-13
878.73	1.00000e-13
879.70	1.00000e-13
880.67	1.00000e-13
881.64	1.00000e-13
882.61	1.00000e-13
883.58	1.00000e-13
884.55	1.00000e-13
885.53	1.00000e-13
886.49	1.00000e-13
887.46	1.00000e-13
888.43	9.26828e-7
889.40	1.00000e-13
890.37	1.00000e-13
891.34	1.00000e-13
892.31	1.00000e-13
893.28	1.85366e-6
894.25	1.00000e-13
895.22	1.00000e-13
896.19	1.00000e-13
897.16	1.00000e-13
898.14	1.00000e-13
899.10	1.00000e-13
900.07	1.00000e-13
901.04	1.00000e-13
902.01	1.00000e-13
902.98	1.00000e-13
903.95	1.00000e-13
904.92	1.00000e-13
905.89	1.00000e-13
906.86	1.00000e-13
907.83	1.00000e-13
908.80	1.00000e-13
909.77	1.00000e-13
910.74	1.00000e-13
911.71	1.00000e-13
912.68	1.00000e-13
913.65	1.00000e-13
914.62	1.00000e-13
915.59	2.73414e-5
916.56	1.00000e-13
917.53	1.00000e-13
918.50	1.00000e-13
919.47	1.00000e-13
920.44	1.00000e-13
921.41	1.00000e-13
922.39	1.00000e-13
923.35	1.00000e-13
924.32	1.00000e-13
925.29	1.00000e-13
926.26	1.00000e-13
927.23	1.00000e-13
928.20	1.00000e-13
929.17	1.00000e-13
930.14	1.00000e-13
931.11	1.00000e-13
932.08	1.00000e-13
933.05	1.00000e-13
934.03	1.00000e-13
934.99	1.00000e-13
935.96	1.00000e-13
936.93	1.00000e-13
937.90	1.00000e-13
938.87	1.00000e-13
939.84	1.00000e-13
940.81	1.00000e-13
941.78	1.00000e-13
942.75	1.00000e-13
943.72	1.00000e-13
944.69	1.00000e-13
945.67	1.00000e-13
946.62	1.00000e-13
947.59	1.00000e-13
948.57	1.00000e-13
949.54	1.00000e-13
950.51	1.00000e-13
951.47	1.00000e-13
952.45	1.00000e-13
953.42	1.00000e-13
954.38	1.00000e-13
955.36	1.00000e-13
956.33	1.00000e-13
957.30	1.00000e-13
958.27	1.00000e-13
959.23	1.00000e-13
960.21	4.63414e-7
961.17	1.00000e-13
962.14	1.00000e-13
963.11	1.00000e-13
964.08	1.00000e-13
965.06	1.00000e-13
966.02	1.00000e-13
967.00	1.00000e-13
967.97	1.00000e-13
968.94	1.00000e-13
969.90	1.00000e-13
970.87	1.00000e-13
971.84	1.00000e-13
972.81	1.00000e-13
973.78	1.00000e-13
974.75	1.00000e-13
975.72	2.10853e-5
976.69	1.00000e-13
977.66	1.00000e-13
978.63	1.00000e-13
979.61	1.00000e-13
980.58	1.00000e-13
981.54	1.00000e-13
982.51	1.00000e-13
983.48	1.00000e-13
984.45	1.00000e-13
985.42	1.00000e-13
986.39	1.00000e-13
987.36	1.00000e-13
988.33	1.00000e-13
989.30	1.00000e-13
990.27	1.00000e-13
991.25	1.00000e-13
992.22	1.00000e-13
993.18	1.00000e-13
994.15	1.00000e-13
995.12	1.00000e-13
996.09	1.00000e-13
997.06	1.00000e-13
998.03	1.00000e-13
999.00	1.00000e-13
999.97	1.00000e-13
1000.94	1.00000e-13
1001.91	1.00000e-13
1002.88	1.00000e-13
1003.86	1.00000e-13
1004.82	1.00000e-13
1005.79	1.00000e-13
1006.76	1.00000e-13
1007.73	1.00000e-13
1008.70	1.00000e-13
1009.67	1.00000e-13
1010.64	1.00000e-13
1011.61	1.00000e-13
1012.58	1.00000e-13
1013.55	1.00000e-13
1014.52	1.00000e-13
1015.49	1.00000e-13
1016.46	1.00000e-13
1017.43	1.00000e-13
1018.40	1.00000e-13
1019.37	1.00000e-13
1020.34	1.00000e-13
1021.31	1.00000e-13
1022.28	1.00000e-13
1023.25	1.00000e-13
1024.22	1.00000e-13
1025.19	1.00000e-13
1026.16	1.00000e-13
1027.13	1.00000e-13
1028.11	1.00000e-13
1029.07	1.00000e-13
1030.04	1.00000e-13
1031.01	1.00000e-13
1031.98	1.00000e-13
1032.95	1.00000e-13
1033.92	1.00000e-13
1034.89	1.00000e-13
1035.86	1.00000e-13
1036.83	1.00000e-13
1037.80	1.00000e-13
1038.77	1.00000e-13
1039.74	1.00000e-13
1040.71	1.00000e-13
1041.68	1.00000e-13
1042.65	1.00000e-13
1043.62	1.00000e-13
1044.59	1.00000e-13
1045.56	1.00000e-13
1046.53	1.00000e-13
1047.50	1.00000e-13
1048.47	1.00000e-13
1049.44	1.00000e-13
1050.41	1.00000e-13
1051.38	1.00000e-13
1052.35	1.00000e-13
1053.32	1.00000e-13
1054.28	1.00000e-13
1055.25	1.00000e-13
1056.23	1.00000e-13
1057.20	1.00000e-13
1058.16	1.00000e-13
1059.13	1.00000e-13
1060.10	1.00000e-13
1061.08	1.00000e-13
1062.05	1.00000e-13
1063.02	1.00000e-13
1063.98	1.00000e-13
1064.96	1.00000e-13
1065.93	1.00000e-13
1066.90	1.00000e-13
1067.86	1.00000e-13
1068.83	1.00000e-13
1069.81	1.00000e-13
1070.77	1.00000e-13
1071.75	1.00000e-13
1072.71	1.00000e-13
1073.69	1.00000e-13
1074.66	1.00000e-13
1075.63	1.00000e-13
1076.60	1.00000e-13
1077.57	1.00000e-13
1078.53	1.00000e-13
1079.50	1.00000e-13
1080.47	1.00000e-13
1081.44	1.00000e-13
1082.41	1.00000e-13
1083.38	1.00000e-13
1084.35	1.15853e-7
1085.33	1.00000e-13
1086.30	1.00000e-13
1087.27	1.00000e-13
1088.23	1.00000e-13
1089.20	1.00000e-13
1090.17	1.00000e-13
1091.14	1.00000e-13
1092.11	1.00000e-13
1093.08	1.00000e-13
1094.05	1.00000e-13
1095.02	1.00000e-13
1095.99	1.00000e-13
1096.97	1.00000e-13
1097.94	7.87804e-6
1098.91	1.00000e-13
1099.87	1.00000e-13
1100.84	1.00000e-13
1101.81	1.00000e-13
1102.78	3.03536e-5
1103.75	1.00000e-13
1104.72	1.00000e-13
1105.69	1.00000e-13
1106.66	1.00000e-13
1107.63	1.00000e-13
1108.60	1.00000e-13
1109.58	1.00000e-13
1110.54	1.00000e-13
1111.51	1.00000e-13
1112.48	1.00000e-13
1113.45	1.00000e-13
1114.42	1.00000e-13
1115.39	1.00000e-13
1116.36	1.00000e-13
1117.33	1.00000e-13
1118.30	1.00000e-13
1119.27	1.00000e-13
1120.24	1.00000e-13
1121.21	1.00000e-13
1122.19	1.00000e-13
1123.15	1.00000e-13
1124.12	1.00000e-13
1125.09	1.00000e-13
1126.06	1.00000e-13
1127.03	1.00000e-13
1128.00	1.00000e-13
1128.97	1.00000e-13
1129.94	1.00000e-13
1130.91	1.00000e-13
1131.88	1.00000e-13
1132.85	1.00000e-13
1133.83	1.00000e-13
1134.79	1.00000e-13
1135.76	1.00000e-13
1136.73	1.15853e-6
1137.70	1.00000e-13
1138.67	1.00000e-13
1139.64	1.00000e-13
1140.61	1.00000e-13
1141.58	1.00000e-13
1142.55	1.00000e-13
1143.52	1.00000e-13
1144.49	1.00000e-13
1145.46	1.00000e-13
1146.44	1.00000e-13
1147.40	1.00000e-13
1148.37	1.00000e-13
1149.34	1.00000e-13
1150.31	1.00000e-13
1151.28	1.00000e-13
1152.25	1.00000e-13
1153.22	1.00000e-13
1154.19	1.00000e-13
1155.16	1.85366e-6
1156.13	1.00000e-13
1157.10	1.00000e-13
1158.06	1.00000e-13
1159.04	1.00000e-13
1160.01	1.00000e-13
1160.97	1.00000e-13
1161.95	1.00000e-13
1162.92	1.00000e-13
1163.89	1.00000e-13
1164.85	1.00000e-13
1165.83	1.00000e-13
1166.80	1.00000e-13
1167.77	1.00000e-13
1168.74	1.00000e-13
1169.70	1.00000e-13
1170.67	7.87804e-6
1171.65	1.00000e-13
1172.62	1.00000e-13
1173.59	1.00000e-13
1174.56	1.00000e-13
1175.52	1.00000e-13
1176.50	1.00000e-13
1177.46	1.00000e-13
1178.43	1.00000e-13
1179.41	1.00000e-13
1180.38	1.00000e-13
1181.34	1.00000e-13
1182.31	1.00000e-13
1183.28	1.00000e-13
1184.25	1.00000e-13
1185.22	1.00000e-13
1186.19	1.00000e-13
1187.17	1.00000e-13
1188.13	1.00000e-13
1189.10	1.00000e-13
1190.07	1.00000e-13
1191.05	1.00000e-13
1192.02	1.00000e-13
1192.99	1.00000e-13
1193.95	1.00000e-13
1194.92	1.00000e-13
1195.89	1.00000e-13
1196.86	1.00000e-13
1197.83	1.00000e-13
1198.80	1.00000e-13
1199.77	1.00000e-13
1200.74	1.00000e-13
1201.71	1.00000e-13
1202.68	1.00000e-13
1203.66	1.00000e-13
1204.63	1.00000e-13
1205.59	1.00000e-13
1206.56	1.00000e-13
1207.53	1.00000e-13
1208.50	1.00000e-13
1209.47	1.00000e-13
1210.44	1.00000e-13
1211.41	1.00000e-13
1212.38	1.00000e-13
1213.35	1.00000e-13
1214.32	1.00000e-13
1215.29	1.00000e-13
1216.27	1.00000e-13
1217.23	1.00000e-13
1218.20	1.00000e-13
1219.17	1.00000e-13
1220.14	1.00000e-13
1221.11	1.00000e-13
1222.08	1.00000e-13
1223.05	1.00000e-13
1224.02	1.00000e-13
1224.99	1.00000e-13
1225.96	1.00000e-13
1226.94	1.00000e-13
1227.91	1.00000e-13
1228.88	1.00000e-13
1229.84	1.00000e-13
1230.81	1.00000e-13
1231.78	1.00000e-13
1232.75	1.00000e-13
1233.72	1.00000e-13
1234.69	1.00000e-13
1235.66	1.00000e-13
1236.63	1.00000e-13
1237.60	1.00000e-13
1238.57	1.00000e-13
1239.54	1.00000e-13
1240.52	1.00000e-13
1241.49	1.00000e-13
1242.45	1.00000e-13
1243.42	1.00000e-13
1244.39	1.00000e-13
1245.36	1.00000e-13
1246.33	1.00000e-13
1247.30	1.00000e-13
1248.27	1.00000e-13
1249.24	1.00000e-13
1250.21	1.00000e-13
1251.18	1.00000e-13
1252.16	1.00000e-13
1253.12	1.00000e-13
1254.09	1.00000e-13
1255.06	1.00000e-13
1256.03	1.00000e-13
1257.00	1.00000e-13
1257.97	1.00000e-13
1258.94	1.00000e-13
1259.91	1.00000e-13
1260.88	1.00000e-13
1261.85	1.00000e-13
1262.82	1.00000e-13
1263.80	1.00000e-13
1264.77	1.00000e-13
1265.73	1.00000e-13
1266.70	1.00000e-13
1267.67	1.00000e-13
1268.63	1.00000e-13
1269.61	1.85366e-6
1270.58	1.00000e-13
1271.55	1.00000e-13
1272.51	6.42987e-5
1273.49	1.99847e-4
1274.46	5.38487e-4
1275.43	9.98194e-4
1276.39	2.04018e-3
1277.37	3.71785e-3
1278.34	6.16514e-3
1279.30	9.03766e-3
1280.27	9.84612e-3
1281.25	8.17312e-3
1282.21	4.97510e-3
1283.18	2.40211e-3
1284.16	9.79541e-4
1285.13	5.36633e-4
1286.10	2.37963e-4
1287.07	1.25701e-4
1288.03	6.69633e-5
1289.00	6.01280e-5
1289.97	1.99268e-5
1290.94	1.00000e-13
1291.92	1.00000e-13
1292.88	1.00000e-13
1293.85	1.00000e-13
1294.82	4.98170e-6
1295.79	1.00000e-13
1296.76	1.85366e-6
1297.74	1.00000e-13
1298.71	1.00000e-13
1299.68	1.00000e-13
1300.64	1.00000e-13
1301.61	1.00000e-13
1302.58	1.00000e-13
1303.55	1.00000e-13
1304.52	1.00000e-13
1305.49	1.00000e-13
1306.46	1.00000e-13
1307.43	1.00000e-13
1308.40	1.00000e-13
1309.38	1.00000e-13
1310.35	1.00000e-13
1311.31	1.00000e-13
1312.28	1.00000e-13
1313.25	1.00000e-13
1314.22	1.00000e-13
1314.54	1.00000e-13