File: data/TGA/005d-L_M/styrofoam.txt
Filename	styrofoam
Instrument name
Operator	Galyna
rundate	2025-02-24
Sample name	styrofoam
[step]
Step 1
Time	Temperature	Weight	Weight	Deriv. Weight
min	°C	mg	%	% / °C
0.00	27.73	434.836	99.999	-1.21469e-5
1.04	28.41	434.831	99.998	-2.39486e-5
2.13	30.48	434.841	100.000	-2.67138e-5
3.21	34.52	434.833	99.999	-2.95406e-5
4.29	39.81	434.833	99.999	-2.72833e-5
5.38	45.43	434.835	99.999	-3.10423e-5
6.46	50.88	434.831	99.998	-3.17922e-5
7.54	56.05	434.837	100.000	-2.97417e-5
8.63	61.07	434.830	99.998	-3.08400e-5
9.71	66.10	434.829	99.998	-3.26760e-5
10.79	71.25	434.828	99.997	-3.35426e-5
11.88	76.57	434.830	99.998	-3.86659e-5
12.96	82.01	434.830	99.998	-4.76884e-5
14.04	87.52	434.830	99.998	-5.12253e-5
15.13	93.07	434.832	99.998	-5.81153e-5
16.21	98.23	434.823	99.996	-6.67112e-5
17.29	101.56	434.825	99.997	-6.95061e-5
18.38	102.90	434.823	99.996	-7.95530e-5
19.46	102.99	434.818	99.995	-9.10146e-5
20.54	102.49	434.819	99.995	-9.33084e-5
21.63	101.78	434.821	99.996	-9.09101e-5
22.71	101.06	434.818	99.995	-6.43560e-5
23.79	100.44	434.817	99.995	-3.56943e-5
24.88	100.00	434.821	99.996	-2.25520e-5
25.96	100.98	434.818	99.995	-1.57668e-5
27.04	104.46	434.819	99.995	-1.08951e-5
28.13	109.42	434.816	99.995	-1.15413e-5
29.21	114.71	434.817	99.995	-1.06404e-5
30.29	119.88	434.817	99.995	-1.03309e-5
31.38	124.98	434.816	99.995	-1.07873e-5
32.46	130.15	434.817	99.995	-1.31470e-5
33.54	135.44	434.815	99.995	-1.54397e-5
34.63	140.84	434.817	99.995	-1.75126e-5
35.71	146.30	434.806	99.992	-1.76156e-5
36.79	151.79	434.815	99.994	-1.87594e-5
37.88	157.28	434.815	99.994	-2.02638e-5
38.96	162.75	434.814	99.994	-2.30014e-5
40.04	168.21	434.813	99.994	-2.52463e-5
41.13	173.64	434.813	99.994	-2.78464e-5
42.21	179.07	434.812	99.994	-3.04897e-5
43.29	184.50	434.813	99.994	-3.46662e-5
44.38	189.92	434.813	99.994	-3.86697e-5
45.46	195.34	434.808	99.993	-4.31496e-5
46.54	200.75	434.810	99.993	-4.69221e-5
47.63	206.16	434.808	99.993	-5.20046e-5
48.71	211.58	434.810	99.993	-5.69044e-5
49.79	217.00	434.806	99.992	-6.22604e-5
50.88	222.42	434.805	99.992	-6.85177e-5
51.96	227.85	434.800	99.991	-7.46611e-5
53.04	233.28	434.801	99.991	-8.10911e-5
54.13	238.71	434.798	99.991	-9.04893e-5
55.21	244.13	434.795	99.990	-1.00981e-4
56.29	249.57	434.794	99.990	-1.11989e-4
57.38	254.99	434.792	99.989	-1.23371e-4
58.46	260.42	434.789	99.989	-1.36968e-4
59.54	265.84	434.786	99.988	-1.52697e-4
60.63	271.26	434.783	99.987	-1.70794e-4
61.71	276.69	434.777	99.986	-1.89987e-4
62.79	282.12	434.772	99.985	-2.11999e-4
63.88	287.54	434.768	99.984	-2.36415e-4
64.96	293.00	434.764	99.983	-2.64563e-4
66.04	297.81	434.758	99.981	-2.96395e-4
67.13	300.35	434.752	99.980	-3.33223e-4
68.21	301.49	434.747	99.979	-3.78554e-4
69.29	301.89	434.741	99.978	-4.30616e-4
70.38	301.71	434.738	99.977	-4.99585e-4
71.46	301.19	434.735	99.976	-5.94716e-4
72.54	300.61	434.730	99.975	-6.86036e-4
73.63	300.12	434.726	99.974	-2.57351e-4
74.71	299.80	434.725	99.974	1.96335e-3
75.79	299.67	434.724	99.973	2.58975e-3
76.88	299.67	434.725	99.974	2.39665e-3
77.96	299.76	434.720	99.973	2.30511e-3
79.04	299.88	434.721	99.973	2.24075e-3
80.13	299.98	434.719	99.972	1.41921e-3
81.21	300.05	434.719	99.972	-2.98420e-3
82.29	300.07	434.717	99.972	-7.31784e-3
83.38	300.07	434.710	99.970	-7.28392e-3
84.46	300.05	434.709	99.970	-7.17618e-3
85.54	300.03	434.712	99.971	-6.93273e-3
86.63	300.01	434.711	99.970	-4.45226e-3
87.71	299.99	434.711	99.970	0.0120343
88.79	299.99	434.708	99.970	0.0272606
89.88	299.99	434.707	99.970	0.0267488
90.96	299.99	434.706	99.969	0.0242672
92.04	300.00	434.707	99.970	0.0262224
93.13	300.00	434.706	99.970	0.0164272
94.21	300.00	434.703	99.969	-0.0488219
95.29	300.00	434.703	99.969	-0.128893
96.38	300.00	434.700	99.968	-0.132304
97.46	300.00	434.701	99.968	-0.122868
98.54	300.00	434.699	99.968	-0.113539
99.63	300.00	434.702	99.968	-0.0542839
100.71	300.00	434.695	99.967	0.0962692
101.79	300.00	434.697	99.967	0.254930
102.88	300.00	434.691	99.966	0.304808
103.96	300.00	434.696	99.967	0.293871
105.04	300.00	434.693	99.967	0.308040
106.13	300.00	434.693	99.967	0.326769
107.21	300.00	434.691	99.966	0.285382
108.29	300.00	434.690	99.966	0.181801
109.38	300.00	434.689	99.966	0.0285025
110.46	300.00	434.689	99.966	2.98653e-3
111.54	300.00	434.688	99.965	-0.0467126
112.63	300.00	434.687	99.965	-0.0338868
113.71	300.00	434.686	99.965	0.0646791
114.79	300.00	434.686	99.965	0.0935691
115.88	300.00	434.685	99.965	0.110033
116.96	300.00	434.683	99.964	0.130417
118.04	300.00	434.683	99.964	0.0234141
119.13	300.00	434.683	99.964	-0.215443
120.21	300.00	434.682	99.964	-0.312416
121.29	300.00	434.680	99.963	-0.314204
122.38	300.00	434.680	99.963	-0.247041
123.46	300.00	434.679	99.963	-6.48859e-3
124.54	300.00	434.679	99.963	0.218522
125.63	300.00	434.677	99.963	0.323963
126.71	300.00	434.677	99.963	0.366783
127.79	300.00	434.675	99.962	0.427527
128.88	300.00	434.674	99.962	0.380508
129.96	300.00	434.672	99.962	0.396188
131.04	300.00	434.673	99.962	0.446373
132.13	300.00	434.671	99.961	0.506071
133.21	300.00	434.672	99.962	0.427254
134.29	300.00	434.670	99.961	0.377125
135.38	300.00	434.669	99.961	0.210828
136.46	300.00	434.667	99.961	0.0471606
137.54	300.00	434.666	99.960	-0.0598787
138.63	300.00	434.667	99.960	-0.242419
139.71	300.00	434.666	99.960	-0.288858
140.79	300.00	434.664	99.960	-0.402751
141.88	300.00	434.662	99.959	-0.508889
142.96	300.00	434.664	99.960	-0.485328
144.04	300.00	434.660	99.959	-0.439347
145.13	300.00	434.661	99.959	-0.393328
146.21	300.00	434.658	99.958	-0.220027
147.29	300.00	434.659	99.959	0.0640224
148.38	300.00	434.656	99.958	0.229785
149.46	300.00	434.655	99.958	0.336242
150.54	300.00	434.655	99.958	0.359355
151.63	300.00	434.654	99.957	0.386515
152.71	300.00	434.658	99.958	0.339993
153.79	300.00	434.653	99.957	0.236126
154.88	300.00	434.651	99.957	0.0797982
155.96	300.00	434.655	99.958	-8.28427e-3
157.04	300.00	434.654	99.958	-0.0866676
158.13	300.00	434.650	99.957	-0.178015
159.21	300.00	434.650	99.956	-0.284709
160.29	300.00	434.648	99.956	-0.346649
161.38	300.00	434.647	99.956	-0.411363
162.46	300.00	434.646	99.956	-0.433380
163.54	300.00	434.645	99.955	-0.413829
164.63	300.00	434.643	99.955	-0.396865
165.71	300.00	434.642	99.955	-0.379022
166.79	300.00	434.639	99.954	-0.355146
167.88	300.00	434.641	99.954	-0.307363
168.96	300.00	434.640	99.954	-0.0234269
170.04	300.00	434.640	99.954	0.189871
171.13	300.00	434.642	99.955	0.232089
172.21	300.00	434.641	99.954	0.197818
173.29	300.00	434.638	99.954	0.270326
174.38	300.00	434.636	99.953	0.310950
175.46	300.00	434.637	99.954	0.318756
176.54	300.00	434.633	99.953	0.335027
177.63	300.00	434.633	99.953	0.333619
178.71	300.00	434.634	99.953	0.318518
179.79	300.00	434.631	99.952	0.318498
180.88	300.00	434.632	99.952	0.369365
181.96	300.00	434.634	99.953	0.362563
183.04	300.00	434.631	99.952	0.337122
184.13	300.00	434.630	99.952	0.269226
185.21	300.00	434.631	99.952	0.101459
186.29	300.00	434.629	99.952	0.0603603
187.38	300.00	434.630	99.952	-0.116150
188.46	300.00	434.627	99.951	-0.268267
189.54	300.00	434.627	99.951	-0.326626
190.63	300.00	434.628	99.952	-0.329221
191.71	300.00	434.627	99.951	-0.334703
192.79	300.00	434.625	99.951	-0.344396
193.88	300.00	434.622	99.950	-0.359055
194.96	300.00	434.622	99.950	-0.225660
196.04	300.00	434.621	99.950	-0.0427912
197.13	300.00	434.622	99.950	0.0532683
198.21	300.00	434.622	99.950	0.167296
199.29	300.00	434.624	99.951	0.211293
200.38	300.00	434.617	99.949	0.231774
201.46	300.00	434.621	99.950	0.256152
202.54	300.00	434.619	99.949	0.174255
203.63	300.00	434.619	99.950	0.106707
204.71	300.00	434.618	99.949	0.0628210
205.79	300.00	434.618	99.949	0.0332329
206.88	300.00	434.615	99.949	-0.0216306
207.96	300.00	434.614	99.948	-0.121112
209.04	300.00	434.614	99.948	-0.169498
210.13	300.00	434.613	99.948	-0.188827
211.21	300.00	434.613	99.948	-0.207508
212.29	300.00	434.610	99.947	-0.201036
213.38	300.00	434.610	99.947	-0.218098
214.46	300.00	434.611	99.948	-0.235844
215.54	300.00	434.611	99.947	-0.157547
216.63	300.00	434.609	99.947	-0.125608
217.71	300.00	434.607	99.947	-0.0986695
218.79	300.00	434.606	99.946	-0.111149
219.88	300.00	434.607	99.947	-0.192243
220.96	300.00	434.606	99.946	-0.224881
222.04	300.00	434.604	99.946	-0.170850
223.13	300.00	434.604	99.946	-0.156741
224.21	300.00	434.603	99.946	-0.0696967
225.29	300.00	434.599	99.945	-0.0303405
226.38	300.00	434.602	99.946	0.115608
227.46	300.00	434.602	99.946	0.212009
228.54	300.00	434.602	99.945	0.232289
229.63	300.00	434.601	99.945	0.222450
230.71	300.00	434.600	99.945	0.198622
231.79	300.00	434.600	99.945	0.199908
232.88	300.00	434.599	99.945	0.220437
233.96	300.00	434.599	99.945	0.196485
235.04	300.00	434.598	99.945	0.175935
236.13	300.00	434.596	99.944	0.135929
237.21	300.00	434.596	99.944	0.0701665
238.29	300.00	434.599	99.945	8.16454e-3
239.38	300.00	434.599	99.945	-0.0474555
240.46	300.00	434.595	99.944	-0.112886
241.54	300.00	434.594	99.944	-0.150773
242.63	300.00	434.594	99.944	-0.182939
243.71	300.00	434.595	99.944	-0.194366
244.79	300.00	434.595	99.944	-0.188987
245.88	300.00	434.592	99.943	-0.129512
246.96	300.00	434.593	99.943	-0.0599188
248.04	300.00	434.589	99.943	0.0359730
249.13	300.00	434.589	99.943	0.114132
250.21	300.00	434.593	99.943	0.183024
251.29	300.00	434.589	99.943	0.202752
252.38	300.00	434.587	99.942	0.193892
253.46	300.00	434.591	99.943	0.163209
254.54	300.00	434.589	99.942	0.135329
255.63	300.00	434.586	99.942	0.125717
256.71	300.00	434.588	99.942	0.0823933
257.79	300.00	434.587	99.942	1.76216e-3
258.88	300.00	434.586	99.942	-0.0113225
259.96	300.00	434.585	99.942	-0.0574309
261.04	300.00	434.586	99.942	-0.0964312
262.13	300.00	434.586	99.942	-0.0716328
263.21	300.00	434.584	99.941	-0.0543588
264.29	300.00	434.582	99.941	-0.0479436
265.38	300.00	434.582	99.941	0.0667706
266.46	300.00	434.586	99.942	0.190565
267.54	300.00	434.583	99.941	0.273164
268.63	300.00	434.582	99.941	0.274803
269.71	300.00	434.581	99.941	0.249806
270.79	300.00	434.579	99.940	0.267452
271.88	300.00	434.581	99.941	0.237624
272.96	300.00	434.582	99.941	0.163412
274.04	300.00	434.582	99.941	0.0658633
275.13	300.00	434.575	99.939	-0.0762765
276.21	300.00	434.579	99.940	-0.128238
277.29	300.00	434.579	99.940	-0.147518
278.38	300.00	434.577	99.940	-0.120469
279.46	300.00	434.575	99.939	-0.123039
280.54	300.00	434.573	99.939	-0.119050
281.63	300.00	434.574	99.939	-0.132518
282.71	300.00	434.574	99.939	0.0210751
283.79	300.00	434.571	99.938	0.0996707
284.88	300.00	434.573	99.939	0.0892961
285.96	300.00	434.571	99.938	0.106075
287.04	300.00	434.570	99.938	0.204815
288.13	300.00	434.572	99.939	0.315509
289.21	300.00	434.574	99.939	0.320645
290.29	300.00	434.568	99.938	0.337052
291.38	300.00	434.568	99.938	0.260590
292.46	300.00	434.566	99.937	0.183671
293.54	300.00	434.567	99.937	0.121891
294.63	300.00	434.566	99.937	0.0271866
295.71	300.00	434.568	99.938	-0.0989986
296.79	300.00	434.564	99.937	-0.0799655
297.88	300.00	434.566	99.937	-0.0460419
298.96	300.00	434.564	99.937	0.0368560
300.04	300.00	434.566	99.937	0.0794560
301.13	300.00	434.564	99.937	0.122641
302.21	300.00	434.562	99.936	0.0557190
303.29	300.00	434.562	99.936	0.0283201
304.38	300.00	434.561	99.936	0.0282113
305.46	300.00	434.560	99.936	0.0488612
306.54	300.00	434.561	99.936	0.0669980
307.63	300.00	434.559	99.936	0.0614637
308.71	300.00	434.559	99.936	4.32084e-3
309.79	300.00	434.560	99.936	-0.0473896
310.88	300.00	434.557	99.935	-0.0610008
311.96	300.00	434.557	99.935	-0.0406846
313.04	300.00	434.555	99.935	-0.0406790
314.13	300.00	434.555	99.935	0.0148470
315.21	300.00	434.555	99.935	0.0950604
316.29	300.00	434.554	99.934	0.156466
317.38	300.00	434.556	99.935	0.235579
318.46	300.00	434.553	99.934	0.239203
319.54	300.00	434.552	99.934	0.199205
320.63	300.00	434.556	99.935	0.0987312
321.71	300.00	434.553	99.934	8.78421e-4
322.79	300.00	434.551	99.934	-0.0941320
323.88	300.00	434.551	99.934	-0.171637
324.96	300.00	434.551	99.934	-0.125656
326.04	300.00	434.551	99.934	-0.155630
327.13	300.00	434.550	99.933	-0.158484
328.21	300.00	434.547	99.933	-0.101179
329.29	300.00	434.548	99.933	-0.0478923
330.38	300.00	434.546	99.933	-0.0637515
331.46	300.00	434.547	99.933	-0.0647754
332.54	300.00	434.546	99.933	0.0110620
333.63	300.00	434.544	99.932	0.0962481
334.71	300.00	434.545	99.932	0.0699666
335.79	300.00	434.542	99.932	0.0989392
336.88	300.00	434.541	99.932	0.165753
337.96	300.00	434.543	99.932	0.169444
339.04	300.00	434.541	99.931	0.173852
340.13	300.00	434.543	99.932	0.137130
341.21	300.00	434.542	99.932	0.153983
342.29	300.00	434.542	99.932	0.159293
343.38	300.00	434.540	99.931	0.126299
344.46	300.00	434.540	99.931	0.155748
345.54	300.00	434.539	99.931	0.115297
346.63	300.00	434.541	99.931	0.0498319
347.71	300.00	434.537	99.931	0.0232232
348.79	300.00	434.537	99.930	0.0430522
349.88	300.00	434.537	99.931	0.0157041
350.96	300.00	434.536	99.930	-0.0743750
352.04	300.00	434.539	99.931	-0.0942280
353.13	300.00	434.535	99.930	-0.0867997
354.21	300.00	434.536	99.930	0.0721888
355.29	300.00	434.535	99.930	0.173852
356.38	300.00	434.534	99.930	0.185735
357.46	300.00	434.536	99.930	0.237348
358.54	300.00	434.529	99.929	0.233571
359.63	300.00	434.537	99.931	0.220126
360.71	300.00	434.536	99.930	0.128079
361.79	300.00	434.531	99.929	0.0975243
362.88	300.00	434.531	99.929	0.0717579
363.96	300.00	434.531	99.929	0.0866784
365.04	300.00	434.528	99.929	0.0960222
366.13	300.00	434.527	99.928	0.128671
367.21	300.00	434.529	99.929	0.0798830
368.29	300.00	434.530	99.929	1.91414e-3
369.38	300.00	434.528	99.928	-0.112001
370.46	300.00	434.530	99.929	-0.138945
371.54	300.00	434.525	99.928	-0.130241
372.63	300.00	434.526	99.928	-0.107463
373.71	300.00	434.525	99.928	-0.130524
374.79	300.00	434.526	99.928	-0.0491284
375.88	300.00	434.522	99.927	6.76545e-3
376.96	300.00	434.525	99.928	0.0491610
378.04	300.00	434.524	99.927	0.0297491
379.13	300.00	434.523	99.927	0.0320533
380.21	300.00	434.522	99.927	0.0154489
381.29	300.00	434.523	99.927	0.0221781
382.38	300.00	434.522	99.927	0.0767908
383.46	300.00	434.521	99.927	0.149506
384.54	300.00	434.521	99.927	0.164780
385.63	300.00	434.518	99.926	0.132929
386.71	300.00	434.520	99.927	0.114562
387.79	300.00	434.519	99.926	0.102829
388.88	300.00	434.517	99.926	0.0656045
389.96	300.00	434.518	99.926	-0.0341854
391.04	300.00	434.520	99.927	-0.0735946
392.13	300.00	434.519	99.926	-0.0804737
393.21	300.00	434.519	99.926	-0.0760432
394.29	300.00	434.518	99.926	-0.0767603
395.38	300.00	434.517	99.926	-0.0646014
396.46	300.00	434.516	99.926	-0.100662
397.54	300.00	434.515	99.926	-0.196471
398.63	300.00	434.513	99.925	-0.222938
399.71	300.00	434.514	99.925	-0.157818
400.79	300.00	434.513	99.925	-0.0289611
401.88	300.00	434.513	99.925	-0.0201543
402.96	300.00	434.513	99.925	-7.86987e-3
404.04	300.00	434.513	99.925	0.0241064
405.13	300.00	434.512	99.925	0.0165977
406.21	300.00	434.512	99.925	0.0104754
407.29	300.00	434.511	99.925	0.0989352
408.38	300.00	434.510	99.924	0.0699144
409.46	300.00	434.511	99.925	0.0977208
410.54	300.00	434.510	99.924	0.133194
411.63	300.00	434.509	99.924	0.115625
412.71	300.00	434.508	99.924	0.109913
413.79	300.00	434.510	99.924	0.127446
414.88	300.00	434.506	99.924	0.0441849
415.96	300.00	434.506	99.923	0.0175356
417.04	300.00	434.506	99.923	0.101311
418.13	300.00	434.507	99.924	0.114746
419.21	300.00	434.506	99.923	0.0998011
420.29	300.00	434.502	99.922	0.112571
421.38	300.00	434.505	99.923	0.135115
422.46	300.00	434.504	99.923	0.0712718
423.54	300.00	434.505	99.923	0.0439341
424.63	300.00	434.503	99.923	-0.0199067
425.71	300.00	434.504	99.923	-0.0513976
426.79	300.00	434.503	99.923	-0.0797089
427.88	300.00	434.502	99.923	-0.0827165
428.96	300.00	434.502	99.923	-0.0889764
430.04	300.00	434.502	99.922	-0.111207
431.13	300.00	434.501	99.922	-0.113985
432.21	300.00	434.500	99.922	-0.133590
433.29	300.00	434.500	99.922	-0.142537
434.38	300.00	434.499	99.922	-0.121737
435.46	300.00	434.499	99.922	-0.0967558
436.54	300.00	434.498	99.922	-0.0753094
437.63	300.00	434.495	99.921	-0.0280120
438.71	300.00	434.501	99.922	0.130018
439.79	300.00	434.496	99.921	0.146349
440.88	300.00	434.494	99.921	0.125029
441.96	300.00	434.494	99.921	0.0983696
443.04	300.00	434.494	99.921	0.0844754
444.13	300.00	434.494	99.921	0.0628514
445.21	300.00	434.494	99.921	0.0879764
446.29	300.00	434.495	99.921	0.0801635
447.38	300.00	434.495	99.921	0.0257826
448.46	300.00	434.494	99.921	0.0284864
449.54	300.00	434.492	99.920	9.87605e-3
450.63	300.00	434.493	99.920	0.0249299
451.71	300.00	434.493	99.920	0.0266570
452.79	300.00	434.492	99.920	0.0596366
453.88	300.00	434.492	99.920	-8.65234e-3
454.96	300.00	434.492	99.920	-0.0286486
456.04	300.00	434.491	99.920	0.0548080
457.13	300.00	434.491	99.920	1.57180e-3
458.21	300.00	434.491	99.920	-0.0981627
459.29	300.00	434.491	99.920	-0.143678
460.38	300.00	434.490	99.920	-0.0636318
461.46	300.00	434.489	99.920	0.0632464
462.54	300.00	434.487	99.919	0.103227
463.63	300.00	434.487	99.919	0.0398311
464.71	300.00	434.487	99.919	0.0759888
465.79	300.00	434.490	99.920	0.184273
466.88	300.00	434.485	99.919	0.154130
467.96	300.00	434.486	99.919	0.171042
469.04	300.00	434.485	99.919	0.137482
470.13	300.00	434.486	99.919	0.143871
471.21	300.00	434.485	99.919	0.165492
472.29	300.00	434.485	99.919	0.159153
473.38	300.00	434.485	99.919	0.148215
474.46	300.00	434.483	99.918	0.137469
475.54	300.00	434.483	99.918	0.0210866
476.63	300.00	434.483	99.918	1.35459e-3
477.71	300.00	434.482	99.918	-0.0274231
478.79	300.00	434.482	99.918	-0.0227186
479.88	300.00	434.482	99.918	-0.0127919
480.96	300.00	434.482	99.918	-0.0376606
482.04	300.00	434.480	99.917	-4.68942e-4
483.13	300.00	434.478	99.917	0.0784691
484.21	300.00	434.480	99.917	0.0801336
485.29	300.00	434.480	99.917	2.18084e-3
486.38	300.00	434.483	99.918	-0.0701554
487.46	300.00	434.482	99.918	-0.0824122
488.54	300.00	434.478	99.917	-0.0549160
489.63	300.00	434.478	99.917	-0.0522718
490.71	300.00	434.476	99.917	1.58445e-4
491.79	300.00	434.477	99.917	-0.0269646
492.88	300.00	434.474	99.916	-0.0734082
493.96	300.00	434.477	99.917	-0.0857466
495.04	300.00	434.476	99.916	-0.117853
496.13	300.00	434.479	99.917	-0.0781359
497.21	300.00	434.476	99.916	-0.0593279
498.29	300.00	434.475	99.916	-0.0341798
499.38	300.00	434.475	99.916	0.0708413
500.46	300.00	434.474	99.916	0.176652
501.54	300.00	434.474	99.916	0.225320
502.63	300.00	434.474	99.916	0.233323
503.71	300.00	434.474	99.916	0.227699
504.79	300.00	434.473	99.916	0.191321
505.88	300.00	434.473	99.916	0.134702
506.96	300.00	434.472	99.916	0.0728505
508.04	300.00	434.473	99.916	5.40282e-3
509.13	300.00	434.471	99.915	-0.0773175
510.21	300.00	434.470	99.915	-0.0807230
511.29	300.00	434.473	99.916	-0.0588211
512.38	300.00	434.472	99.916	-8.92359e-3
513.46	300.00	434.468	99.915	0.0265712
514.54	300.00	434.471	99.915	0.0592755
515.63	300.00	434.469	99.915	0.0646352
516.71	300.00	434.466	99.914	0.114339
517.79	300.00	434.469	99.915	0.143975
518.88	300.00	434.468	99.915	0.116572
519.96	300.00	434.467	99.914	0.0532033
521.04	300.00	434.465	99.914	0.0186899
522.13	300.00	434.466	99.914	0.0132133
523.21	300.00	434.466	99.914	1.60688e-3
524.29	300.00	434.466	99.914	-0.0350108
525.38	300.00	434.465	99.914	-0.0617168
526.46	300.00	434.465	99.914	-0.0686881
527.54	300.00	434.464	99.914	-0.0604330
528.63	300.00	434.464	99.914	-0.0105535
529.71	300.00	434.464	99.914	-9.54104e-3
530.79	300.00	434.464	99.914	-0.0135151
531.88	300.00	434.463	99.914	0.0645946
532.96	300.00	434.463	99.913	0.135741
534.04	300.00	434.463	99.913	0.149012
535.13	300.00	434.461	99.913	0.151541
536.21	300.00	434.465	99.914	0.105858
537.29	300.00	434.463	99.913	0.0548690
538.38	300.00	434.460	99.913	-0.0152014
539.46	300.00	434.459	99.913	-0.0489462
540.54	300.00	434.460	99.913	-0.0291970
541.63	300.00	434.459	99.913	-0.0127145
542.71	300.00	434.459	99.913	-0.0327184
543.79	300.00	434.458	99.912	0.0455150
544.88	300.00	434.461	99.913	0.0517699
545.96	300.00	434.464	99.914	0.113410
547.04	300.00	434.457	99.912	0.0955214
548.13	300.00	434.458	99.912	0.122768
549.21	300.00	434.458	99.912	0.167041
550.29	300.00	434.456	99.912	0.110666
551.38	300.00	434.457	99.912	0.0755116
552.46	300.00	434.456	99.912	0.0779811
553.54	300.00	434.457	99.912	0.0173445
554.63	300.00	434.457	99.912	1.63410e-4
555.71	300.00	434.458	99.912	0.0123348
556.79	300.00	434.455	99.912	-0.0440267
557.88	300.00	434.456	99.912	-0.0383401
558.96	300.00	434.454	99.911	-0.0636221
560.04	300.00	434.455	99.912	-0.0691510
561.13	300.00	434.454	99.911	-0.0413334
562.21	300.00	434.452	99.911	-0.0229939
563.29	300.00	434.450	99.910	-9.34872e-3
564.38	300.00	434.454	99.912	0.0277480
565.46	300.00	434.450	99.910	0.0663272
566.54	300.00	434.452	99.911	0.0538040
567.63	300.00	434.452	99.911	0.0333507
568.71	300.00	434.451	99.911	0.0883075
569.79	300.00	434.451	99.911	0.0912907
570.88	300.00	434.450	99.910	0.114036
571.96	300.00	434.450	99.911	0.0822800
573.04	300.00	434.450	99.910	0.0546343
574.13	300.00	434.449	99.910	0.0304843
575.21	300.00	434.449	99.910	-0.0277525
576.29	300.00	434.448	99.910	-8.90160e-3
577.38	300.00	434.448	99.910	-0.0296830
578.46	300.00	434.447	99.910	-0.0116891
579.54	300.00	434.450	99.911	0.0182166
580.63	300.00	434.448	99.910	0.0330190
581.71	300.00	434.446	99.910	0.0702738
582.79	300.00	434.446	99.910	0.0626130
583.88	300.00	434.447	99.910	0.0813702
584.96	300.00	434.447	99.910	0.102619
586.04	300.00	434.444	99.909	0.139254
587.13	300.00	434.445	99.909	0.146965
588.21	300.00	434.444	99.909	0.131279
589.29	300.00	434.446	99.910	0.0979145
590.38	300.00	434.448	99.910	0.0897388
591.46	300.00	434.444	99.909	0.0709046
592.54	300.00	434.444	99.909	0.0380700
593.63	300.00	434.443	99.909	7.02070e-3
594.71	300.00	434.444	99.909	-2.44953e-3
595.79	300.00	434.444	99.909	0.0183522
596.88	300.00	434.443	99.909	2.01418e-3
597.96	300.00	434.444	99.909	0.0346835
599.04	300.00	434.442	99.909	0.0663936
600.13	300.00	434.442	99.909	0.0678358
601.21	300.00	434.443	99.909	0.103360
602.29	300.00	434.441	99.908	0.139547
603.38	300.00	434.439	99.908	0.106057
604.46	300.00	434.441	99.908	0.0315474
605.54	300.00	434.441	99.908	-0.0659753
606.63	300.00	434.440	99.908	-0.0970219
607.71	300.00	434.441	99.908	-0.104778
608.79	300.00	434.440	99.908	-0.0665300
609.88	300.00	434.439	99.908	-0.0172660
610.96	300.00	434.438	99.908	0.0407337
612.04	300.00	434.437	99.907	0.115934
613.13	300.00	434.438	99.908	0.116629
614.21	300.00	434.438	99.908	0.0944498
615.29	300.00	434.437	99.908	0.0762145
616.38	300.00	434.436	99.907	0.0732496
617.46	300.00	434.437	99.908	0.0996990
618.54	300.00	434.433	99.907	0.137884
619.63	300.00	434.437	99.908	0.143030
620.71	300.00	434.435	99.907	0.149987
621.79	300.00	434.435	99.907	0.134632
622.88	300.00	434.434	99.907	0.0957753
623.96	300.00	434.434	99.907	0.0337948
625.04	300.00	434.433	99.907	0.0378100
626.13	300.00	434.432	99.906	0.0242627
627.21	300.00	434.432	99.906	0.0519877
628.29	300.00	434.434	99.907	0.146182
629.38	300.00	434.430	99.906	0.162709
630.46	300.00	434.432	99.906	0.0777178
631.54	300.00	434.432	99.906	0.0100490
632.63	300.00	434.428	99.906	-0.101602
633.71	300.00	434.433	99.907	-0.142755
634.79	300.00	434.432	99.906	-0.115884
635.88	300.00	434.429	99.906	-0.0647911
636.96	300.00	434.431	99.906	-7.04244e-3
638.04	300.00	434.430	99.906	0.0142816
639.13	300.00	434.427	99.905	0.0376250
640.21	300.00	434.429	99.906	0.0607004
641.29	300.00	434.427	99.905	0.0647954
642.38	300.00	434.424	99.905	0.0784352
643.46	300.00	434.429	99.906	0.121584
644.54	300.00	434.427	99.905	0.140621
645.63	300.00	434.426	99.905	0.144716
646.71	300.00	434.427	99.905	0.119483
647.79	300.00	434.426	99.905	0.102120
648.88	300.00	434.425	99.905	0.0602105
649.96	300.00	434.424	99.905	-0.0130114
651.04	300.00	434.424	99.904	-0.149468
652.13	300.00	434.423	99.904	-0.181090
653.21	300.00	434.424	99.905	-0.150902
654.29	300.00	434.423	99.904	-0.132897
655.38	300.00	434.423	99.904	-0.105806
656.46	300.00	434.423	99.904	-0.0890094
657.54	300.00	434.421	99.904	-0.0558209
658.63	300.00	434.421	99.904	-0.0397189
659.71	300.00	434.418	99.903	-0.0428436
660.79	300.00	434.420	99.904	-0.0875873
661.88	300.00	434.416	99.903	-0.116611
662.96	300.00	434.419	99.903	-0.131501
664.04	300.00	434.419	99.903	-0.129881
665.13	300.00	434.419	99.903	-0.132835
666.21	300.00	434.419	99.903	-0.123233
667.29	300.00	434.418	99.903	-0.0915280
668.38	300.00	434.417	99.903	-0.0589517
669.46	300.00	434.416	99.903	-0.0206379
670.54	300.00	434.417	99.903	0.0200760
671.63	300.00	434.416	99.903	0.0453790
672.71	300.00	434.416	99.903	0.0617501
673.79	300.00	434.414	99.902	0.0588127
674.88	300.00	434.415	99.903	0.0582073
675.96	300.00	434.416	99.903	0.0606668
677.04	300.00	434.413	99.902	0.0402834
678.13	300.00	434.415	99.902	0.0320668
679.21	300.00	434.414	99.902	0.0186167
680.29	300.00	434.414	99.902	0.0133611
681.38	300.00	434.410	99.901	3.22758e-3
682.46	300.00	434.410	99.901	-0.0145899
683.54	300.00	434.415	99.902	-0.0103256
684.63	300.00	434.411	99.902	-2.55082e-3
685.71	300.00	434.410	99.901	0.0309414
686.79	300.00	434.413	99.902	0.0467163
687.88	300.00	434.413	99.902	0.0738035
688.96	300.00	434.411	99.902	0.106072
690.04	300.00	434.411	99.902	0.0947037
691.13	300.00	434.411	99.901	0.0903079
692.21	300.00	434.409	99.901	0.0291727
693.29	300.00	434.411	99.901	-0.0260987
694.38	300.00	434.410	99.901	-0.108511
695.46	300.00	434.410	99.901	-0.161883
696.54	300.00	434.409	99.901	-0.179337
697.63	300.00	434.409	99.901	-0.189756
698.71	300.00	434.409	99.901	-0.184803
699.79	300.00	434.408	99.901	-0.194690
700.88	300.00	434.406	99.900	-0.194534
701.96	300.00	434.405	99.900	-0.196519
703.04	300.00	434.406	99.900	-0.194950
704.13	300.00	434.406	99.900	-0.197849
705.21	300.00	434.405	99.900	-0.184198
706.29	300.00	434.407	99.901	-0.154798
707.38	300.00	434.401	99.899	-0.0944312
708.46	300.00	434.404	99.900	-5.68164e-3
709.54	300.00	434.403	99.900	0.0340381
710.63	300.00	434.403	99.900	0.0613211
711.71	300.00	434.405	99.900	0.0972971
712.79	300.00	434.405	99.900	0.135470
713.88	300.00	434.404	99.900	0.136870
714.96	300.00	434.402	99.899	0.117962
716.04	300.00	434.403	99.900	0.103618
717.13	300.00	434.402	99.899	0.103989
718.21	300.00	434.402	99.900	0.111441
719.29	300.00	434.400	99.899	0.109199
720.38	300.00	434.404	99.900	0.0910820
721.46	300.00	434.402	99.899	0.0961865
722.54	300.00	434.401	99.899	0.0857036
723.63	300.00	434.402	99.899	0.0657655
724.71	300.00	434.402	99.900	0.0367995
725.79	300.00	434.397	99.898	-2.63593e-3
726.88	300.00	434.404	99.900	-0.0420969
727.96	300.00	434.401	99.899	-0.0535750
729.04	300.00	434.401	99.899	-0.0663402
730.13	300.00	434.402	99.899	-0.0473143
731.21	300.00	434.399	99.899	-0.0256489
732.29	300.00	434.400	99.899	0.0182786
733.38	300.00	434.403	99.900	0.0654473
734.46	300.00	434.401	99.899	0.0986640
735.54	300.00	434.398	99.899	0.0998375
736.63	300.00	434.398	99.899	0.105558
737.71	300.00	434.399	99.899	0.117684
738.79	300.00	434.398	99.899	0.119570
739.88	300.00	434.397	99.898	0.0769929
740.96	300.00	434.392	99.897	0.0232577
742.04	300.00	434.397	99.898	0.0134794
743.13	300.00	434.397	99.898	-0.0336537
744.21	300.00	434.397	99.898	-0.0593292
745.29	300.00	434.396	99.898	-0.0642983
746.38	300.00	434.397	99.898	-0.0408069
747.46	300.00	434.395	99.898	-0.0280316
748.54	300.00	434.395	99.898	-0.0100305
749.63	300.00	434.393	99.897	4.29931e-3
750.71	300.00	434.395	99.898	6.07580e-3
751.79	300.00	434.396	99.898	0.0241559
752.88	300.00	434.394	99.898	0.0449371
753.96	300.00	434.393	99.897	0.0626990
755.04	300.00	434.395	99.898	0.0733187
756.13	300.00	434.393	99.898	0.0551178
757.21	300.00	434.394	99.898	0.0817070
758.29	300.00	434.392	99.897	0.0841102
759.38	300.00	434.394	99.898	0.0925523
760.46	300.00	434.393	99.897	0.0879337
761.54	300.00	434.390	99.897	0.0903528
762.63	300.00	434.394	99.898	0.0924317
763.71	300.00	434.389	99.897	0.0627055
764.79	300.00	434.391	99.897	0.0270747
765.88	300.00	434.390	99.897	0.0270777
766.96	300.00	434.390	99.897	0.0225744
768.04	300.00	434.391	99.897	9.30264e-3
769.13	300.00	434.391	99.897	8.18825e-3
770.21	300.00	434.389	99.896	3.74389e-3
771.29	300.00	434.390	99.897	-0.0167762
772.38	300.01	434.390	99.897	-0.0226454
773.46	300.00	434.387	99.896	-5.23385e-3
774.54	300.00	434.389	99.897	0.0240567
775.63	300.00	434.390	99.897	0.0708477
776.71	300.00	434.386	99.896	0.0986128
777.79	300.00	434.387	99.896	0.129064
778.88	300.00	434.388	99.896	0.129929
779.96	300.00	434.388	99.896	0.124319
781.04	300.00	434.387	99.896	0.145375
782.13	300.00	434.388	99.896	0.133070
783.21	300.00	434.385	99.896	0.135434
784.29	300.00	434.387	99.896	0.120411
785.38	300.00	434.386	99.896	0.0970471
786.46	300.00	434.386	99.896	0.0869117
787.54	300.00	434.387	99.896	0.0461618
788.63	300.00	434.384	99.895	-1.15296e-3
789.71	300.00	434.386	99.896	-0.0453888
790.79	300.00	434.384	99.895	-0.0838865
791.88	300.00	434.385	99.896	-0.0912286
792.96	300.00	434.385	99.896	-0.103685
794.04	300.00	434.384	99.895	-0.0950814
795.13	300.00	434.384	99.895	-0.0437682
796.21	300.00	434.381	99.895	-0.0666411
797.29	300.00	434.384	99.895	-0.0576777
798.38	300.00	434.378	99.894	-8.23513e-3
799.46	300.00	434.383	99.895	0.0378338
800.54	300.00	434.382	99.895	0.160752
801.63	300.00	434.380	99.894	0.166290
802.71	300.00	434.383	99.895	0.176647
803.79	300.00	434.381	99.895	0.179120
804.88	300.00	434.379	99.894	0.170590
805.96	300.00	434.380	99.894	0.153662
807.04	300.00	434.381	99.895	0.159539
808.13	300.00	434.376	99.894	0.108900
809.21	300.00	434.380	99.894	0.0736749
810.29	300.00	434.377	99.894	0.0329135
811.38	300.00	434.376	99.894	0.0425030
812.46	300.00	434.378	99.894	0.0403063
813.54	300.00	434.376	99.894	-0.0126619
814.63	300.00	434.375	99.893	-0.0312301
815.71	300.00	434.378	99.894	-0.0580812
816.79	300.00	434.378	99.894	-0.0577258
817.88	300.00	434.377	99.894	-9.40340e-3
818.96	300.00	434.376	99.894	0.0673445
820.04	300.00	434.375	99.893	0.113387
821.13	300.00	434.377	99.894	0.137095
822.21	300.00	434.375	99.893	0.150207
823.29	300.00	434.374	99.893	0.153269
824.38	300.00	434.376	99.894	0.147228
825.46	300.00	434.371	99.892	0.131875
826.54	300.00	434.372	99.893	0.117810
827.63	300.00	434.374	99.893	0.0803430
828.71	300.00	434.373	99.893	0.0377578
829.79	300.00	434.371	99.892	-1.55609e-3
830.88	300.00	434.372	99.893	-0.0322639
831.96	300.00	434.372	99.893	-0.0635139
833.04	300.00	434.373	99.893	-0.124595
834.13	300.00	434.369	99.892	-0.124347
835.21	300.00	434.373	99.893	-0.123545
836.29	300.00	434.371	99.892	-0.132532
837.38	300.00	434.369	99.892	-0.142524
838.46	300.00	434.370	99.892	-0.164612
839.54	300.00	434.371	99.892	-0.181580
840.63	300.00	434.369	99.892	-0.171169
841.71	300.00	434.368	99.892	-0.184244
842.79	300.00	434.368	99.892	-0.139681
843.88	300.00	434.367	99.891	-0.0911327
844.96	300.00	434.367	99.891	-0.0856727
846.04	300.00	434.367	99.891	-0.0433365
847.13	300.00	434.365	99.891	-0.0148307
848.21	300.00	434.364	99.891	0.0162550
849.29	300.00	434.366	99.891	0.0377623
850.38	300.00	434.365	99.891	0.0632271
851.46	300.00	434.364	99.891	0.121138
852.54	300.00	434.365	99.891	0.135156
853.63	300.00	434.364	99.891	0.142655
854.71	300.00	434.362	99.890	0.135238
855.79	300.00	434.363	99.891	0.149759
856.88	300.00	434.364	99.891	0.147442
857.96	300.00	434.361	99.890	0.166298
859.04	300.00	434.364	99.891	0.166868
860.13	300.00	434.362	99.890	0.149329
861.21	300.00	434.364	99.891	0.124294
862.29	300.00	434.361	99.890	0.0875126
863.38	300.00	434.359	99.890	0.0957967
864.46	300.00	434.361	99.890	0.0470901
865.54	300.00	434.359	99.890	-0.0164190
866.63	300.00	434.360	99.890	-0.0796738
867.71	300.00	434.360	99.890	-0.165196
868.79	300.00	434.361	99.890	-0.175333
869.88	300.00	434.359	99.890	-0.147587
870.96	300.00	434.358	99.889	-0.0978380
872.04	300.00	434.359	99.890	-0.0991816
873.13	300.00	434.350	99.888	-0.100317
874.21	300.00	434.362	99.890	-0.0885707
875.29	300.00	434.356	99.889	-0.0863941
876.38	300.00	434.354	99.889	-0.0751282
877.46	300.00	434.355	99.889	-0.0457916
878.54	300.00	434.355	99.889	-0.0566220
879.63	300.00	434.354	99.888	-0.0467549
880.71	300.00	434.353	99.888	-0.0332333
881.79	300.00	434.353	99.888	-0.0242183
882.88	300.00	434.354	99.888	-0.0328226
883.96	300.00	434.353	99.888	2.20869e-3
885.04	300.00	434.350	99.888	1.99282e-3
886.13	300.00	434.352	99.888	0.0137119
887.21	300.00	434.356	99.889	0.106329
888.29	300.00	434.351	99.888	0.177518
889.38	300.00	434.349	99.887	0.110039
890.46	300.00	434.350	99.887	-0.0168274
891.54	300.00	434.349	99.887	-0.0535498
892.63	300.00	434.350	99.887	-0.0244062
893.71	300.00	434.350	99.887	0.0525863
894.79	300.00	434.346	99.887	0.0760262
895.88	300.00	434.347	99.887	0.0748224
896.96	300.00	434.348	99.887	0.0950771
898.04	300.00	434.346	99.887	0.118417
899.13	300.00	434.349	99.887	0.120849
900.21	300.00	434.347	99.887	0.117136
901.29	300.00	434.349	99.887	0.101014
902.38	300.00	434.346	99.887	0.0681219
903.46	300.00	434.347	99.887	0.0606633
904.54	300.00	434.348	99.887	0.0493797
905.63	300.00	434.345	99.886	0.0128060
906.71	300.00	434.346	99.887	-0.0423908
907.79	300.00	434.346	99.887	-0.0889375
908.88	300.00	434.344	99.886	-0.115318
909.96	300.00	434.341	99.885	-0.140630
911.04	300.00	434.344	99.886	-0.154842
912.13	300.00	434.344	99.886	-0.125286
913.21	300.00	434.344	99.886	-0.0605246
914.29	300.00	434.343	99.886	0.0647451
915.38	300.00	434.343	99.886	0.137671
916.46	300.00	434.342	99.886	0.162571
917.54	300.00	434.343	99.886	0.146625
918.63	300.00	434.341	99.885	0.0981437
919.71	300.00	434.340	99.885	0.0972177
920.79	300.00	434.339	99.885	0.0564146
921.88	300.00	434.340	99.885	0.0412025
922.96	300.00	434.339	99.885	0.0145875
924.04	300.00	434.340	99.885	-5.04645e-3
925.13	300.00	434.338	99.885	-0.0339829
926.21	300.00	434.338	99.885	-0.0522475
927.29	300.00	434.339	99.885	-0.0558548
928.38	300.00	434.340	99.885	-0.0504789
929.46	300.00	434.342	99.886	-0.0357468
930.54	300.00	434.337	99.885	-1.17584e-3
931.63	300.00	434.336	99.884	0.0461671
932.71	300.00	434.337	99.885	0.144782
933.79	300.00	434.338	99.885	0.155916
934.88	300.00	434.338	99.885	0.144349
935.96	300.00	434.337	99.884	0.160171
937.04	300.00	434.334	99.884	0.176017
938.13	300.00	434.335	99.884	0.168418
939.21	300.00	434.334	99.884	0.157367
940.29	300.00	434.334	99.884	0.165702
941.38	300.00	434.335	99.884	0.165897
942.46	300.00	434.337	99.885	0.169821
943.54	300.00	434.333	99.884	0.137461
944.63	300.00	434.333	99.884	0.151546
945.71	300.00	434.337	99.885	0.172927
946.79	300.00	434.335	99.884	0.182191
947.88	300.00	434.331	99.883	0.216382
948.96	300.00	434.330	99.883	0.195029
950.04	300.00	434.331	99.883	0.179170
951.13	300.00	434.335	99.884	0.188034
952.21	300.00	434.333	99.884	0.189834
953.29	300.00	434.331	99.883	0.197906
954.38	300.00	434.330	99.883	0.169706
955.46	300.00	434.335	99.884	0.135031
956.54	300.00	434.332	99.883	0.0949362
957.63	300.00	434.328	99.882	0.0221415
958.71	300.00	434.327	99.882	-0.0347539
959.79	300.00	434.327	99.882	-0.0886339
960.88	300.00	434.328	99.883	-0.134835
961.96	300.00	434.328	99.882	-0.149931
963.04	300.00	434.328	99.883	-0.182558
964.13	300.00	434.328	99.882	-0.182118
965.21	300.00	434.328	99.882	-0.180170
966.29	300.00	434.327	99.882	-0.212820
967.38	300.00	434.326	99.882	-0.223952
968.46	300.00	434.324	99.881	-0.219921
969.54	300.00	434.325	99.882	-0.199581
970.63	300.00	434.323	99.881	-0.153691
971.71	300.00	434.323	99.881	-0.135249
972.79	300.00	434.323	99.881	-0.0648746
973.88	300.00	434.323	99.881	-8.87755e-3
974.96	300.00	434.321	99.881	0.165656
976.04	300.00	434.322	99.881	0.136396
977.13	300.00	434.319	99.880	0.170734
978.21	300.00	434.324	99.882	0.157112
979.29	300.00	434.319	99.880	0.128255
980.38	300.00	434.319	99.880	0.0753627
981.46	300.00	434.321	99.881	0.125195
982.54	300.00	434.315	99.880	0.101987
983.63	300.00	434.320	99.881	0.102155
984.71	300.00	434.316	99.880	0.109103
985.79	300.00	434.321	99.881	0.101086
986.88	300.00	434.320	99.881	0.134292
987.96	300.00	434.318	99.880	0.122994
989.04	300.00	434.318	99.880	0.119376
990.13	300.00	434.318	99.880	0.121527
991.21	300.00	434.318	99.880	0.114862
992.29	300.00	434.319	99.880	0.121728
993.38	300.00	434.317	99.880	0.136308
994.46	300.00	434.317	99.880	0.131734
995.54	300.00	434.316	99.880	0.122369
996.63	300.00	434.315	99.880	0.106717
997.71	300.00	434.316	99.880	0.0473765
998.79	300.00	434.318	99.880	6.73973e-5
999.88	300.00	434.316	99.880	-0.0633285
1000.96	300.00	434.314	99.879	-0.106514
1002.04	300.00	434.314	99.879	-0.137482
1003.13	300.00	434.314	99.879	-0.155696
1004.21	300.00	434.314	99.879	-0.166369
1005.29	300.00	434.313	99.879	-0.163879
1006.38	300.00	434.312	99.879	-0.166621
1007.46	300.00	434.314	99.879	-0.165919
1008.54	300.00	434.312	99.879	-0.138170
1009.63	300.00	434.312	99.879	-0.136075
1010.71	300.00	434.310	99.878	-0.0801836
1011.79	300.00	434.311	99.879	-9.14587e-3
1012.88	300.00	434.309	99.878	0.168862
1013.96	300.00	434.309	99.878	0.215693
1015.04	300.00	434.309	99.878	0.193015
1016.13	300.00	434.308	99.878	0.113906
1017.21	300.00	434.309	99.878	-4.27112e-3
1018.29	300.00	434.308	99.878	-0.0327243
1019.38	300.00	434.308	99.878	-0.0455575
1020.46	300.00	434.305	99.877	-0.0264103
1021.54	300.00	434.307	99.878	-8.44675e-3
1022.63	300.00	434.308	99.878	-6.82839e-3
1023.71	300.00	434.307	99.878	-0.0202179
1024.79	300.00	434.304	99.877	-8.39090e-3
1025.88	300.00	434.305	99.877	-0.0105099
1026.96	300.00	434.303	99.877	-0.0551969
1028.04	300.00	434.306	99.877	-0.0578798
1029.13	300.00	434.304	99.877	-0.0144416
1030.21	300.00	434.305	99.877	0.0800039
1031.29	300.00	434.304	99.877	0.170788
1032.38	300.00	434.302	99.876	0.192835
1033.46	300.00	434.304	99.877	0.187531
1034.54	300.00	434.303	99.877	0.125911
1035.63	300.00	434.302	99.877	0.118566
1036.71	300.00	434.303	99.877	0.119340
1037.79	300.00	434.302	99.876	0.113672
1038.88	300.00	434.301	99.876	0.109282
1039.96	300.00	434.301	99.876	0.0942482
1041.04	300.00	434.299	99.876	0.0945436
1042.13	300.00	434.302	99.876	0.0903337
1043.21	300.00	434.303	99.877	0.102591
1044.29	300.00	434.300	99.876	0.102876
1045.38	300.00	434.301	99.876	0.0774915
1046.46	300.00	434.300	99.876	0.0360252
1047.54	300.00	434.301	99.876	-5.96973e-4
1048.63	300.00	434.299	99.876	-0.0179899
1049.71	300.00	434.301	99.876	-0.0368894
1050.79	300.00	434.299	99.876	-0.0134262
1051.88	300.00	434.298	99.876	-0.0353240
1052.96	300.00	434.301	99.876	-0.0700158
1054.04	300.00	434.296	99.875	-0.116282
1055.13	300.00	434.295	99.875	-0.162183
1056.21	300.00	434.301	99.876	-0.200529
1057.29	300.00	434.295	99.875	-0.209599
1058.38	300.00	434.296	99.875	-0.199241
1059.46	300.00	434.294	99.875	-0.200896
1060.54	300.00	434.293	99.875	-0.196627
1061.63	300.00	434.294	99.875	-0.118118
1062.71	300.00	434.293	99.874	-0.116077
1063.79	300.00	434.292	99.874	-0.103818
1064.88	300.00	434.292	99.874	-0.0903183
1065.96	300.00	434.289	99.874	-0.0484302
1067.04	300.00	434.294	99.875	0.0209904
1068.13	300.00	434.290	99.874	-8.24632e-3
1069.21	300.00	434.293	99.874	-0.0688707
1070.29	300.00	434.290	99.874	-0.111181
1071.38	300.00	434.292	99.874	-0.0862221
1072.46	300.00	434.291	99.874	-0.0514076
1073.54	300.00	434.290	99.874	-3.04288e-3
1074.63	300.00	434.286	99.873	0.0384717
1075.71	300.00	434.292	99.874	8.17969e-3
1076.79	300.00	434.289	99.873	0.0456859
1077.88	300.00	434.287	99.873	0.0823385
1078.96	300.00	434.288	99.873	0.147699
1080.04	300.00	434.291	99.874	0.157620
1081.13	300.00	434.289	99.874	0.173939
1082.21	300.00	434.288	99.873	0.171168
1083.29	300.00	434.285	99.873	0.183888
1084.38	300.00	434.285	99.873	0.198116
1085.46	300.00	434.285	99.873	0.212650
1086.54	300.00	434.286	99.873	0.231995
1087.63	300.00	434.285	99.873	0.217506
1088.71	300.00	434.287	99.873	0.179802
1089.79	300.00	434.287	99.873	0.150864
1090.88	300.00	434.284	99.872	0.0460941
1091.96	300.00	434.284	99.872	-0.0206481
1093.04	300.00	434.283	99.872	1.63061e-3
1094.13	300.00	434.285	99.873	-3.20164e-3
1095.21	300.00	434.285	99.873	-5.97551e-3
1096.29	300.00	434.284	99.872	-0.0454814
1097.38	300.00	434.286	99.873	-0.0660961
1098.46	300.00	434.282	99.872	-0.0771821
1099.54	300.00	434.282	99.872	-0.109189
1100.63	300.00	434.281	99.872	-0.0385036
1101.71	300.00	434.280	99.871	-0.0142823
1102.79	300.00	434.281	99.872	-0.0213000
1103.88	300.00	434.280	99.871	-0.0612482
1104.96	300.00	434.279	99.871	-0.0559984
1106.04	300.00	434.283	99.872	-6.24935e-3
1107.13	300.00	434.279	99.871	8.14951e-4
1108.21	300.00	434.279	99.871	-0.0564495
1109.29	300.00	434.279	99.871	-0.0740021
1110.38	300.00	434.279	99.871	-0.0215895
1111.46	300.00	434.278	99.871	-0.0118740
1112.54	300.00	434.278	99.871	-1.35834e-3
1113.63	300.00	434.278	99.871	0.0147153
1114.71	300.00	434.279	99.871	0.0550298
1115.79	300.00	434.277	99.871	0.0541154
1116.88	300.00	434.276	99.871	0.0476319
1117.96	300.00	434.277	99.871	0.118671
1119.04	300.00	434.274	99.870	0.0980418
1120.13	300.00	434.276	99.870	0.0777782
1121.21	300.00	434.277	99.871	0.0509994
1122.29	300.00	434.275	99.870	0.0868087
1123.38	300.00	434.275	99.870	0.126795
1124.46	300.00	434.276	99.870	0.145654
1125.54	300.00	434.277	99.871	0.168828
1126.63	300.00	434.275	99.870	0.175994
1127.71	300.00	434.273	99.870	0.169911
1128.79	300.00	434.272	99.870	0.160699
1129.88	300.00	434.278	99.871	0.145531
1130.96	300.00	434.275	99.870	0.152001
1132.04	300.00	434.271	99.869	0.144342
1133.13	300.00	434.272	99.870	0.139868
1134.21	300.00	434.272	99.870	0.146274
1135.29	300.00	434.273	99.870	0.129045
1136.38	300.00	434.272	99.870	0.112667
1137.46	300.00	434.275	99.870	0.0917414
1138.54	300.00	434.273	99.870	0.0556145
1139.63	300.00	434.271	99.869	0.0437835
1140.71	300.00	434.271	99.869	0.0168771
1141.79	300.00	434.270	99.869	0.0165716
1142.88	300.00	434.270	99.869	-0.0154314
1143.96	300.00	434.271	99.869	-0.0662436
1145.04	300.00	434.270	99.869	-0.0971142
1146.13	300.00	434.268	99.869	-0.150195
1147.21	300.00	434.270	99.869	-0.170828
1148.29	300.00	434.272	99.870	-0.192486
1149.38	300.00	434.269	99.869	-0.174551
1150.46	300.00	434.267	99.869	-0.190691
1151.54	300.00	434.267	99.868	-0.202348
1152.63	300.00	434.267	99.869	-0.138004
1153.71	300.00	434.265	99.868	-0.0738884
1154.79	300.00	434.265	99.868	-0.0143434
1155.88	300.00	434.267	99.868	0.0355235
1156.96	300.00	434.266	99.868	0.0863592
1158.04	300.00	434.264	99.868	0.152857
1159.13	300.00	434.265	99.868	0.209657
1160.21	300.00	434.264	99.868	0.165174
1161.29	300.00	434.263	99.868	0.128583
1162.38	300.00	434.263	99.868	0.107628
1163.46	300.00	434.262	99.867	0.0711077
1164.54	300.00	434.264	99.868	0.0245750
1165.63	300.00	434.262	99.867	3.43005e-3
1166.71	300.00	434.263	99.867	-0.0223527
1167.79	300.00	434.260	99.867	-0.0836568
1168.88	300.00	434.261	99.867	-0.0522491
1169.96	300.00	434.261	99.867	-0.0179054
1171.04	300.00	434.262	99.867	0.0106692
1172.13	300.00	434.261	99.867	0.115303
1173.21	300.00	434.267	99.869	0.169466
1174.29	300.00	434.260	99.867	0.183023
1175.38	300.00	434.261	99.867	0.183494
1176.46	300.00	434.258	99.866	0.189717
1177.54	300.00	434.260	99.867	0.198354
1178.63	300.00	434.258	99.866	0.196633
1179.71	300.00	434.260	99.867	0.171259
1180.79	300.00	434.262	99.867	0.160868
1181.88	300.00	434.258	99.866	0.148828
1182.96	300.00	434.258	99.866	0.132908
1184.04	300.00	434.258	99.866	0.0924579
1185.13	300.00	434.259	99.867	0.0807559
1186.21	300.00	434.257	99.866	0.0380729
1187.29	300.00	434.258	99.867	-0.0148866
1188.38	300.00	434.257	99.866	-0.151152
1189.46	300.00	434.260	99.867	-0.182823
1190.54	300.00	434.256	99.866	-0.220047
1191.63	300.00	434.255	99.866	-0.234592
1192.71	300.00	434.256	99.866	-0.244803
1193.79	300.00	434.255	99.866	-0.249835
1194.88	300.00	434.259	99.867	-0.260183
1195.96	300.00	434.254	99.865	-0.132896
1197.04	300.00	434.252	99.865	-0.0748255
1198.13	300.00	434.251	99.865	-0.0603948
1199.21	300.00	434.255	99.866	-0.0538541
1200.29	300.00	434.252	99.865	-0.0477298
1201.38	300.00	434.253	99.865	-0.0436769
1202.46	300.00	434.252	99.865	-0.0371351
1203.54	300.00	434.251	99.865	-7.00714e-4
1204.63	300.00	434.252	99.865	0.0569393
1205.71	300.00	434.252	99.865	0.0774707
1206.79	300.00	434.250	99.865	0.0695265
1207.88	300.00	434.251	99.865	0.0753004
1208.96	300.00	434.248	99.864	0.0451141
1210.04	300.00	434.249	99.864	-0.0102079
1211.13	300.00	434.250	99.865	-0.0269569
1212.21	300.00	434.248	99.864	-0.0156054
1213.29	300.00	434.249	99.864	0.0302299
1214.38	300.00	434.250	99.865	0.0995048
1215.46	300.00	434.245	99.864	0.105158
1216.54	300.00	434.248	99.864	0.104710
1217.63	300.00	434.249	99.864	0.0746554
1218.71	300.00	434.247	99.864	0.0842635
1219.79	300.00	434.248	99.864	0.0843183
1220.88	300.00	434.247	99.864	0.100662
1221.96	300.00	434.244	99.863	0.0971298
1223.04	300.00	434.247	99.864	0.0962971
1224.13	300.00	434.244	99.863	0.103846
1225.21	300.00	434.246	99.864	0.102206
1226.29	300.00	434.244	99.863	0.0980332
1227.38	300.00	434.245	99.863	0.0885159
1228.46	300.00	434.243	99.863	0.0794368
1229.54	300.00	434.247	99.864	0.0646013
1230.63	300.00	434.245	99.863	0.0515838
1231.71	300.00	434.245	99.863	0.0210576
1232.79	300.00	434.245	99.863	-0.0263293
1233.88	300.00	434.243	99.863	-0.0906360
1234.96	300.00	434.244	99.863	-0.135309
1236.04	300.00	434.243	99.863	-0.173944
1237.13	300.00	434.243	99.863	-0.189224
1238.21	300.00	434.239	99.862	-0.197297
1239.29	300.00	434.245	99.863	-0.186450
1240.38	300.00	434.240	99.862	-0.0961233
1241.46	300.00	434.241	99.862	0.0108052
1242.54	300.00	434.241	99.862	0.0411053
1243.63	300.00	434.243	99.863	0.0542010
1244.71	300.00	434.237	99.862	0.0531558
1245.79	300.00	434.238	99.862	0.122913
1246.88	300.00	434.239	99.862	0.187747
1247.96	300.00	434.238	99.862	0.225283
1249.04	300.00	434.237	99.861	0.165238
1250.13	300.00	434.237	99.862	0.0984588
1251.21	300.00	434.237	99.862	8.85107e-3
1252.29	300.00	434.236	99.861	-0.0404591
1253.38	300.00	434.235	99.861	-0.100963
1254.46	300.00	434.234	99.861	-0.102063
1255.54	300.00	434.236	99.861	-0.102806
1256.63	300.00	434.234	99.861	-1.42344e-3
1257.71	300.00	434.239	99.862	-6.32584e-5
1258.79	300.00	434.236	99.861	-3.44241e-5
1259.88	300.00	434.238	99.862	-2.25325e-5
1260.96	300.00	434.233	99.861	-2.30404e-5
1262.04	300.00	434.230	99.860	-2.74877e-5
1263.13	300.00	434.239	99.862	-3.94883e-5
1264.21	300.00	434.232	99.860	-6.24152e-5
1265.29	301.25	434.234	99.861	-1.10380e-4
1266.38	308.13	434.233	99.861	-2.03741e-4
1267.46	317.75	434.233	99.861	-3.86397e-4
1268.54	327.74	434.231	99.860	-7.24190e-4
1269.63	337.95	434.231	99.860	-1.33788e-3
1270.71	348.54	434.226	99.859	-2.32460e-3
1271.79	359.42	434.214	99.856	-3.54811e-3
1272.88	370.45	434.188	99.850	-4.68030e-3
1273.96	381.51	434.134	99.838	-5.63145e-3
1275.04	392.53	434.008	99.809	-6.38965e-3
1276.13	403.48	433.746	99.749	-6.91328e-3
1277.21	414.38	433.219	99.627	-7.19874e-3
1278.29	425.24	432.299	99.416	-7.24698e-3
1279.38	436.12	431.215	99.167	-7.05398e-3
1280.46	447.01	430.657	99.038	-6.61414e-3
1281.54	457.83	430.553	99.014	-5.92992e-3
1282.63	468.68	430.534	99.010	-5.01712e-3
1283.71	479.55	430.529	99.009	-3.91366e-3
1284.79	490.43	430.530	99.009	-2.69425e-3
1285.88	501.31	430.527	99.008	-1.50552e-3
1286.96	512.18	430.527	99.008	-5.88585e-4
1288.04	523.04	430.530	99.009	-1.40002e-4
1289.13	533.90	430.528	99.009	-3.30134e-5
1290.21	544.76	430.527	99.008	-1.47062e-5
1291.29	555.62	430.526	99.008	-1.10843e-5
1292.38	566.48	430.526	99.008	-1.16690e-5
1293.46	577.34	430.525	99.008	-1.07044e-5
1294.54	588.20	430.519	99.007	-1.02435e-5
1295.63	599.07	430.524	99.008	-7.68475e-6
1296.71	609.92	430.523	99.007	-4.79282e-6
1297.79	620.77	430.523	99.008	-2.98846e-6
1298.88	631.62	430.522	99.007	-2.28600e-6
1299.96	642.47	430.522	99.007	-7.11398e-8
1301.04	653.32	430.525	99.008	1.94026e-6
1302.13	664.18	430.523	99.008	5.03694e-6
1303.21	675.02	430.526	99.008	8.42527e-6
1304.29	685.88	430.528	99.009	1.15024e-5
1305.38	696.73	430.526	99.008	1.37677e-5
1306.46	707.58	430.523	99.007	1.51008e-5
1307.54	718.43	430.527	99.008	1.66371e-5
1308.63	729.28	430.527	99.008	1.77176e-5
1309.71	740.13	430.533	99.010	1.82919e-5
1310.79	750.97	430.529	99.009	1.92306e-5
1311.88	761.82	430.533	99.010	2.03516e-5
1312.96	772.67	430.530	99.009	2.59621e-5
1314.04	783.51	430.530	99.009	3.06048e-5
1314.38	786.85	430.538	99.011	3.19638e-5