File: data/TGA/005d-L_M/styrofoam-corrected.txt
Filename	L3
Instrument name
Operator	Galyna
rundate	2025-02-24
Sample name	L3
[step]
Step 1
Time	Temperature	Weight	Weight	Deriv. Weight
min	°C	mg	%	% / °C
0.04	27.78	4.32	99.9537	-1.37031E-05
1.04	28.41	4.317	99.8843	-2.39486E-05
2.04	30.25	4.32	99.9537	-2.66013E-05
3.04	33.79	4.319	99.9306	-0.000029424
4.04	38.52	4.303	99.5604	-2.73714E-05
5.04	43.71	4.323	100.023	-3.09832E-05
6.04	48.82	4.319	99.9306	-3.18606E-05
7.04	53.7	4.313	99.7918	-0.000030223
8.04	58.38	4.326	100.093	-3.04771E-05
9.04	62.99	4.321	99.9769	-0.000030978
10.04	67.67	4.316	99.8612	-3.32514E-05
11.04	72.47	4.314	99.8149	-3.50982E-05
12.04	77.4	4.319	99.9306	-3.86511E-05
13.04	82.43	4.31	99.7224	-4.83635E-05
14.04	87.52	4.316	99.8612	-5.12253E-05
15.04	92.63	4.311	99.7455	-5.75542E-05
16.04	97.53	4.309	99.6992	-6.51624E-05
17.04	100.99	4.313	99.7918	-6.67603E-05
18.04	102.66	4.307	99.6529	-7.69564E-05
19.04	103.06	4.307	99.6529	-8.53239E-05
20.04	102.76	4.308	99.6761	-9.52872E-05
21.04	102.17	4.303	99.5604	-8.67048E-05
22.04	101.49	4.304	99.5835	-8.25051E-05
23.04	100.85	4.304	99.5835	-5.80682E-05
24.04	100.31	4.302	99.5373	-3.15461E-05
25.04	100	4.301	99.5141	-2.06536E-05
26.04	101.17	4.303	99.5604	-1.55637E-05
27.04	104.46	4.305	99.6067	-1.08951E-05
28.04	109.02	4.306	99.6298	-1.16803E-05
29.04	113.9	4.305	99.6067	-0.00001072
30.04	118.7	4.301	99.5141	-1.03841E-05
31.04	123.41	4.304	99.5835	-1.06575E-05
32.04	128.15	4.304	99.5835	-1.19728E-05
33.04	132.98	4.302	99.5373	-1.47153E-05
34.04	137.92	4.302	99.5373	-1.59909E-05
35.04	142.93	4.304	99.5835	-1.75633E-05
36.04	147.99	4.3	99.491	-1.72761E-05
37.04	153.05	4.301	99.5141	-0.000018985
38.04	158.12	4.301	99.5141	-2.09183E-05
39.04	163.18	4.3	99.491	-2.33394E-05
40.04	168.21	4.299	99.4678	-2.52463E-05
41.04	173.22	4.299	99.4678	-2.76003E-05
42.04	178.23	4.298	99.4447	-3.03462E-05
43.04	183.24	4.299	99.4678	-3.35436E-05
44.04	188.25	4.296	99.3984	-0.000036856
45.04	193.25	4.293	99.329	-4.11624E-05
46.04	198.25	4.296	99.3984	-4.52371E-05
47.04	203.24	4.294	99.3522	-4.93009E-05
48.04	208.24	4.294	99.3522	-5.38373E-05
49.04	213.24	4.29	99.2596	-5.85546E-05
50.04	218.25	4.292	99.3059	-6.37303E-05
51.04	223.26	4.284	99.1208	-6.93233E-05
52.04	228.26	4.286	99.1671	-7.47104E-05
53.04	233.28	4.287	99.1902	-8.10911E-05
54.04	238.29	4.286	99.1671	-8.97992E-05
55.04	243.3	4.282	99.0745	-9.94684E-05
56.04	248.31	4.281	99.0514	-0.00010954
57.04	253.32	4.279	99.0051	-0.000119919
58.04	258.33	4.278	98.982	-0.000131705
59.04	263.34	4.271	98.82	-0.000144713
60.04	268.34	4.277	98.9588	-0.000161267
61.04	273.35	4.266	98.7043	-0.000178481
62.04	278.36	4.263	98.6349	-0.000196699
63.04	283.37	4.256	98.4729	-0.000217188
64.04	288.38	4.253	98.4035	-0.00024057
65.04	293.42	4.249	98.311	-0.000266731
66.04	297.81	4.244	98.1953	-0.000296395
67.04	300.22	4.238	98.0565	-0.000330461
68.04	301.36	4.234	97.9639	-0.000370643
69.04	301.86	4.227	97.8019	-0.000417716
70.04	301.81	4.227	97.8019	-0.000475446
71.04	301.41	4.223	97.7094	-0.00055434
72.04	300.87	4.219	97.6168	-0.000655293
73.04	300.36	4.217	97.5706	-0.000643401
74.04	299.97	4.214	97.5012	0.000473206
75.04	299.74	4.211	97.4317	0.00238583
76.04	299.66	4.21	97.4086	0.00255618
77.04	299.68	4.212	97.4549	0.00235628
78.04	299.77	4.211	97.4317	0.00231746
79.04	299.88	4.207	97.3392	0.00224075
80.04	299.97	4.206	97.3161	0.00156054
81.04	300.04	4.204	97.2698	-0.00194123
82.04	300.07	4.202	97.2235	-0.00686569
83.04	300.07	4.201	97.2004	-0.00741369
84.04	300.06	4.198	97.131	-0.00721362
85.04	300.04	4.199	97.1541	-0.00716339
86.04	300.02	4.198	97.131	-0.0063945
87.04	300	4.199	97.1541	-0.000108519
88.04	299.99	4.196	97.0847	0.0187521
89.04	299.99	4.195	97.0615	0.0278386
90.04	299.99	4.193	97.0153	0.0262976
91.04	299.99	4.192	96.9921	0.0242627
92.04	300	4.193	97.0153	0.0262224
93.04	300	4.192	96.9921	0.0185431
94.04	300	4.191	96.969	-0.0324429
95.04	300	4.19	96.9459	-0.120833
96.04	300	4.186	96.8533	-0.135117
97.04	300.01	4.186	96.8533	-0.124938
98.04	300	4.185	96.8302	-0.117369
99.04	300	4.184	96.807	-0.0961187
100.04	300	4.186	96.8533	0.00251384
101.04	300	4.182	96.7608	0.153235
102.04	300	4.182	96.7608	0.262051
103.04	300	4.179	96.6913	0.305144
104.04	300	4.184	96.807	0.294246
105.04	300	4.179	96.6913	0.30804
106.04	300	4.179	96.6913	0.32416
107.04	300	4.177	96.6451	0.287442
108.04	300	4.175	96.5988	0.214032
109.04	300	4.176	96.6219	0.0711038
110.04	300	4.175	96.5988	-0.00134209
111.04	300	4.174	96.5757	0.000912613
112.04	300	4.173	96.5525	-0.0297848
113.04	300	4.173	96.5525	-0.0184073
114.04	300	4.171	96.5062	0.0567061
115.04	300	4.172	96.5294	0.0991083
116.04	300	4.171	96.5062	0.114276
117.04	300	4.167	96.4137	0.124796
118.04	300	4.169	96.46	0.0234141
119.04	300	4.168	96.4368	-0.177691
120.04	300	4.17	96.4831	-0.302801
121.04	300	4.167	96.4137	-0.31318
122.04	300	4.164	96.3443	-0.319195
123.04	300	4.166	96.3906	-0.0830661
124.04	300	4.165	96.3674	0.156381
125.04	300	4.164	96.3443	0.248822
126.04	300	4.163	96.3211	0.334019
127.04	300	4.163	96.3211	0.383138
128.04	300	4.16	96.2517	0.423432
129.04	300	4.161	96.2749	0.390966
130.04	300	4.158	96.2055	0.397321
131.04	300	4.159	96.2286	0.446373
132.04	300	4.156	96.1592	0.496984
133.04	300	4.155	96.136	0.452317
134.04	300	4.156	96.1592	0.402282
135.04	300	4.154	96.1129	0.31176
136.04	300	4.154	96.1129	0.130613
137.04	300	4.153	96.0898	-0.00689165
138.04	300	4.153	96.0898	-0.128277
139.04	300	4.149	95.9972	-0.314607
140.04	300	4.151	96.0435	-0.334359
141.04	300	4.149	95.9972	-0.444333
142.04	300	4.149	95.9972	-0.508047
143.04	300	4.146	95.9278	-0.485546
144.04	300	4.146	95.9278	-0.439347
145.04	300	4.146	95.9278	-0.388403
146.04	300	4.145	95.9047	-0.270784
147.04	300	4.145	95.9047	-0.0120993
148.04	300	4.144	95.8815	0.187734
149.04	300	4.141	95.8121	0.284326
150.04	300	4.14	95.789	0.343274
151.04	300	4.144	95.8815	0.365657
152.04	300	4.141	95.8121	0.384099
153.04	300	4.141	95.8121	0.308493
154.04	300	4.138	95.7427	0.196068
155.04	300	4.137	95.7196	0.0656365
156.04	300	4.138	95.7427	-0.0128209
157.04	300	4.14	95.789	-0.0866676
158.04	300	4.136	95.6964	-0.167506
159.04	300	4.134	95.6502	-0.268429
160.04	300	4.135	95.6733	-0.340397
161.04	300	4.134	95.6502	-0.402951
162.04	300	4.133	95.627	-0.42497
163.04	300	4.131	95.5807	-0.42862
164.04	300	4.132	95.6039	-0.407359
165.04	300	4.129	95.5345	-0.384421
166.04	300	4.127	95.4882	-0.373308
167.04	300	4.127	95.4882	-0.356328
168.04	300	4.128	95.5113	-0.290686
169.04	300	4.127	95.4882	0.00408436
170.04	300	4.126	95.4651	0.189871
171.04	300	4.128	95.5113	0.23408
172.04	300	4.125	95.4419	0.207084
173.04	300	4.122	95.3725	0.260359
174.04	300	4.122	95.3725	0.303367
175.04	300	4.123	95.3957	0.308131
176.04	300	4.123	95.3957	0.325647
177.04	300	4.117	95.2568	0.33261
178.04	300	4.119	95.3031	0.330271
179.04	300	4.118	95.28	0.320544
180.04	300	4.118	95.28	0.343586
181.04	300	4.115	95.2106	0.373823
182.04	300	4.119	95.3031	0.357026
183.04	300	4.117	95.2568	0.337122
184.04	300	4.117	95.2568	0.268469
185.04	300	4.117	95.2568	0.100778
186.04	300	4.117	95.2568	0.1202
187.04	300	4.114	95.1874	-0.0847087
188.04	300	4.114	95.1874	-0.200668
189.04	300	4.113	95.1643	-0.315494
190.04	300	4.114	95.1874	-0.328589
191.04	300	4.11	95.0949	-0.330997
192.04	300	4.114	95.1874	-0.338136
193.04	300	4.112	95.1411	-0.340093
194.04	300	4.11	95.0949	-0.345217
195.04	300	4.111	95.118	-0.210014
196.04	300	4.107	95.0255	-0.0427912
197.04	300	4.107	95.0255	0.0421183
198.04	300	4.107	95.0255	0.149809
199.04	300	4.108	95.0486	0.209274
200.04	300	4.107	95.0255	0.214823
201.04	300	4.104	94.956	0.274893
202.04	300	4.106	95.0023	0.204643
203.04	300	4.104	94.956	0.140746
204.04	300	4.1	94.8635	0.0825918
205.04	300	4.105	94.9792	0.0512621
206.04	300	4.104	94.956	0.0286515
207.04	300	4.102	94.9098	-0.0383265
208.04	300	4.102	94.9098	-0.129708
209.04	300	4.1	94.8635	-0.169498
210.04	300	4.098	94.8172	-0.183744
211.04	300	4.098	94.8172	-0.213336
212.04	300	4.097	94.7941	-0.194337
213.04	300	4.097	94.7941	-0.226275
214.04	300	4.093	94.7015	-0.229686
215.04	300	4.097	94.7941	-0.196089
216.04	300	4.097	94.7941	-0.131266
217.04	300	4.095	94.7478	-0.121004
218.04	300	4.091	94.6553	-0.0880779
219.04	300	4.094	94.7247	-0.127548
220.04	300	4.092	94.6784	-0.195979
221.04	300	4.093	94.7015	-0.225078
222.04	300	4.09	94.6321	-0.17085
223.04	300	4.091	94.6553	-0.160572
224.04	300	4.084	94.4933	-0.0913945
225.04	300	4.09	94.6321	-0.0302013
226.04	300	4.091	94.6553	0.0543514
227.04	300	4.09	94.6321	0.203414
228.04	300	4.088	94.5858	0.229523
229.04	300	4.085	94.5164	0.233594
230.04	300	4.084	94.4933	0.210583
231.04	300	4.085	94.5164	0.195832
232.04	300	4.087	94.5627	0.210885
233.04	300	4.085	94.5164	0.219384
234.04	300	4.085	94.5164	0.194775
235.04	300	4.084	94.4933	0.175935
236.04	300	4.083	94.4702	0.1396
237.04	300	4.083	94.4702	0.078051
238.04	300	4.085	94.5164	0.0125666
239.04	300	4.084	94.4933	-0.0137835
240.04	300	4.082	94.447	-0.0999296
241.04	300	4.084	94.4933	-0.141194
242.04	300	4.081	94.4239	-0.16996
243.04	300	4.082	94.447	-0.184166
244.04	300	4.075	94.2851	-0.194505
245.04	300	4.08	94.4007	-0.177571
246.04	300	4.08	94.4007	-0.123993
247.04	300	4.077	94.3313	-0.0526145
248.04	300	4.075	94.2851	0.035973
249.04	300	4.078	94.3545	0.109464
250.04	300	4.077	94.3313	0.179003
251.04	300	4.078	94.3545	0.201648
252.04	300	4.077	94.3313	0.202787
253.04	300	4.076	94.3082	0.171737
254.04	300	4.074	94.2619	0.146974
255.04	300	4.076	94.3082	0.133322
256.04	300	4.074	94.2619	0.106282
257.04	300	4.074	94.2619	0.057324
258.04	300	4.072	94.2156	-5.74977E-05
259.04	300	4.071	94.1925	-0.0241935
260.04	300	4.073	94.2388	-0.0610698
261.04	300	4.072	94.2156	-0.0964312
262.04	300	4.073	94.2388	-0.0761655
263.04	300	4.07	94.1694	-0.0554528
264.04	300	4.069	94.1462	-0.0564401
265.04	300	4.069	94.1462	0.0243828
266.04	300	4.07	94.1694	0.126796
267.04	300	4.07	94.1694	0.253164
268.04	300	4.068	94.1231	0.282335
269.04	300	4.067	94.1	0.266063
270.04	300	4.066	94.0768	0.253978
271.04	300	4.068	94.1231	0.268427
272.04	300	4.068	94.1231	0.224698
273.04	300	4.065	94.0537	0.159757
274.04	300	4.068	94.1231	0.0658633
275.04	300	4.065	94.0537	-0.0736085
276.04	300	4.065	94.0537	-0.129502
277.04	300	4.063	94.0074	-0.131939
278.04	300	4.06	93.938	-0.131352
279.04	300	4.063	94.0074	-0.132418
280.04	300	4.062	93.9843	-0.107326
281.04	300	4.06	93.938	-0.148566
282.04	300	4.059	93.9149	-0.0261355
283.04	300	4.058	93.8917	0.0364831
284.04	300	4.058	93.8917	0.102072
285.04	300	4.059	93.9149	0.0885475
286.04	300	4.058	93.8917	0.12145
287.04	300	4.056	93.8454	0.204815
288.04	300	4.058	93.8917	0.309488
289.04	300	4.056	93.8454	0.32281
290.04	300	4.052	93.7529	0.325646
291.04	300	4.055	93.8223	0.312713
292.04	300	4.054	93.7992	0.214037
293.04	300	4.053	93.776	0.144054
294.04	300	4.055	93.8223	0.0866762
295.04	300	4.052	93.7529	-0.0190171
296.04	300	4.053	93.776	-0.126817
297.04	300	4.051	93.7298	-0.0724032
298.04	300	4.051	93.7298	-0.029948
299.04	300	4.051	93.7298	0.039388
300.04	300	4.052	93.7529	0.079456
301.04	300	4.049	93.6835	0.12716
302.04	300	4.046	93.6141	0.0733763
303.04	300	4.048	93.6603	0.0257945
304.04	300	4.049	93.6835	0.0302248
305.04	300	4.047	93.6372	0.0457166
306.04	300	4.046	93.6141	0.0482065
307.04	300	4.045	93.5909	0.0636649
308.04	300	4.046	93.6141	0.0391038
309.04	300	4.045	93.5909	-0.00032167
310.04	300	4.043	93.5447	-0.063389
311.04	300	4.039	93.4521	-0.0626561
312.04	300	4.042	93.5215	-0.0410543
313.04	300	4.041	93.4984	-0.040679
314.04	300	4.042	93.5215	0.0111019
315.04	300	4.041	93.4984	0.063538
316.04	300	4.039	93.4521	0.154819
317.04	300	4.042	93.5215	0.215881
318.04	300	4.041	93.4984	0.247013
319.04	300	4.04	93.4752	0.212441
320.04	300	4.038	93.429	0.166838
321.04	300	4.036	93.3827	0.042524
322.04	300	4.036	93.3827	-0.0236051
323.04	300	4.038	93.429	-0.106074
324.04	300	4.038	93.429	-0.171774
325.04	300	4.036	93.3827	-0.128736
326.04	300	4.037	93.4058	-0.15563
327.04	300	4.033	93.3133	-0.1648
328.04	300	4.035	93.3596	-0.114299
329.04	300	4.035	93.3596	-0.041332
330.04	300	4.033	93.3133	-0.0715669
331.04	300	4.033	93.3133	-0.0513317
332.04	300	4.032	93.2901	-0.0229984
333.04	300	4.031	93.267	0.0486057
334.04	300	4.031	93.267	0.0900102
335.04	300	4.031	93.267	0.0758476
336.04	300	4.027	93.1745	0.111628
337.04	300	4.027	93.1745	0.176303
338.04	300	4.029	93.2207	0.17211
339.04	300	4.027	93.1745	0.173852
340.04	300	4.028	93.1976	0.139313
341.04	300	4.026	93.1513	0.139227
342.04	300	4.026	93.1513	0.17009
343.04	300	4.025	93.1282	0.131419
344.04	300	4.027	93.1745	0.142312
345.04	300	4.025	93.1282	0.130378
346.04	300	4.023	93.0819	0.0795532
347.04	300	4.024	93.105	0.0255105
348.04	300	4.024	93.105	0.0162542
349.04	300	4.024	93.105	0.0404164
350.04	300	4.022	93.0588	0.00160594
351.04	300	4.022	93.0588	-0.0735294
352.04	300	4.025	93.1282	-0.094228
353.04	300	4.021	93.0356	-0.100248
354.04	300	4.021	93.0356	0.0517498
355.04	300	4.021	93.0356	0.137969
356.04	300	4.02	93.0125	0.190051
357.04	300	4.02	93.0125	0.215539
358.04	300	4.022	93.0588	0.237353
359.04	300	4.017	92.9431	0.214537
360.04	300	4.017	92.9431	0.201732
361.04	300	4.017	92.9431	0.110776
362.04	300	4.017	92.9431	0.0889348
363.04	300	4.017	92.9431	0.068795
364.04	300	4.016	92.9199	0.0883939
365.04	300	4.014	92.8737	0.0960222
366.04	300	4.016	92.9199	0.12789
367.04	300	4.013	92.8505	0.092559
368.04	300	4.015	92.8968	0.0140688
369.04	300	4.014	92.8737	-0.0833698
370.04	300	4.014	92.8737	-0.139503
371.04	300	4.014	92.8737	-0.133719
372.04	300	4.012	92.8274	-0.113534
373.04	300	4.013	92.8505	-0.127753
374.04	300	4.012	92.8274	-0.114636
375.04	300	4.012	92.8274	-0.03097
376.04	300	4.012	92.8274	0.0287477
377.04	300	4.01	92.7811	0.0491774
378.04	300	4.01	92.7811	0.0297491
379.04	300	4.009	92.758	0.0309786
380.04	300	4.009	92.758	0.017654
381.04	300	4.008	92.7348	0.0254109
382.04	300	4.008	92.7348	0.0532806
383.04	300	4.007	92.7117	0.129114
384.04	300	4.008	92.7348	0.165392
385.04	300	4.009	92.758	0.140701
386.04	300	4.008	92.7348	0.11941
387.04	300	4.005	92.6654	0.110081
388.04	300	4.006	92.6886	0.0985276
389.04	300	4.003	92.6192	0.044444
390.04	300	4.005	92.6654	-0.0376923
391.04	300	4.006	92.6886	-0.0735946
392.04	300	4.005	92.6654	-0.0723631
393.04	300	4.006	92.6886	-0.0774259
394.04	300	4.001	92.5729	-0.0607712
395.04	300	4.004	92.6423	-0.0823634
396.04	300	4.001	92.5729	-0.091749
397.04	300	4.002	92.596	-0.160102
398.04	300	4.002	92.596	-0.224694
399.04	300	4	92.5497	-0.222147
400.04	300	3.999	92.5266	-0.0994616
401.04	300	3.999	92.5266	-0.00327944
402.04	300	3.999	92.5266	-0.0198359
403.04	300	3.998	92.5035	-0.00990373
404.04	300	3.999	92.5266	0.0241064
405.04	300	3.998	92.5035	0.0217128
406.04	300	3.997	92.4803	0.00548178
407.04	300	3.997	92.4803	0.0924531
408.04	300	3.996	92.4572	0.0896899
409.04	300	3.995	92.4341	0.0840168
410.04	300	3.995	92.4341	0.0986087
411.04	300	3.995	92.4341	0.124245
412.04	300	3.995	92.4341	0.117548
413.04	300	3.994	92.4109	0.120912
414.04	300	3.997	92.4803	0.106957
415.04	300	3.995	92.4341	0.0400167
416.04	300	3.992	92.3646	0.0185248
417.04	300	3.992	92.3646	0.101311
418.04	300	3.994	92.4109	0.117095
419.04	300	3.995	92.4341	0.0980522
420.04	300	3.988	92.2721	0.0906577
421.04	300	3.99	92.3184	0.136412
422.04	300	3.99	92.3184	0.105688
423.04	300	3.989	92.2952	0.0380829
424.04	300	3.991	92.3415	0.0345418
425.04	300	3.99	92.3184	-0.043249
426.04	300	3.989	92.2952	-0.0716153
427.04	300	3.989	92.2952	-0.0909674
428.04	300	3.989	92.2952	-0.0846247
429.04	300	3.988	92.2721	-0.0898533
430.04	300	3.988	92.2721	-0.111207
431.04	300	3.987	92.249	-0.113623
432.04	300	3.987	92.249	-0.132715
433.04	300	3.985	92.2027	-0.139029
434.04	300	3.984	92.1795	-0.136808
435.04	300	3.984	92.1795	-0.112586
436.04	300	3.984	92.1795	-0.0882083
437.04	300	3.984	92.1795	-0.0705832
438.04	300	3.985	92.2027	0.0504364
439.04	300	3.983	92.1564	0.136701
440.04	300	3.985	92.2027	0.136969
441.04	300	3.983	92.1564	0.116174
442.04	300	3.982	92.1333	0.0993876
443.04	300	3.98	92.087	0.0844754
444.04	300	3.981	92.1101	0.0582427
445.04	300	3.981	92.1101	0.0852984
446.04	300	3.981	92.1101	0.0894488
447.04	300	3.98	92.087	0.0304826
448.04	300	3.977	92.0176	0.0370788
449.04	300	3.981	92.1101	0.0199188
450.04	300	3.979	92.0639	0.0177215
451.04	300	3.978	92.0407	0.0268595
452.04	300	3.978	92.0407	0.0403493
453.04	300	3.978	92.0407	0.0557154
454.04	300	3.977	92.0176	-0.0243429
455.04	300	3.977	92.0176	-0.0253078
456.04	300	3.977	92.0176	0.054808
457.04	300	3.979	92.0639	0.00944118
458.04	300	3.974	91.9482	-0.0836434
459.04	300	3.976	91.9944	-0.143122
460.04	300	3.975	91.9713	-0.0963036
461.04	300	3.975	91.9713	0.0122376
462.04	300	3.974	91.9482	0.0965031
463.04	300	3.975	91.9713	0.0995164
464.04	300	3.973	91.925	0.0432392
465.04	300	3.97	91.8556	0.119091
466.04	300	3.971	91.8788	0.186602
467.04	300	3.974	91.9482	0.15721
468.04	300	3.973	91.925	0.167121
469.04	300	3.971	91.8788	0.137482
470.04	300	3.972	91.9019	0.144259
471.04	300	3.971	91.8788	0.162395
472.04	300	3.974	91.9482	0.167113
473.04	300	3.972	91.9019	0.153408
474.04	300	3.97	91.8556	0.155281
475.04	300	3.97	91.8556	0.0638885
476.04	300	3.97	91.8556	0.00404894
477.04	300	3.97	91.8556	-0.00404531
478.04	300	3.969	91.8325	-0.0272819
479.04	300	3.969	91.8325	-0.0161077
480.04	300	3.968	91.8093	-0.0156629
481.04	300	3.969	91.8325	-0.0399234
482.04	300	3.966	91.7631	-0.000468942
483.04	300	3.965	91.7399	0.0797349
484.04	300	3.967	91.7862	0.0791348
485.04	300	3.966	91.7631	0.0223384
486.04	300	3.965	91.7399	-0.0481505
487.04	300	3.967	91.7862	-0.0853624
488.04	300	3.965	91.7399	-0.0710456
489.04	300	3.963	91.6937	-0.0612299
490.04	300	3.965	91.7399	-0.0355466
491.04	300	3.964	91.7168	0.00498626
492.04	300	3.963	91.6937	-0.0532523
493.04	300	3.958	91.578	-0.0692535
494.04	300	3.962	91.6705	-0.0920079
495.04	300	3.962	91.6705	-0.117853
496.04	300	3.962	91.6705	-0.0807798
497.04	300	3.961	91.6474	-0.0660606
498.04	300	3.959	91.6011	-0.0358885
499.04	300	3.961	91.6474	0.0144147
500.04	300	3.96	91.6242	0.145468
501.04	300	3.961	91.6474	0.206253
502.04	300	3.96	91.6242	0.225956
503.04	300	3.959	91.6011	0.229554
504.04	300	3.959	91.6011	0.226958
505.04	300	3.958	91.578	0.172529
506.04	300	3.96	91.6242	0.124682
507.04	300	3.962	91.6705	0.0661398
508.04	300	3.959	91.6011	0.00540282
509.04	300	3.957	91.5548	-0.071865
510.04	300	3.958	91.578	-0.078237
511.04	300	3.956	91.5317	-0.0586991
512.04	300	3.956	91.5317	-0.013302
513.04	300	3.956	91.5317	0.00603451
514.04	300	3.955	91.5086	0.0551042
515.04	300	3.957	91.5548	0.0634427
516.04	300	3.956	91.5317	0.084975
517.04	300	3.955	91.5086	0.129611
518.04	300	3.954	91.4854	0.143472
519.04	300	3.953	91.4623	0.106388
520.04	300	3.952	91.4391	0.0497307
521.04	300	3.951	91.416	0.0186899
522.04	300	3.949	91.3697	0.0112866
523.04	300	3.953	91.4623	0.00574691
524.04	300	3.952	91.4391	-0.025639
525.04	300	3.951	91.416	-0.0567158
526.04	300	3.951	91.416	-0.0745383
527.04	300	3.95	91.3929	-0.0664775
528.04	300	3.95	91.3929	-0.0501529
529.04	300	3.95	91.3929	0.00156061
530.04	300	3.948	91.3466	-0.0118937
531.04	300	3.952	91.4391	0.0100419
532.04	300	3.95	91.3929	0.0668962
533.04	300	3.949	91.3697	0.142983
534.04	300	3.949	91.3697	0.149012
535.04	300	3.946	91.3003	0.152274
536.04	300	3.95	91.3929	0.112053
537.04	300	3.947	91.3235	0.0637762
538.04	300	3.948	91.3466	-0.00900632
539.04	300	3.946	91.3003	-0.0226159
540.04	300	3.944	91.254	-0.0600057
541.04	300	3.948	91.3466	-0.0240888
542.04	300	3.946	91.3003	-0.020055
543.04	300	3.945	91.2772	-0.00936364
544.04	300	3.945	91.2772	0.0544645
545.04	300	3.947	91.3235	0.0696686
546.04	300	3.947	91.3235	0.114006
547.04	300	3.943	91.2309	0.0955214
548.04	300	3.943	91.2309	0.120933
549.04	300	3.943	91.2309	0.16248
550.04	300	3.942	91.2078	0.138181
551.04	300	3.943	91.2309	0.0771883
552.04	300	3.942	91.2078	0.0832698
553.04	300	3.942	91.2078	0.0405843
554.04	300	3.942	91.2078	0.00690729
555.04	300	3.942	91.2078	0.00351224
556.04	300	3.942	91.2078	-0.00650516
557.04	300	3.94	91.1615	-0.0404203
558.04	300	3.94	91.1615	-0.043503
559.04	300	3.94	91.1615	-0.0674048
560.04	300	3.941	91.1846	-0.069151
561.04	300	3.938	91.1152	-0.05006
562.04	300	3.938	91.1152	-0.0270795
563.04	300	3.937	91.0921	-0.00346621
564.04	300	3.935	91.0458	0.00432591
565.04	300	3.943	91.2309	0.0497038
566.04	300	3.939	91.1384	0.0551862
567.04	300	3.937	91.0921	0.0290734
568.04	300	3.937	91.0921	0.0470362
569.04	300	3.942	91.2078	0.0994367
570.04	300	3.937	91.0921	0.0889755
571.04	300	3.934	91.0227	0.114775
572.04	300	3.936	91.0689	0.0801122
573.04	300	3.936	91.0689	0.0546343
574.04	300	3.935	91.0458	0.0327001
575.04	300	3.935	91.0458	-0.0199194
576.04	300	3.934	91.0227	-0.0139445
577.04	300	3.934	91.0227	-0.00476386
578.04	300	3.933	90.9995	-0.0105592
579.04	300	3.935	91.0458	-0.00273132
580.04	300	3.934	91.0227	0.0120324
581.04	300	3.934	91.0227	0.039053
582.04	300	3.932	90.9764	0.0693159
583.04	300	3.932	90.9764	0.061908
584.04	300	3.933	90.9995	0.0845905
585.04	300	3.933	90.9995	0.10336
586.04	300	3.93	90.9301	0.139254
587.04	300	3.93	90.9301	0.147303
588.04	300	3.931	90.9533	0.136881
589.04	300	3.933	90.9995	0.101526
590.04	300	3.932	90.9764	0.0900261
591.04	300	3.931	90.9533	0.0765891
592.04	300	3.93	90.9301	0.0569673
593.04	300	3.93	90.9301	0.0203024
594.04	300	3.929	90.907	-0.000151077
595.04	300	3.929	90.907	0.00851129
596.04	300	3.928	90.8839	0.0176431
597.04	300	3.93	90.9301	0.0078509
598.04	300	3.928	90.8839	0.0312856
599.04	300	3.928	90.8839	0.0663936
600.04	300	3.928	90.8839	0.0611878
601.04	300	3.928	90.8839	0.0961153
602.04	300	3.927	90.8607	0.145115
603.04	300	3.925	90.8144	0.133823
604.04	300	3.927	90.8607	0.0667336
605.04	300	3.926	90.8376	-0.0214515
606.04	300	3.926	90.8376	-0.0737799
607.04	300	3.926	90.8376	-0.100301
608.04	300	3.923	90.7682	-0.0918854
609.04	300	3.927	90.8607	-0.06457
610.04	300	3.928	90.8839	-0.00751412
611.04	300	3.926	90.8376	0.0493208
612.04	300	3.923	90.7682	0.115934
613.04	300	3.926	90.8376	0.116194
614.04	300	3.924	90.7913	0.097668
615.04	300	3.925	90.8144	0.0768105
616.04	300	3.923	90.7682	0.0763811
617.04	300	3.922	90.745	0.0841445
618.04	300	3.921	90.7219	0.122644
619.04	300	3.92	90.6988	0.13352
620.04	300	3.921	90.7219	0.143712
621.04	300	3.921	90.7219	0.148876
622.04	300	3.921	90.7219	0.137344
623.04	300	3.92	90.6988	0.0945568
624.04	300	3.92	90.6988	0.0293461
625.04	300	3.919	90.6756	0.03781
626.04	300	3.919	90.6756	0.0205966
627.04	300	3.919	90.6756	0.0439115
628.04	300	3.919	90.6756	0.116677
629.04	300	3.914	90.5599	0.172703
630.04	300	3.917	90.6293	0.1405
631.04	300	3.918	90.6525	0.0399017
632.04	300	3.918	90.6525	-0.0351232
633.04	300	3.919	90.6756	-0.123456
634.04	300	3.917	90.6293	-0.148243
635.04	300	3.917	90.6293	-0.0908265
636.04	300	3.916	90.6062	-0.0569086
637.04	300	3.919	90.6756	-0.00462449
638.04	300	3.916	90.6062	0.0142816
639.04	300	3.917	90.6293	0.0349095
640.04	300	3.915	90.5831	0.0604274
641.04	300	3.916	90.6062	0.0659369
642.04	300	3.916	90.6062	0.0769731
643.04	300	3.916	90.6062	0.091907
644.04	300	3.913	90.5368	0.135941
645.04	300	3.912	90.5137	0.143013
646.04	300	3.912	90.5137	0.137348
647.04	300	3.912	90.5137	0.120431
648.04	300	3.912	90.5137	0.092301
649.04	300	3.911	90.4905	0.0561286
650.04	300	3.911	90.4905	-0.0317873
651.04	300	3.91	90.4674	-0.149468
652.04	300	3.909	90.4442	-0.182843
653.04	300	3.91	90.4674	-0.167376
654.04	300	3.91	90.4674	-0.126152
655.04	300	3.908	90.4211	-0.118272
656.04	300	3.908	90.4211	-0.0952611
657.04	300	3.908	90.4211	-0.0682391
658.04	300	3.909	90.4442	-0.0591632
659.04	300	3.908	90.4211	-0.0307298
660.04	300	3.906	90.3748	-0.0617618
661.04	300	3.905	90.3517	-0.0934836
662.04	300	3.904	90.3286	-0.121432
663.04	300	3.906	90.3748	-0.132973
664.04	300	3.905	90.3517	-0.129881
665.04	300	3.905	90.3517	-0.133998
666.04	300	3.905	90.3517	-0.12142
667.04	300	3.899	90.2129	-0.102621
668.04	300	3.903	90.3054	-0.0700862
669.04	300	3.903	90.3054	-0.0464752
670.04	300	3.903	90.3054	0.0072073
671.04	300	3.902	90.2823	0.0307452
672.04	300	3.902	90.2823	0.0525721
673.04	300	3.902	90.2823	0.0599098
674.04	300	3.901	90.2591	0.0591324
675.04	300	3.901	90.2591	0.0600356
676.04	300	3.901	90.2591	0.0588299
677.04	300	3.899	90.2129	0.0402834
678.04	300	3.898	90.1897	0.0323741
679.04	300	3.9	90.236	0.0206486
680.04	300	3.9	90.236	0.0169871
681.04	300	3.898	90.1897	0.00623927
682.04	300	3.899	90.2129	-0.0123914
683.04	300	3.901	90.2591	-0.0114423
684.04	300	3.895	90.1203	-0.0087333
685.04	300	3.897	90.1666	0.00862723
686.04	300	3.896	90.1435	0.0420182
687.04	300	3.901	90.2591	0.0477416
688.04	300	3.894	90.0972	0.0786332
689.04	300	3.897	90.1666	0.106463
690.04	300	3.897	90.1666	0.0947037
691.04	300	3.899	90.2129	0.0902907
692.04	300	3.899	90.2129	0.0341853
693.04	300	3.896	90.1435	-0.00447813
694.04	300	3.895	90.1203	-0.0951838
695.04	300	3.896	90.1435	-0.142109
696.04	300	3.895	90.1203	-0.177748
697.04	300	3.895	90.1203	-0.178092
698.04	300	3.894	90.0972	-0.190922
699.04	300	3.893	90.074	-0.193593
700.04	300	3.893	90.074	-0.19417
701.04	300	3.897	90.1666	-0.198134
702.04	300	3.895	90.1203	-0.199444
703.04	300	3.892	90.0509	-0.19495
704.04	300	3.892	90.0509	-0.197913
705.04	300	3.892	90.0509	-0.18933
706.04	300	3.89	90.0046	-0.163524
707.04	300	3.889	89.9815	-0.116106
708.04	300	3.889	89.9815	-0.0357074
709.04	300	3.89	90.0046	0.00952953
710.04	300	3.891	90.0278	0.0341291
711.04	300	3.89	90.0046	0.0980802
712.04	300	3.889	89.9815	0.0940874
713.04	300	3.889	89.9815	0.145427
714.04	300	3.89	90.0046	0.13413
715.04	300	3.89	90.0046	0.117053
716.04	300	3.889	89.9815	0.103618
717.04	300	3.887	89.9352	0.101147
718.04	300	3.889	89.9815	0.112191
719.04	300	3.887	89.9352	0.110541
720.04	300	3.889	89.9815	0.0988957
721.04	300	3.888	89.9584	0.0959051
722.04	300	3.888	89.9584	0.0937978
723.04	300	3.887	89.9352	0.0758571
724.04	300	3.888	89.9584	0.0512296
725.04	300	3.887	89.9352	0.0281766
726.04	300	3.885	89.8889	-0.00958395
727.04	300	3.887	89.9352	-0.0452144
728.04	300	3.887	89.9352	-0.0571818
729.04	300	3.887	89.9352	-0.0663402
730.04	300	3.89	90.0046	-0.0481975
731.04	300	3.888	89.9584	-0.0293512
732.04	300	3.885	89.8889	0.0067662
733.04	300	3.886	89.9121	0.055455
734.04	300	3.886	89.9121	0.0854575
735.04	300	3.882	89.8195	0.102358
736.04	300	3.887	89.9352	0.105619
737.04	300	3.885	89.8889	0.101374
738.04	300	3.885	89.8889	0.132795
739.04	300	3.884	89.8658	0.106313
740.04	300	3.883	89.8427	0.068171
741.04	300	3.881	89.7964	0.0220181
742.04	300	3.883	89.8427	0.0134794
743.04	300	3.884	89.8658	-0.0308347
744.04	300	3.883	89.8427	-0.053804
745.04	300	3.883	89.8427	-0.0671344
746.04	300	3.881	89.7964	-0.0503971
747.04	300	3.883	89.8427	-0.033402
748.04	300	3.881	89.7964	-0.0299853
749.04	300	3.885	89.8889	0.00630937
750.04	300	3.88	89.7733	0.00591565
751.04	300	3.882	89.8195	0.0118419
752.04	300	3.881	89.7964	0.0297084
753.04	300	3.882	89.8195	0.0488928
754.04	300	3.878	89.727	0.0608073
755.04	300	3.881	89.7964	0.0733187
756.04	300	3.88	89.7733	0.0577284
757.04	300	3.878	89.727	0.0773825
758.04	300	3.874	89.6344	0.0837112
759.04	300	3.879	89.7501	0.093316
760.04	300	3.879	89.7501	0.0916309
761.04	300	3.88	89.7733	0.0888245
762.04	300	3.879	89.7501	0.0886598
763.04	300	3.877	89.7038	0.0957701
764.04	300	3.878	89.727	0.0465413
765.04	300	3.881	89.7964	0.0249764
766.04	300	3.875	89.6576	0.0277022
767.04	300	3.878	89.727	0.0224867
768.04	300	3.877	89.7038	0.00930264
769.04	300	3.877	89.7038	0.00777763
770.04	300	3.876	89.6807	0.00490147
771.04	300	3.875	89.6576	-0.0126289
772.04	300	3.877	89.7038	-0.0188812
773.04	300	3.876	89.6807	-0.0115737
774.04	300	3.876	89.6807	0.00429844
775.04	300	3.874	89.6344	0.0517039
776.04	300	3.875	89.6576	0.0823342
777.04	300	3.877	89.7038	0.112044
778.04	300	3.875	89.6576	0.1346
779.04	300	3.873	89.6113	0.129113
780.04	300	3.874	89.6344	0.122664
781.04	300	3.873	89.6113	0.145375
782.04	300	3.876	89.6807	0.135072
783.04	300	3.874	89.6344	0.133868
784.04	300	3.873	89.6113	0.125466
785.04	300	3.871	89.565	0.109563
786.04	300	3.871	89.565	0.0882291
787.04	300	3.871	89.565	0.0614881
788.04	300	3.875	89.6576	0.0265569
789.04	300	3.871	89.565	-0.0117209
790.04	300	3.871	89.565	-0.0783636
791.04	300	3.871	89.565	-0.0860153
792.04	300	3.87	89.5419	-0.0937372
793.04	300	3.871	89.565	-0.0999072
794.04	300	3.87	89.5419	-0.0950814
795.04	300	3.871	89.565	-0.0447364
796.04	300	3.868	89.4956	-0.0627126
797.04	300	3.867	89.4725	-0.0729119
798.04	300	3.87	89.5419	-0.0218109
799.04	300	3.865	89.4262	0.0123122
800.04	300	3.867	89.4725	0.0972077
801.04	300	3.868	89.4956	0.164882
802.04	300	3.867	89.4725	0.17576
803.04	300	3.867	89.4725	0.184881
804.04	300	3.867	89.4725	0.175938
805.04	300	3.865	89.4262	0.165982
806.04	300	3.866	89.4493	0.153955
807.04	300	3.867	89.4725	0.159539
808.04	300	3.865	89.4262	0.118333
809.04	300	3.864	89.4031	0.0738079
810.04	300	3.865	89.4262	0.0375685
811.04	300	3.866	89.4493	0.0359973
812.04	300	3.865	89.4262	0.0542889
813.04	300	3.862	89.3568	0.0126872
814.04	300	3.866	89.4493	-0.0162625
815.04	300	3.863	89.3799	-0.0405659
816.04	300	3.862	89.3568	-0.0669916
817.04	300	3.862	89.3568	-0.0329308
818.04	300	3.865	89.4262	-0.00388489
819.04	300	3.861	89.3336	0.0722743
820.04	300	3.861	89.3336	0.113387
821.04	300	3.861	89.3336	0.135828
822.04	300	3.861	89.3336	0.151514
823.04	300	3.863	89.3799	0.150281
824.04	300	3.861	89.3336	0.151728
825.04	300	3.861	89.3336	0.137312
826.04	300	3.861	89.3336	0.129334
827.04	300	3.858	89.2642	0.100082
828.04	300	3.861	89.3336	0.0624936
829.04	300	3.858	89.2642	0.0226758
830.04	300	3.857	89.2411	-0.0129161
831.04	300	3.859	89.2874	-0.0377744
832.04	300	3.857	89.2411	-0.0650658
833.04	300	3.859	89.2874	-0.124595
834.04	300	3.858	89.2642	-0.123209
835.04	300	3.858	89.2642	-0.128251
836.04	300	3.855	89.1948	-0.134817
837.04	300	3.854	89.1717	-0.137451
838.04	300	3.856	89.218	-0.154382
839.04	300	3.855	89.1948	-0.177588
840.04	300	3.853	89.1485	-0.179444
841.04	300	3.853	89.1485	-0.169115
842.04	300	3.854	89.1717	-0.167032
843.04	300	3.851	89.1023	-0.123576
844.04	300	3.853	89.1485	-0.088548
845.04	300	3.853	89.1485	-0.0860616
846.04	300	3.853	89.1485	-0.0433365
847.04	300	3.851	89.1023	-0.00836369
848.04	300	3.853	89.1485	0.0127281
849.04	300	3.851	89.1023	0.0350759
850.04	300	3.85	89.0791	0.053695
851.04	300	3.852	89.1254	0.09535
852.04	300	3.85	89.0791	0.131114
853.04	300	3.85	89.0791	0.135963
854.04	300	3.85	89.0791	0.139562
855.04	300	3.848	89.0329	0.139591
856.04	300	3.85	89.0791	0.152968
857.04	300	3.85	89.0791	0.148328
858.04	300	3.849	89.056	0.169527
859.04	300	3.85	89.0791	0.166868
860.04	300	3.848	89.0329	0.150473
861.04	300	3.847	89.0097	0.134903
862.04	300	3.848	89.0329	0.097843
863.04	300	3.847	89.0097	0.0935405
864.04	300	3.846	88.9866	0.0703562
865.04	300	3.848	89.0329	0.0236659
866.04	300	3.846	88.9866	-0.040337
867.04	300	3.846	88.9866	-0.112564
868.04	300	3.845	88.9634	-0.178271
869.04	300	3.847	89.0097	-0.170521
870.04	300	3.845	88.9634	-0.140957
871.04	300	3.844	88.9403	-0.0967786
872.04	300	3.845	88.9634	-0.0991816
873.04	300	3.841	88.8709	-0.0998101
874.04	300	3.845	88.9634	-0.0895066
875.04	300	3.84	88.8478	-0.0818176
876.04	300	3.842	88.894	-0.0824823
877.04	300	3.84	88.8478	-0.0541715
878.04	300	3.84	88.8478	-0.0535794
879.04	300	3.84	88.8478	-0.0630586
880.04	300	3.841	88.8709	-0.0386043
881.04	300	3.837	88.7783	-0.0226083
882.04	300	3.837	88.7783	-0.0259575
883.04	300	3.838	88.8015	-0.0270744
884.04	300	3.839	88.8246	0.00308163
885.04	300	3.836	88.7552	0.00199282
886.04	300	3.839	88.8246	0.0087816
887.04	300	3.834	88.7089	0.08424
888.04	300	3.836	88.7552	0.165774
889.04	300	3.836	88.7552	0.128626
890.04	300	3.836	88.7552	0.0373116
891.04	300	3.835	88.7321	-0.043163
892.04	300	3.834	88.7089	-0.0585516
893.04	300	3.834	88.7089	-0.0146512
894.04	300	3.834	88.7089	0.0647433
895.04	300	3.834	88.7089	0.0749559
896.04	300	3.833	88.6858	0.0758176
897.04	300	3.832	88.6627	0.0998577
898.04	300	3.832	88.6627	0.118417
899.04	300	3.832	88.6627	0.119333
900.04	300	3.832	88.6627	0.117488
901.04	300	3.831	88.6395	0.106263
902.04	300	3.829	88.5932	0.0785707
903.04	300	3.833	88.6858	0.0622795
904.04	300	3.83	88.6164	0.0512859
905.04	300	3.831	88.6395	0.0337058
906.04	300	3.833	88.6858	-0.00956698
907.04	300	3.834	88.7089	-0.0560277
908.04	300	3.831	88.6395	-0.093705
909.04	300	3.83	88.6164	-0.117648
910.04	300	3.829	88.5932	-0.141747
911.04	300	3.83	88.6164	-0.154842
912.04	300	3.831	88.6395	-0.124999
913.04	300	3.831	88.6395	-0.0798727
914.04	300	3.83	88.6164	0.0429704
915.04	300	3.828	88.5701	0.118264
916.04	300	3.828	88.5701	0.158956
917.04	300	3.826	88.5238	0.157959
918.04	300	3.829	88.5932	0.115759
919.04	300	3.827	88.547	0.0919492
920.04	300	3.823	88.4544	0.0844978
921.04	300	3.828	88.5701	0.0539909
922.04	300	3.825	88.5007	0.0394567
923.04	300	3.825	88.5007	0.0135786
924.04	300	3.826	88.5238	-0.00504645
925.04	300	3.826	88.5238	-0.0346464
926.04	300	3.822	88.4313	-0.0506614
927.04	300	3.826	88.5238	-0.0550221
928.04	300	3.824	88.4776	-0.0557206
929.04	300	3.821	88.4081	-0.0409468
930.04	300	3.82	88.385	-0.0232659
931.04	300	3.823	88.4544	0.020337
932.04	300	3.824	88.4776	0.0710459
933.04	300	3.825	88.5007	0.159563
934.04	300	3.822	88.4313	0.155802
935.04	300	3.825	88.5007	0.143928
936.04	300	3.826	88.5238	0.167207
937.04	300	3.82	88.385	0.176017
938.04	300	3.822	88.4313	0.168982
939.04	300	3.821	88.4081	0.160908
940.04	300	3.819	88.3619	0.16249
941.04	300	3.82	88.385	0.175089
942.04	300	3.821	88.4081	0.168394
943.04	300	3.819	88.3619	0.152464
944.04	300	3.819	88.3619	0.147594
945.04	300	3.82	88.385	0.166338
946.04	300	3.818	88.3387	0.174406
947.04	300	3.817	88.3156	0.186074
948.04	300	3.819	88.3619	0.216991
949.04	300	3.817	88.3156	0.191793
950.04	300	3.817	88.3156	0.17917
951.04	300	3.821	88.4081	0.181828
952.04	300	3.818	88.3387	0.195115
953.04	300	3.816	88.2925	0.199321
954.04	300	3.819	88.3619	0.191767
955.04	300	3.817	88.3156	0.139153
956.04	300	3.817	88.3156	0.118882
957.04	300	3.816	88.2925	0.0361618
958.04	300	3.815	88.2693	0.0157473
959.04	300	3.814	88.2462	-0.0578077
960.04	300	3.812	88.1999	-0.0982791
961.04	300	3.815	88.2693	-0.131743
962.04	300	3.812	88.1999	-0.151788
963.04	300	3.814	88.2462	-0.182558
964.04	300	3.814	88.2462	-0.181251
965.04	300	3.812	88.1999	-0.17557
966.04	300	3.813	88.223	-0.210551
967.04	300	3.81	88.1536	-0.220444
968.04	300	3.812	88.1999	-0.220972
969.04	300	3.807	88.0842	-0.213467
970.04	300	3.806	88.0611	-0.182671
971.04	300	3.809	88.1305	-0.149311
972.04	300	3.809	88.1305	-0.123139
973.04	300	3.811	88.1768	-0.0345556
974.04	300	3.808	88.1074	0.0130038
975.04	300	3.809	88.1305	0.162184
976.04	300	3.808	88.1074	0.136396
977.04	300	3.807	88.0842	0.170089
978.04	300	3.805	88.0379	0.153074
979.04	300	3.805	88.0379	0.153191
980.04	300	3.808	88.1074	0.0886321
981.04	300	3.807	88.0842	0.10292
982.04	300	3.805	88.0379	0.11562
983.04	300	3.804	88.0148	0.113346
984.04	300	3.807	88.0842	0.08105
985.04	300	3.804	88.0148	0.108092
986.04	300	3.803	87.9917	0.130871
987.04	300	3.806	88.0611	0.13455
988.04	300	3.804	88.0148	0.124782
989.04	300	3.804	88.0148	0.119376
990.04	300	3.803	87.9917	0.122363
991.04	300	3.803	87.9917	0.116116
992.04	300	3.804	88.0148	0.120525
993.04	300	3.801	87.9454	0.132463
994.04	300	3.801	87.9454	0.138139
995.04	300	3.803	87.9917	0.129276
996.04	300	3.804	88.0148	0.121881
997.04	300	3.801	87.9454	0.0736339
998.04	300	3.801	87.9454	0.0311227
999.04	300	3.802	87.9685	-0.00895665
1000.04	300	3.8	87.9223	-0.0673065
1001.04	300	3.802	87.9685	-0.112698
1002.04	300	3.8	87.9223	-0.137482
1003.04	300	3.798	87.876	-0.153585
1004.04	300	3.803	87.9917	-0.165445
1005.04	300	3.8	87.9223	-0.16397
1006.04	300	3.799	87.8991	-0.169149
1007.04	300	3.795	87.8066	-0.177101
1008.04	300	3.793	87.7603	-0.155807
1009.04	300	3.795	87.8066	-0.120165
1010.04	300	3.797	87.8528	-0.123814
1011.04	300	3.796	87.8297	-0.0770417
1012.04	300	3.795	87.8066	0.00220173
1013.04	300	3.795	87.8066	0.19893
1014.04	300	3.794	87.7834	0.211837
1015.04	300	3.795	87.8066	0.193015
1016.04	300	3.796	87.8297	0.117786
1017.04	300	3.793	87.7603	-0.00231995
1018.04	300	3.793	87.7603	-0.0229027
1019.04	300	3.793	87.7603	-0.0533607
1020.04	300	3.791	87.714	-0.0305325
1021.04	300	3.793	87.7603	-0.0316527
1022.04	300	3.792	87.7372	0.00041732
1023.04	300	3.794	87.7834	-0.0104569
1024.04	300	3.791	87.714	-0.0209715
1025.04	300	3.79	87.6909	-0.00662314
1026.04	300	3.792	87.7372	-0.0151009
1027.04	300	3.791	87.714	-0.0536168
1028.04	300	3.792	87.7372	-0.0578798
1029.04	300	3.79	87.6909	-0.0144407
1030.04	300	3.788	87.6446	0.0705856
1031.04	300	3.789	87.6677	0.141822
1032.04	300	3.788	87.6446	0.193188
1033.04	300	3.788	87.6446	0.193646
1034.04	300	3.789	87.6677	0.114749
1035.04	300	3.79	87.6909	0.121129
1036.04	300	3.788	87.6446	0.121497
1037.04	300	3.788	87.6446	0.119967
1038.04	300	3.788	87.6446	0.112684
1039.04	300	3.786	87.5983	0.102841
1040.04	300	3.787	87.6215	0.0919539
1041.04	300	3.785	87.5752	0.0945436
1042.04	300	3.788	87.6446	0.0908112
1043.04	300	3.786	87.5983	0.100859
1044.04	300	3.786	87.5983	0.101849
1045.04	300	3.788	87.6446	0.0864912
1046.04	300	3.784	87.5521	0.0459341
1047.04	300	3.786	87.5983	0.0169425
1048.04	300	3.784	87.5521	-0.00766035
1049.04	300	3.786	87.5983	-0.0159945
1050.04	300	3.785	87.5752	-0.0328129
1051.04	300	3.783	87.5289	-0.0119416
1052.04	300	3.785	87.5752	-0.0345414
1053.04	300	3.782	87.5058	-0.0707919
1054.04	300	3.782	87.5058	-0.116282
1055.04	300	3.782	87.5058	-0.158473
1056.04	300	3.784	87.5521	-0.194649
1057.04	300	3.781	87.4826	-0.228141
1058.04	300	3.78	87.4595	-0.210409
1059.04	300	3.781	87.4826	-0.200537
1060.04	300	3.779	87.4364	-0.224935
1061.04	300	3.781	87.4826	-0.169812
1062.04	300	3.78	87.4595	-0.0831122
1063.04	300	3.779	87.4364	-0.115715
1064.04	300	3.779	87.4364	-0.108469
1065.04	300	3.779	87.4364	-0.0906035
1066.04	300	3.777	87.3901	-0.0422934
1067.04	300	3.78	87.4595	0.0209904
1068.04	300	3.777	87.3901	-0.0036328
1069.04	300	3.775	87.3438	-0.0583951
1070.04	300	3.776	87.367	-0.105932
1071.04	300	3.776	87.367	-0.0950983
1072.04	300	3.776	87.367	-0.071699
1073.04	300	3.777	87.3901	-0.0199594
1074.04	300	3.775	87.3438	0.0117806
1075.04	300	3.773	87.2975	0.0199132
1076.04	300	3.776	87.367	0.0145265
1077.04	300	3.773	87.2975	0.0612792
1078.04	300	3.773	87.2975	0.0903017
1079.04	300	3.774	87.3207	0.145474
1080.04	300	3.777	87.3901	0.15762
1081.04	300	3.779	87.4364	0.174913
1082.04	300	3.775	87.3438	0.166734
1083.04	300	3.772	87.27441	0.182929
1084.04	300	3.773	87.2975	0.193514
1085.04	300	3.772	87.27441	0.199869
1086.04	300	3.772	87.27441	0.214668
1087.04	300	3.772	87.27441	0.243339
1088.04	300	3.772	87.27441	0.206848
1089.04	300	3.771	87.2513	0.164736
1090.04	300	3.772	87.27441	0.147433
1091.04	300	3.772	87.27441	0.0342599
1092.04	300	3.77	87.2281	-0.0210277
1093.04	300	3.769	87.205	0.00163061
1094.04	300	3.771	87.2513	-0.00073691
1095.04	300	3.77	87.2281	0.00510001
1096.04	300	3.771	87.2513	-0.0496008
1097.04	300	3.77	87.2281	-0.0429376
1098.04	300	3.768	87.1819	-0.0756842
1099.04	300	3.768	87.1819	-0.0938461
1100.04	300	3.771	87.2513	-0.0852158
1101.04	300	3.767	87.1587	-0.0117623
1102.04	300	3.768	87.1819	-0.00682783
1103.04	300	3.767	87.1587	-0.034171
1104.04	300	3.767	87.1587	-0.0627505
1105.04	300	3.766	87.1356	-0.0532765
1106.04	300	3.769	87.205	-0.00624935
1107.04	300	3.766	87.1356	0.00802757
1108.04	300	3.765	87.1124	-0.0478574
1109.04	300	3.764	87.0893	-0.0852395
1110.04	300	3.765	87.1124	-0.0205521
1111.04	300	3.765	87.1124	-0.0249518
1112.04	300	3.765	87.1124	-0.00326447
1113.04	300	3.763	87.0662	0.00832688
1114.04	300	3.764	87.0893	0.0465809
1115.04	300	3.761	87.0199	0.059547
1116.04	300	3.764	87.0893	0.0450738
1117.04	300	3.762	87.043	0.0637715
1118.04	300	3.763	87.0662	0.11991
1119.04	300	3.76	86.9968	0.0980418
1120.04	300	3.762	87.043	0.0787344
1121.04	300	3.764	87.0893	0.0448995
1122.04	300	3.76	86.9968	0.0636491
1123.04	300	3.761	87.0199	0.126649
1124.04	300	3.761	87.0199	0.143245
1125.04	300	3.76	86.9968	0.164017
1126.04	300	3.758	86.9505	0.17351
1127.04	300	3.761	87.0199	0.167302
1128.04	300	3.76	86.9968	0.167327
1129.04	300	3.763	87.0662	0.15649
1130.04	300	3.759	86.9736	0.147662
1131.04	300	3.761	87.0199	0.151766
1132.04	300	3.757	86.9273	0.144342
1133.04	300	3.758	86.9505	0.13716
1134.04	300	3.758	86.9505	0.132827
1135.04	300	3.759	86.9736	0.128521
1136.04	300	3.757	86.9273	0.111317
1137.04	300	3.758	86.9505	0.109409
1138.04	300	3.76	86.9968	0.0792397
1139.04	300	3.758	86.9505	0.0484203
1140.04	300	3.76	86.9968	0.0260903
1141.04	300	3.758	86.9505	0.00798904
1142.04	300	3.757	86.9273	0.00993102
1143.04	300	3.757	86.9273	-0.0312604
1144.04	300	3.757	86.9273	-0.0667365
1145.04	300	3.756	86.9042	-0.0971142
1146.04	300	3.754	86.8579	-0.147746
1147.04	300	3.757	86.9273	-0.164523
1148.04	300	3.751	86.7885	-0.1916
1149.04	300	3.752	86.8117	-0.180708
1150.04	300	3.755	86.8811	-0.18554
1151.04	300	3.755	86.8811	-0.212625
1152.04	300	3.753	86.8348	-0.172408
1153.04	300	3.756	86.9042	-0.108975
1154.04	300	3.752	86.8117	-0.0460668
1155.04	300	3.752	86.8117	-0.0224065
1156.04	300	3.753	86.8348	0.0493018
1157.04	300	3.752	86.8117	0.0901536
1158.04	300	3.75	86.7654	0.152857
1159.04	300	3.751	86.7885	0.20983
1160.04	300	3.748	86.7191	0.176883
1161.04	300	3.75	86.7654	0.136496
1162.04	300	3.749	86.7422	0.119381
1163.04	300	3.75	86.7654	0.0738354
1164.04	300	3.749	86.7422	0.0502741
1165.04	300	3.748	86.7191	0.0144527
1166.04	300	3.748	86.7191	0.00462065
1167.04	300	3.748	86.7191	-0.0426212
1168.04	300	3.748	86.7191	-0.0761761
1169.04	300	3.749	86.7422	-0.0475537
1170.04	300	3.747	86.696	-0.0199523
1171.04	300	3.748	86.7191	0.0106692
1172.04	300	3.747	86.696	0.100537
1173.04	300	3.747	86.696	0.164919
1174.04	300	3.748	86.7191	0.181727
1175.04	300	3.746	86.6728	0.181022
1176.04	300	3.744	86.6266	0.18816
1177.04	300	3.746	86.6728	0.192701
1178.04	300	3.745	86.6497	0.203107
1179.04	300	3.744	86.6266	0.184996
1180.04	300	3.744	86.6266	0.169753
1181.04	300	3.746	86.6728	0.151811
1182.04	300	3.744	86.6266	0.154322
1183.04	300	3.744	86.6266	0.121482
1184.04	300	3.744	86.6266	0.0924579
1185.04	300	3.744	86.6266	0.0813263
1186.04	300	3.742	86.5803	0.0387248
1187.04	300	3.74	86.534	0.00127179
1188.04	300	3.741	86.5571	-0.127458
1189.04	300	3.744	86.6266	-0.180848
1190.04	300	3.741	86.5571	-0.201447
1191.04	300	3.743	86.6034	-0.228013
1192.04	300	3.74	86.534	-0.231269
1193.04	300	3.74	86.534	-0.241508
1194.04	300	3.74	86.534	-0.254423
1195.04	300	3.74	86.534	-0.250856
1196.04	300	3.739	86.5109	-0.127496
1197.04	300	3.738	86.4877	-0.0748255
1198.04	300	3.74	86.534	-0.053523
1199.04	300	3.738	86.4877	-0.0474413
1200.04	300	3.738	86.4877	-0.0413266
1201.04	300	3.74	86.534	-0.0519908
1202.04	300	3.74	86.534	-0.0392662
1203.04	300	3.738	86.4877	-0.0210764
1204.04	300	3.735	86.4183	0.0275524
1205.04	300	3.736	86.4415	0.0668696
1206.04	300	3.738	86.4877	0.0720497
1207.04	300	3.735	86.4183	0.0658861
1208.04	300	3.735	86.4183	0.0660505
1209.04	300	3.737	86.4646	0.0398232
1210.04	300	3.735	86.4183	-0.0102079
1211.04	300	3.736	86.4415	-0.0255306
1212.04	300	3.74	86.534	-0.02199
1213.04	300	3.734	86.3952	0.0106137
1214.04	300	3.733	86.372	0.0709009
1215.04	300	3.736	86.4415	0.0984832
1216.04	300	3.735	86.4183	0.10522
1217.04	300	3.736	86.4415	0.0924449
1218.04	300	3.735	86.4183	0.0870644
1219.04	300	3.735	86.4183	0.078797
1220.04	300	3.732	86.3489	0.0797822
1221.04	300	3.733	86.372	0.104549
1222.04	300	3.734	86.3952	0.0979605
1223.04	300	3.733	86.372	0.0962971
1224.04	300	3.731	86.3258	0.103455
1225.04	300	3.731	86.3258	0.10174
1226.04	300	3.735	86.4183	0.0992478
1227.04	300	3.731	86.3258	0.0933053
1228.04	300	3.732	86.3489	0.082242
1229.04	300	3.728	86.2564	0.0668481
1230.04	300	3.733	86.372	0.0561341
1231.04	300	3.734	86.3952	0.047494
1232.04	300	3.729	86.2795	0.00295461
1233.04	300	3.73	86.3026	-0.0464284
1234.04	300	3.733	86.372	-0.10103
1235.04	300	3.727	86.2332	-0.139357
1236.04	300	3.729	86.2795	-0.173944
1237.04	300	3.729	86.2795	-0.187363
1238.04	300	3.728	86.2564	-0.19972
1239.04	300	3.727	86.2332	-0.182442
1240.04	300	3.73	86.3026	-0.122815
1241.04	300	3.726	86.2101	-0.031135
1242.04	300	3.726	86.2101	0.0277886
1243.04	300	3.726	86.2101	0.0599045
1244.04	300	3.726	86.2101	0.0401293
1245.04	300	3.725	86.187	0.0799527
1246.04	300	3.728	86.2564	0.153861
1247.04	300	3.724	86.1638	0.191408
1248.04	300	3.724	86.1638	0.225884
1249.04	300	3.723	86.1407	0.165238
1250.04	300	3.724	86.1638	0.10402
1251.04	300	3.722	86.1175	0.0177351
1252.04	300	3.716	85.9787	-0.0286561
1253.04	300	3.722	86.1175	-0.082829
1254.04	300	3.721	86.0944	-0.109334
1255.04	300	3.721	86.0944	-0.0978892
1256.04	300	3.721	86.0944	-0.112379
1257.04	300	3.721	86.0944	-0.000407795
1258.04	300	3.716	85.9787	-2.86563E-05
1259.04	300	3.716	85.9787	-3.21005E-05
1260.04	300	3.72	86.0713	-2.41304E-05
1261.04	300	3.721	86.0944	-2.31863E-05
1262.04	300	3.716	85.9787	-2.74877E-05
1263.04	300	3.727	86.2332	-0.000038043
1264.04	300	3.718	86.025	-5.79582E-05
1265.04	300.53	3.717	86.0019	-9.65235E-05
1266.04	305.51	3.72	86.0713	-0.000168972
1267.04	313.96	3.721	86.0944	-0.000303154
1268.04	323.11	3.719	86.0481	-0.000542606
1269.04	332.41	3.719	86.0481	-0.000964934
1270.04	341.98	3.711	85.863	-0.0016728
1271.04	351.86	3.708	85.7936	-0.00269175
1272.04	361.96	3.697	85.5391	-0.00382613
1273.04	372.15	3.669	84.8913	-0.00483769
1274.04	382.36	3.614	83.6187	-0.00569745
1275.04	392.53	3.494	80.8422	-0.00638965
1276.04	402.64	3.259	75.4049	-0.00688146
1277.04	412.7	2.813	65.0856	-0.00717
1278.04	422.73	2.032	47.0153	-0.00725712
1279.04	432.77	1.009	23.3457	-0.00713983
1280.04	442.83	0.274	6.33966	-0.00681231
1281.04	452.84	0.067	1.55021	-0.00627516
1282.04	462.83	0.028	0.647848	-0.00553534
1283.04	472.86	0.015	0.347062	-0.00461217
1284.04	482.9	0.016	0.370199	-0.00354586
1285.04	492.94	0.017	0.393336	-0.00240939
1286.04	502.98	0.016	0.370199	-0.00134006
1287.04	513.01	0.016	0.370199	-0.000536526
1288.04	523.04	0.016	0.370199	-0.000140002
1289.04	533.06	0.018	0.416474	-3.60767E-05
1290.04	543.09	0.013	0.300787	-0.000016122
1291.04	553.11	0.013	0.300787	-0.000011219
1292.04	563.14	0.012	0.277649	-1.16118E-05
1293.04	573.16	0.011	0.2545118	-1.16548E-05
1294.04	583.19	0.013	0.300787	-1.05811E-05
1295.04	593.22	0.011	0.2545118	-9.36936E-06
1296.04	603.24	0.01	0.231374	-6.21349E-06
1297.04	613.25	0.006	0.138825	-4.54932E-06
1298.04	623.27	0.008	0.185099	-3.02778E-06
1299.04	633.29	0.011	0.2545118	-1.62874E-06
1300.04	643.3	0.006	0.138825	1.13334E-07
1301.04	653.32	0.011	0.2545118	1.94026E-06
1302.04	663.34	0.006	0.138825	4.8056E-06
1303.04	673.35	0.011	0.2545118	7.80166E-06
1304.04	683.37	0.016	0.370199	1.03142E-05
1305.04	693.39	0.011	0.2545118	1.26173E-05
1306.04	703.41	0.011	0.2545118	0.000014854
1307.04	713.42	0.006	0.138825	1.56438E-05
1308.04	723.44	0.016	0.370199	1.73197E-05
1309.04	733.45	0.012	0.277649	1.77184E-05
1310.04	743.46	0.015	0.347062	0.00001847
1311.04	753.48	0.018	0.416474	1.85524E-05
1312.04	763.49	0.023	0.532161	2.11673E-05
1313.04	773.5	0.019	0.439611	2.62506E-05
1314.04	783.51	0.016	0.370199	3.06048E-05
1314.38	786.85	0.024	0.555298	3.19638E-05