File: data/TGA/005d-L_M/styrofoam_000001 -temp_104 AMU_XIC
Time	Ion Current
min	mA
0.00	5.08597e-5
0.97	8.78169e-5
1.94	5.28292e-5
2.91	2.35183e-5
3.88	3.91585e-5
4.85	7.18292e-5
5.82	3.26707e-5
6.79	3.63780e-5
7.76	2.73414e-5
8.73	4.98170e-5
9.70	3.05853e-5
10.67	2.78048e-5
11.64	9.61584e-6
12.61	3.30182e-5
13.58	3.68414e-5
14.55	4.11280e-5
15.52	3.46402e-5
16.49	4.48353e-5
17.46	5.30609e-5
18.43	2.59512e-5
19.40	2.34024e-5
20.37	3.59146e-5
21.34	2.47926e-5
22.31	8.34145e-6
23.28	9.49998e-6
24.25	1.77256e-5
25.22	4.34451e-5
26.19	1.00000e-13
27.16	4.39085e-5
28.13	1.00000e-13
29.10	3.33658e-5
30.07	2.79207e-5
31.04	1.23963e-5
32.01	6.71950e-6
32.98	1.00000e-13
33.95	3.31341e-5
34.92	2.22439e-5
35.89	1.34390e-5
36.86	1.00000e-13
37.83	4.52987e-5
38.80	1.10061e-5
39.77	1.00000e-13
40.74	1.00000e-13
41.71	1.01951e-5
42.68	1.69146e-5
43.65	4.98170e-6
44.62	1.21646e-5
45.59	2.17805e-5
46.56	1.00000e-13
47.53	7.76218e-6
48.50	2.54878e-6
49.47	1.00000e-13
50.44	8.68901e-6
51.41	1.00000e-13
52.38	1.00000e-13
53.35	3.34817e-5
54.32	6.14023e-6
55.29	1.50610e-5
56.26	1.00000e-13
57.23	8.34145e-6
58.20	3.70731e-6
59.17	1.00000e-13
60.14	1.00000e-13
61.11	1.15853e-6
62.08	1.00000e-13
63.05	2.34024e-5
64.02	1.00000e-13
64.99	1.00000e-13
65.96	1.00000e-13
66.93	1.00000e-13
67.90	1.00000e-13
68.87	1.00000e-13
69.84	1.00000e-13
70.81	1.13536e-5
71.78	1.00000e-13
72.75	2.31707e-7
73.72	1.00000e-13
74.69	2.20122e-6
75.66	1.00000e-13
76.63	2.01585e-5
77.60	1.00000e-13
78.57	1.45975e-5
79.54	3.59146e-5
80.51	1.83048e-5
81.48	1.00000e-13
82.45	9.26828e-7
83.42	1.00000e-13
84.39	1.00000e-13
85.36	1.00000e-13
86.33	1.00000e-13
87.30	1.00000e-13
88.27	1.00000e-13
89.24	1.00000e-13
90.21	1.00000e-13
91.18	1.00000e-13
92.15	2.66463e-5
93.12	1.58719e-5
94.09	1.00000e-13
95.06	1.00000e-13
96.03	1.00000e-13
97.00	9.96340e-6
97.97	1.59878e-5
98.94	1.79573e-5
99.91	1.00000e-13
100.88	3.99694e-5
101.85	1.66829e-5
102.82	1.15853e-6
103.79	1.00000e-13
104.76	1.00000e-13
105.73	3.45243e-5
106.70	1.00000e-13
107.67	1.00000e-13
108.64	4.28658e-6
109.61	1.00000e-13
110.58	1.00000e-13
111.55	1.00000e-13
112.52	3.01219e-6
113.49	1.00000e-13
114.46	1.00000e-13
115.43	1.00000e-13
116.40	7.87804e-6
117.37	1.00000e-13
118.34	1.00000e-13
119.31	1.00000e-13
120.28	1.00000e-13
121.25	2.61829e-5
122.22	1.00000e-13
123.19	1.00000e-13
124.16	1.47134e-5
125.13	1.00000e-13
126.10	1.00000e-13
127.07	1.00000e-13
128.04	1.00000e-13
129.00	1.00000e-13
129.98	1.00000e-13
130.94	1.00000e-13
131.92	5.67682e-6
132.89	2.08536e-5
133.85	3.26707e-5
134.83	7.18292e-6
135.79	1.00000e-13
136.77	1.00000e-13
137.73	1.00000e-13
138.70	1.00000e-13
139.67	1.30914e-5
140.65	1.00000e-13
141.62	1.00000e-13
142.59	2.10853e-5
143.56	1.35549e-5
144.53	1.00000e-13
145.49	1.00000e-13
146.46	1.00000e-13
147.43	2.16646e-5
148.41	1.00000e-13
149.37	1.00000e-13
150.35	1.00000e-13
151.31	1.00000e-13
152.29	1.00000e-13
153.25	1.00000e-13
154.23	1.00000e-13
155.19	1.00000e-13
156.17	1.00000e-13
157.14	7.99389e-6
158.11	1.00000e-13
159.07	1.00000e-13
160.04	1.00000e-13
161.02	3.49877e-5
161.98	1.00000e-13
162.95	1.00793e-5
163.92	1.00000e-13
164.90	1.00000e-13
165.86	1.00000e-13
166.83	1.00000e-13
167.80	1.00000e-13
168.77	2.31707e-7
169.74	6.48779e-6
170.71	1.00000e-13
171.68	1.00000e-13
172.65	1.35549e-5
173.63	7.41462e-6
174.59	2.02744e-5
175.56	1.00000e-13
176.53	1.00000e-13
177.50	1.00000e-13
178.47	1.00000e-13
179.44	2.34024e-5
180.41	2.43292e-6
181.39	3.82316e-6
182.35	1.00000e-13
183.32	1.00000e-13
184.29	1.00000e-13
185.27	2.25914e-5
186.24	1.00000e-13
187.20	1.00000e-13
188.17	1.00000e-13
189.15	6.37194e-6
190.11	1.00000e-13
191.09	6.71950e-6
192.05	1.04268e-6
193.02	1.00000e-13
193.99	1.00000e-13
194.96	1.00000e-13
195.93	1.00000e-13
196.91	1.00000e-13
197.87	1.00000e-13
198.84	1.64512e-5
199.81	1.00000e-13
200.78	1.00000e-13
201.75	5.79267e-7
202.73	1.00000e-13
203.69	1.00000e-13
204.66	1.00000e-13
205.64	1.00000e-13
206.60	1.00000e-13
207.57	1.00000e-13
208.54	1.00000e-13
209.51	1.00000e-13
210.48	1.00000e-13
211.46	1.00000e-13
212.42	1.00000e-13
213.39	1.00000e-13
214.36	1.00000e-13
215.33	1.00000e-13
216.30	7.06706e-6
217.27	1.00000e-13
218.24	2.14329e-5
219.21	1.00000e-13
220.18	1.00000e-13
221.15	1.00000e-13
222.12	1.00000e-13
223.09	1.00000e-13
224.06	1.00000e-13
225.03	1.00000e-13
226.00	1.00000e-13
226.97	1.00000e-13
227.94	2.29390e-5
228.91	1.00000e-13
229.88	1.00000e-13
230.85	1.00000e-13
231.82	1.00000e-13
232.79	1.00000e-13
233.76	1.00000e-13
234.73	1.00000e-13
235.70	2.54878e-6
236.67	1.86524e-5
237.64	1.00000e-13
238.61	1.00000e-13
239.58	1.00000e-13
240.55	1.00000e-13
241.52	1.00000e-13
242.49	1.00000e-13
243.46	1.00000e-13
244.43	1.00000e-13
245.40	1.00000e-13
246.37	1.00000e-13
247.34	1.00000e-13
248.31	1.00000e-13
249.28	1.00000e-13
250.25	3.47560e-7
251.22	1.00000e-13
252.19	1.00000e-13
253.16	1.00000e-13
254.13	1.00000e-13
255.10	1.00000e-13
256.07	1.00000e-13
257.04	1.00000e-13
258.01	1.00000e-13
258.98	1.00000e-13
259.95	3.12804e-6
260.92	1.00000e-13
261.89	1.00000e-13
262.86	1.00000e-13
263.83	1.00000e-13
264.80	7.64633e-6
265.77	7.87804e-6
266.74	3.35975e-6
267.71	1.00000e-13
268.68	3.70731e-6
269.65	1.17012e-5
270.62	1.00000e-13
271.59	1.00000e-13
272.56	1.00000e-13
273.53	1.00000e-13
274.50	1.00000e-13
275.47	6.83536e-6
276.44	1.00000e-13
277.41	1.00000e-13
278.38	1.00000e-13
279.35	1.00000e-13
280.32	1.00000e-13
281.29	1.32073e-5
282.26	1.00000e-13
283.23	1.00000e-13
284.20	1.00000e-13
285.17	1.00000e-13
286.14	1.00000e-13
287.11	1.00000e-13
288.08	1.00000e-13
289.05	1.00000e-13
290.02	1.00000e-13
290.99	1.00000e-13
291.96	1.00000e-13
292.93	1.00000e-13
293.90	1.00000e-13
294.87	1.00000e-13
295.84	2.54878e-6
296.81	1.00000e-13
297.78	1.00000e-13
298.75	2.08536e-6
299.72	1.00000e-13
300.69	1.00000e-13
301.66	1.00000e-13
302.63	1.00000e-13
303.60	1.00000e-13
304.57	1.00000e-13
305.54	1.00000e-13
306.51	1.00000e-13
307.48	1.00000e-13
308.45	1.10061e-5
309.42	1.00000e-13
310.39	1.00000e-13
311.36	9.15242e-6
312.33	4.51829e-6
313.30	1.00000e-13
314.27	2.31707e-7
315.24	1.00000e-13
316.21	1.77256e-5
317.18	1.00000e-13
318.15	1.00000e-13
319.12	1.00000e-13
320.09	9.26828e-7
321.06	1.00000e-13
322.03	1.00000e-13
323.00	1.00000e-13
323.97	9.26828e-7
324.94	5.21341e-6
325.91	1.00000e-13
326.88	1.00000e-13
327.85	1.00000e-13
328.82	1.23963e-5
329.79	7.41462e-6
330.76	1.00000e-13
331.73	1.00000e-13
332.70	4.63414e-7
333.67	1.00000e-13
334.64	5.79267e-6
335.61	1.00000e-13
336.58	1.00000e-13
337.55	4.40243e-6
338.52	1.00000e-13
339.49	1.00000e-13
340.46	1.00000e-13
341.43	4.86585e-6
342.40	1.00000e-13
343.37	1.00000e-13
344.34	1.19329e-5
345.31	2.31707e-6
346.28	1.00000e-13
347.25	2.12012e-5
348.22	1.00000e-13
349.19	1.00000e-13
350.16	1.00000e-13
351.13	1.00000e-13
352.10	1.00000e-13
353.07	1.00000e-13
354.04	1.00000e-13
355.01	8.92072e-6
355.98	1.00000e-13
356.95	1.00000e-13
357.92	1.58719e-5
358.89	1.96951e-6
359.86	2.66463e-6
360.83	1.00000e-13
361.80	1.15853e-6
362.77	1.00000e-13
363.74	1.00000e-13
364.71	1.00000e-13
365.68	1.00000e-13
366.65	1.00000e-13
367.62	1.00000e-13
368.59	1.00000e-13
369.56	1.00000e-13
370.53	1.00000e-13
371.50	6.95121e-7
372.47	7.06706e-6
373.44	1.00000e-13
374.41	4.98170e-6
375.38	1.00000e-13
376.35	1.00000e-13
377.32	1.00000e-13
378.29	9.96340e-6
379.26	1.00000e-13
380.23	1.00000e-13
381.20	1.00000e-13
382.17	6.95121e-7
383.14	1.00000e-13
384.11	1.93475e-5
385.08	1.00000e-13
386.05	1.00000e-13
387.02	1.00000e-13
387.99	9.26828e-7
388.96	1.00000e-13
389.93	1.00000e-13
390.90	1.69146e-5
391.87	1.00000e-13
392.84	1.00000e-13
393.81	1.00000e-13
394.78	4.63414e-5
395.75	1.65670e-5
396.72	1.00000e-13
397.69	1.00000e-13
398.66	1.00000e-13
399.63	1.00000e-13
400.60	1.00000e-13
401.57	1.00000e-13
402.54	1.00000e-13
403.51	1.00000e-13
404.48	1.00000e-13
405.45	1.00000e-13
406.42	1.00000e-13
407.39	1.00000e-13
408.36	1.00000e-13
409.33	6.25609e-6
410.30	5.09755e-6
411.27	1.00000e-13
412.24	1.00000e-13
413.21	5.90853e-6
414.18	1.00000e-13
415.15	1.00000e-13
416.12	1.00000e-13
417.09	1.00000e-13
418.06	1.00000e-13
419.03	1.00000e-13
420.00	1.00000e-13
420.97	1.15853e-7
421.94	1.00000e-13
422.91	1.00000e-13
423.88	1.00000e-13
424.85	1.00000e-13
425.82	1.00000e-13
426.78	1.00000e-13
427.75	3.12804e-6
428.73	1.00000e-13
429.70	1.00000e-13
430.67	1.00000e-13
431.64	4.63414e-5
432.60	1.00000e-13
433.58	1.00000e-13
434.55	2.89634e-6
435.51	1.00000e-13
436.49	1.00000e-13
437.45	1.00000e-13
438.43	1.00000e-13
439.40	1.00000e-13
440.37	1.00000e-13
441.33	1.00000e-13
442.30	1.00000e-13
443.27	4.30975e-5
444.24	6.02438e-6
445.21	1.00000e-13
446.19	1.00000e-13
447.16	8.68901e-6
448.13	8.22560e-6
449.09	1.00000e-13
450.06	1.00000e-13
451.03	1.00000e-13
452.00	1.00000e-13
452.97	1.00000e-13
453.94	2.54878e-6
454.92	1.00000e-13
455.89	1.17012e-5
456.86	1.00000e-13
457.82	1.00000e-13
458.80	1.00000e-13
459.76	2.31707e-7
460.73	1.00000e-13
461.71	1.00000e-13
462.68	1.00000e-13
463.64	5.44511e-6
464.62	1.76097e-5
465.58	1.00000e-13
466.55	1.00000e-13
467.52	8.80486e-6
468.49	1.00000e-13
469.46	1.00000e-13
470.43	1.00000e-13
471.40	1.00000e-13
472.37	1.00000e-13
473.34	1.00000e-13
474.31	1.00000e-13
475.29	1.00000e-13
476.25	1.00000e-13
477.22	1.00000e-13
478.19	1.00000e-13
479.16	1.00000e-13
480.13	3.12804e-6
481.10	1.00000e-13
482.08	1.00000e-13
483.04	1.00000e-13
484.01	1.00000e-13
484.98	1.00000e-13
485.95	5.79267e-7
486.92	4.63414e-6
487.89	1.00000e-13
488.86	1.00000e-13
489.84	1.00000e-13
490.80	1.00000e-13
491.77	1.00000e-13
492.74	1.00000e-13
493.71	1.00000e-13
494.68	1.00000e-13
495.65	1.00000e-13
496.62	1.00000e-13
497.59	1.00000e-13
498.56	1.61036e-5
499.53	2.53719e-5
500.50	1.00000e-13
501.47	1.00000e-13
502.44	1.00000e-13
503.41	1.00000e-13
504.38	1.00000e-13
505.35	1.00000e-13
506.32	1.00000e-13
507.29	1.00000e-13
508.26	1.00000e-13
509.23	1.00000e-13
510.20	1.00000e-13
511.17	1.00000e-13
512.14	1.00000e-13
513.11	1.00000e-13
514.08	1.00000e-13
515.05	1.00000e-13
516.02	1.00000e-13
516.99	1.00000e-13
517.96	1.00000e-13
518.93	1.00000e-13
519.90	1.00000e-13
520.87	1.00000e-13
521.84	1.27439e-5
522.81	1.50610e-6
523.78	1.00000e-13
524.75	1.00000e-13
525.72	1.00000e-13
526.69	1.00000e-13
527.66	1.00000e-13
528.63	1.00000e-13
529.60	1.00000e-13
530.57	1.00000e-13
531.54	1.00000e-13
532.51	1.00000e-13
533.48	1.85366e-6
534.45	1.00000e-13
535.42	1.00000e-13
536.39	1.00000e-13
537.36	1.00000e-13
538.33	1.00000e-13
539.30	1.00000e-13
540.27	1.00000e-13
541.24	1.00000e-13
542.21	1.00000e-13
543.18	1.03110e-5
544.15	1.00000e-13
545.12	1.00000e-13
546.09	1.00000e-13
547.06	1.00000e-13
548.03	7.41462e-6
549.00	1.00000e-13
549.97	1.00000e-13
550.94	1.00000e-13
551.91	1.00000e-13
552.88	1.00000e-13
553.85	1.00000e-13
554.82	1.00000e-13
555.79	1.00000e-13
556.76	4.74999e-6
557.73	1.00000e-13
558.70	1.00000e-13
559.67	7.06706e-6
560.64	1.39024e-6
561.61	1.00000e-13
562.58	1.00000e-13
563.55	1.00000e-13
564.52	1.00000e-13
565.49	1.00000e-13
566.46	1.00000e-13
567.43	1.00000e-13
568.40	1.00000e-13
569.37	1.00000e-13
570.34	1.00000e-13
571.31	7.18292e-6
572.28	1.00000e-13
573.25	1.00000e-13
574.22	1.00000e-13
575.19	1.00000e-13
576.16	1.00000e-13
577.13	1.00000e-13
578.10	1.00000e-13
579.07	1.00000e-13
580.04	1.00000e-13
581.01	1.00000e-13
581.98	1.00000e-13
582.95	1.00000e-13
583.92	1.00000e-13
584.89	1.00000e-13
585.86	1.00000e-13
586.83	1.00000e-13
587.80	2.67622e-5
588.77	1.00000e-13
589.74	1.00000e-13
590.71	1.00000e-13
591.68	1.00000e-13
592.65	1.00000e-13
593.62	1.00000e-13
594.59	1.00000e-13
595.56	1.00000e-13
596.53	1.00000e-13
597.50	1.00000e-13
598.47	1.00000e-13
599.44	1.00000e-13
600.41	1.00000e-13
601.38	1.00000e-13
602.35	1.74939e-5
603.32	1.00000e-13
604.29	1.00000e-13
605.26	8.10974e-7
606.23	2.78048e-6
607.20	1.00000e-13
608.17	1.15853e-6
609.14	1.00000e-13
610.11	1.00000e-13
611.08	1.00000e-13
612.05	2.31707e-5
613.02	1.00000e-13
613.99	2.54878e-6
614.96	1.00000e-13
615.93	1.00000e-13
616.90	1.00000e-13
617.87	1.00000e-13
618.84	1.76097e-5
619.81	1.00000e-13
620.78	1.00000e-13
621.75	1.00000e-13
622.72	1.00000e-13
623.69	1.00000e-13
624.66	1.00000e-13
625.63	1.00000e-13
626.60	1.00000e-13
627.57	1.00000e-13
628.54	1.00000e-13
629.51	1.00000e-13
630.48	9.26828e-7
631.45	1.00000e-13
632.42	1.00000e-13
633.39	1.00000e-13
634.36	1.00000e-13
635.33	1.00000e-13
636.30	1.00000e-13
637.27	7.18292e-6
638.24	1.00000e-13
639.21	1.00000e-13
640.18	3.93902e-6
641.15	1.00000e-13
642.12	3.01219e-6
643.09	1.00000e-13
644.06	3.16280e-5
645.03	1.00000e-13
646.00	7.53048e-6
646.97	1.00000e-13
647.94	1.00000e-13
648.91	1.00000e-13
649.88	3.47560e-7
650.85	3.01219e-6
651.82	1.00000e-13
652.79	1.50610e-5
653.76	1.32073e-5
654.73	1.00000e-13
655.70	9.26828e-7
656.67	1.00000e-13
657.64	1.00000e-13
658.61	1.00000e-13
659.58	1.00000e-13
660.55	4.40243e-6
661.52	1.00000e-13
662.49	1.00000e-13
663.46	1.00000e-13
664.43	1.00000e-13
665.40	1.00000e-13
666.37	5.67682e-6
667.34	1.00000e-13
668.31	1.00000e-13
669.28	8.34145e-6
670.25	1.00000e-13
671.22	1.00000e-13
672.19	1.00000e-13
673.16	1.00000e-13
674.13	1.00000e-13
675.10	1.00000e-13
676.07	1.00000e-13
677.04	1.00000e-13
678.01	1.15853e-7
678.98	1.00000e-13
679.95	1.10061e-5
680.92	1.00000e-13
681.89	1.00000e-13
682.86	1.00000e-13
683.83	1.00000e-13
684.80	1.00000e-13
685.77	1.00000e-13
686.74	1.00000e-13
687.71	1.98109e-5
688.68	1.00000e-13
689.65	1.00000e-13
690.62	1.00000e-13
691.59	1.00000e-13
692.56	1.00000e-13
693.53	1.00000e-13
694.50	1.00000e-13
695.47	1.00000e-13
696.43	1.00000e-13
697.40	1.00000e-13
698.38	1.00000e-13
699.35	1.00000e-13
700.32	1.00000e-13
701.29	1.00000e-13
702.26	1.00000e-13
703.22	1.00000e-13
704.19	1.00000e-13
705.17	1.00000e-13
706.14	1.00000e-13
707.10	1.00000e-13
708.08	1.00000e-13
709.05	1.00000e-13
710.01	1.00000e-13
710.99	1.00000e-13
711.95	1.00000e-13
712.92	1.78414e-5
713.90	1.00000e-13
714.87	1.00000e-13
715.84	1.00000e-13
716.81	1.00000e-13
717.77	2.03902e-5
718.75	1.17012e-5
719.72	1.00000e-13
720.69	1.00000e-13
721.66	1.00000e-13
722.62	1.64512e-5
723.59	1.00000e-13
724.56	1.00000e-13
725.54	1.00000e-13
726.50	1.00000e-13
727.47	1.00000e-13
728.44	1.00000e-13
729.41	1.00000e-13
730.38	1.05427e-5
731.36	1.00000e-13
732.33	1.00000e-13
733.30	1.00000e-13
734.26	1.00000e-13
735.24	1.00000e-13
736.20	1.00000e-13
737.17	1.00000e-13
738.14	1.00000e-13
739.11	1.00000e-13
740.08	1.00000e-13
741.05	1.00000e-13
742.02	1.00000e-13
742.99	1.00000e-13
743.96	1.00000e-13
744.94	1.00000e-13
745.91	1.00000e-13
746.88	6.95121e-7
747.84	1.00000e-13
748.81	1.00000e-13
749.78	1.00000e-13
750.75	3.15121e-5
751.73	1.00000e-13
752.69	1.00000e-13
753.66	1.00000e-13
754.64	1.00000e-13
755.60	1.00000e-13
756.57	1.00000e-13
757.54	1.00000e-13
758.51	1.00000e-13
759.48	1.00000e-13
760.45	2.94268e-5
761.42	1.00000e-13
762.39	1.63353e-5
763.36	1.00000e-13
764.34	1.26280e-5
765.31	1.00000e-13
766.27	1.00000e-13
767.24	2.20122e-6
768.21	1.00000e-13
769.18	1.00000e-13
770.15	1.44817e-5
771.12	1.00000e-13
772.10	1.00000e-13
773.07	4.17073e-6
774.03	1.00000e-13
775.00	1.00000e-13
775.97	1.00000e-13
776.94	1.00000e-13
777.92	1.00000e-13
778.88	1.00000e-13
779.85	1.00000e-13
780.82	1.00000e-13
781.80	1.00000e-13
782.76	1.00000e-13
783.74	1.00000e-13
784.70	6.48779e-6
785.67	1.00000e-13
786.64	1.00000e-13
787.61	1.00000e-13
788.58	1.00000e-13
789.55	1.00000e-13
790.52	1.00000e-13
791.49	4.98170e-6
792.46	1.00000e-13
793.43	1.00000e-13
794.40	1.00000e-13
795.37	1.00000e-13
796.34	1.00000e-13
797.31	1.00000e-13
798.28	1.00000e-13
799.25	1.00000e-13
800.22	1.00000e-13
801.19	1.00000e-13
802.16	9.38413e-6
803.13	1.00000e-13
804.10	1.00000e-13
805.07	1.00000e-13
806.04	1.00000e-13
807.01	1.00000e-13
807.98	1.00000e-13
808.95	1.00000e-13
809.92	1.00000e-13
810.89	1.00000e-13
811.86	1.00000e-13
812.83	1.00000e-13
813.80	1.00000e-13
814.77	1.00000e-13
815.74	1.00000e-13
816.71	1.00000e-13
817.68	1.00000e-13
818.65	1.00000e-13
819.62	1.00000e-13
820.59	1.00000e-13
821.56	1.00000e-13
822.53	1.00000e-13
823.50	1.00000e-13
824.47	1.00000e-13
825.44	5.67682e-6
826.41	1.00000e-13
827.38	1.00000e-13
828.35	1.00000e-13
829.32	1.00000e-13
830.29	1.00000e-13
831.26	1.00000e-13
832.23	2.43292e-6
833.20	1.00000e-13
834.17	1.00000e-13
835.14	1.00000e-13
836.11	1.00000e-13
837.08	1.00000e-13
838.05	1.00000e-13
839.02	1.00000e-13
839.99	1.00000e-13
840.96	1.00000e-13
841.93	1.00000e-13
842.90	1.00000e-13
843.87	1.00000e-13
844.84	1.00000e-13
845.81	1.81890e-5
846.78	1.00000e-13
847.75	1.52927e-5
848.72	1.00000e-13
849.69	1.00000e-13
850.66	1.00000e-13
851.63	1.00000e-13
852.60	1.00000e-13
853.57	1.00000e-13
854.54	1.00000e-13
855.51	1.00000e-13
856.48	1.00000e-13
857.45	5.56097e-6
858.42	1.00000e-13
859.39	1.00000e-13
860.36	1.00000e-13
861.33	1.00000e-13
862.30	1.00000e-13
863.27	1.08902e-5
864.24	1.00000e-13
865.21	1.00000e-13
866.18	1.00000e-13
867.15	1.00000e-13
868.12	8.80486e-6
869.09	1.00000e-13
870.06	1.00000e-13
871.03	1.00000e-13
872.00	1.00000e-13
872.97	1.00000e-13
873.94	4.63414e-7
874.91	1.00000e-13
875.88	4.28658e-6
876.85	1.00000e-13
877.82	1.04268e-6
878.79	1.00000e-13
879.76	1.00000e-13
880.73	1.00000e-13
881.70	1.00000e-13
882.67	1.00000e-13
883.64	1.00000e-13
884.61	1.00000e-13
885.58	1.00000e-13
886.55	1.00000e-13
887.52	1.00000e-13
888.49	1.00000e-13
889.46	1.00000e-13
890.43	1.00000e-13
891.40	1.00000e-13
892.37	1.00000e-13
893.34	1.00000e-13
894.31	1.00000e-13
895.28	1.00000e-13
896.25	1.00000e-13
897.22	1.00000e-13
898.19	1.00000e-13
899.16	2.08536e-6
900.13	1.00000e-13
901.10	1.00000e-13
902.07	1.00000e-13
903.04	1.00000e-13
904.01	1.00000e-13
904.98	1.00000e-13
905.95	1.00000e-13
906.92	1.00000e-13
907.89	1.00000e-13
908.86	1.00000e-13
909.83	6.37194e-6
910.80	1.00000e-13
911.77	1.00000e-13
912.74	1.00000e-13
913.71	1.00000e-13
914.68	1.00000e-13
915.65	1.00000e-13
916.62	3.24390e-5
917.59	1.00000e-13
918.56	1.00000e-13
919.53	1.00000e-13
920.50	1.00000e-13
921.47	1.00000e-13
922.44	1.00000e-13
923.41	1.00000e-13
924.38	1.00000e-13
925.35	1.00000e-13
926.32	1.00000e-13
927.29	1.00000e-13
928.26	1.50610e-6
929.23	1.00000e-13
930.20	1.00000e-13
931.17	2.25914e-5
932.14	1.00000e-13
933.11	1.00000e-13
934.08	1.00000e-13
935.05	1.00000e-13
936.02	1.00000e-13
936.99	1.00000e-13
937.96	1.00000e-13
938.93	1.00000e-13
939.90	1.00000e-13
940.87	1.00000e-13
941.84	1.00000e-13
942.81	1.00000e-13
943.78	1.00000e-13
944.75	1.00000e-13
945.72	1.07744e-5
946.69	1.00000e-13
947.65	1.00000e-13
948.63	1.00000e-13
949.59	1.00000e-13
950.56	1.00000e-13
951.53	1.00000e-13
952.50	1.00000e-13
953.47	1.00000e-13
954.45	1.00000e-13
955.42	1.00000e-13
956.38	1.00000e-13
957.35	1.00000e-13
958.32	1.00000e-13
959.29	1.00000e-13
960.26	1.00000e-13
961.23	1.00000e-13
962.20	1.00000e-13
963.17	1.00000e-13
964.14	1.00000e-13
965.11	1.00000e-13
966.09	1.00000e-13
967.05	1.00000e-13
968.02	1.00000e-13
968.99	1.00000e-13
969.97	1.00000e-13
970.93	1.00000e-13
971.90	1.00000e-13
972.87	1.00000e-13
973.84	1.00000e-13
974.81	1.00000e-13
975.78	1.00000e-13
976.75	1.00000e-13
977.72	1.00000e-13
978.69	1.00000e-13
979.66	1.00000e-13
980.64	1.00000e-13
981.60	1.00000e-13
982.57	1.00000e-13
983.55	1.00000e-13
984.51	1.00000e-13
985.48	1.00000e-13
986.45	1.00000e-13
987.42	1.00000e-13
988.39	1.00000e-13
989.36	1.00000e-13
990.33	1.00000e-13
991.30	1.00000e-13
992.27	1.00000e-13
993.25	1.00000e-13
994.21	1.00000e-13
995.18	1.95792e-5
996.15	1.00000e-13
997.13	1.00000e-13
998.09	1.00000e-13
999.06	1.00000e-13
1000.03	1.00000e-13
1001.00	1.00000e-13
1001.97	1.00000e-13
1002.94	1.00000e-13
1003.91	1.00000e-13
1004.88	1.00000e-13
1005.85	1.00000e-13
1006.82	1.00000e-13
1007.79	1.00000e-13
1008.76	1.00000e-13
1009.73	1.00000e-13
1010.70	1.00000e-13
1011.67	1.00000e-13
1012.64	1.00000e-13
1013.61	1.00000e-13
1014.58	1.00000e-13
1015.55	1.00000e-13
1016.52	1.00000e-13
1017.49	1.00000e-13
1018.46	1.00000e-13
1019.43	1.00000e-13
1020.40	1.00000e-13
1021.37	1.00000e-13
1022.34	1.00000e-13
1023.31	1.00000e-13
1024.28	1.00000e-13
1025.25	1.00000e-13
1026.22	1.00000e-13
1027.19	1.00000e-13
1028.16	3.16280e-5
1029.13	1.00000e-13
1030.10	1.00000e-13
1031.07	1.00000e-13
1032.04	1.00000e-13
1033.01	1.00000e-13
1033.98	1.00000e-13
1034.95	1.00000e-13
1035.92	1.00000e-13
1036.89	1.00000e-13
1037.86	1.00000e-13
1038.83	1.00000e-13
1039.80	1.00000e-13
1040.77	1.00000e-13
1041.74	1.00000e-13
1042.71	1.00000e-13
1043.68	1.00000e-13
1044.65	1.00000e-13
1045.62	1.00000e-13
1046.59	1.00000e-13
1047.56	1.00000e-13
1048.53	1.00000e-13
1049.50	1.00000e-13
1050.47	1.00000e-13
1051.44	1.00000e-13
1052.41	1.00000e-13
1053.38	1.00000e-13
1054.35	1.00000e-13
1055.32	1.00000e-13
1056.29	1.00000e-13
1057.26	1.00000e-13
1058.23	1.00000e-13
1059.20	1.00000e-13
1060.17	1.00000e-13
1061.14	1.00000e-13
1062.11	1.00000e-13
1063.08	1.00000e-13
1064.05	1.00000e-13
1065.02	1.00000e-13
1065.99	1.00000e-13
1066.96	1.00000e-13
1067.93	1.00000e-13
1068.90	1.00000e-13
1069.87	1.00000e-13
1070.84	1.00000e-13
1071.81	1.00000e-13
1072.78	1.00000e-13
1073.75	1.00000e-13
1074.72	1.00000e-13
1075.69	1.00000e-13
1076.66	1.00000e-13
1077.63	1.00000e-13
1078.60	1.00000e-13
1079.57	1.00000e-13
1080.54	1.00000e-13
1081.51	1.00000e-13
1082.48	1.00000e-13
1083.45	1.00000e-13
1084.42	1.00000e-13
1085.39	1.00000e-13
1086.36	1.00000e-13
1087.33	1.00000e-13
1088.30	1.00000e-13
1089.27	1.00000e-13
1090.24	1.00000e-13
1091.21	1.00000e-13
1092.18	1.00000e-13
1093.15	1.00000e-13
1094.12	4.86585e-6
1095.09	1.00000e-13
1096.06	1.00000e-13
1097.03	1.00000e-13
1098.00	1.00000e-13
1098.97	1.00000e-13
1099.94	1.00000e-13
1100.91	1.00000e-13
1101.88	1.00000e-13
1102.85	1.00000e-13
1103.82	1.00000e-13
1104.79	2.54878e-6
1105.76	1.00000e-13
1106.73	1.00000e-13
1107.70	1.00000e-13
1108.67	1.00000e-13
1109.64	1.00000e-13
1110.61	1.00000e-13
1111.58	1.00000e-13
1112.55	1.00000e-13
1113.52	1.00000e-13
1114.49	1.00000e-13
1115.46	1.06585e-5
1116.43	1.00000e-13
1117.40	1.00000e-13
1118.37	1.00000e-13
1119.34	1.00000e-13
1120.31	1.00000e-13
1121.28	1.00000e-13
1122.25	1.00000e-13
1123.22	1.00000e-13
1124.19	1.00000e-13
1125.16	1.00000e-13
1126.13	1.00000e-13
1127.10	1.00000e-13
1128.07	1.00000e-13
1129.04	1.27439e-5
1130.01	1.00000e-13
1130.98	1.00000e-13
1131.95	1.00000e-13
1132.92	1.00000e-13
1133.89	1.00000e-13
1134.86	1.00000e-13
1135.83	1.00000e-13
1136.80	1.00000e-13
1137.77	1.00000e-13
1138.74	1.00000e-13
1139.71	1.00000e-13
1140.68	1.00000e-13
1141.65	1.00000e-13
1142.62	1.00000e-13
1143.59	1.00000e-13
1144.56	1.00000e-13
1145.53	1.00000e-13
1146.50	5.09755e-6
1147.47	1.00000e-13
1148.44	1.00000e-13
1149.41	1.00000e-13
1150.38	1.00000e-13
1151.35	1.00000e-13
1152.32	1.00000e-13
1153.29	1.00000e-13
1154.26	1.00000e-13
1155.23	6.25609e-6
1156.20	3.24390e-6
1157.17	1.00000e-13
1158.14	1.00000e-13
1159.11	1.00000e-13
1160.08	1.56402e-5
1161.05	1.00000e-13
1162.02	1.00000e-13
1162.99	1.00000e-13
1163.96	1.00000e-13
1164.93	2.20122e-6
1165.90	1.00000e-13
1166.87	1.00000e-13
1167.84	1.00000e-13
1168.81	1.00000e-13
1169.78	1.00000e-13
1170.75	1.00000e-13
1171.72	1.00000e-13
1172.69	1.00000e-13
1173.66	1.00000e-13
1174.63	1.00000e-13
1175.60	1.00000e-13
1176.57	1.00000e-13
1177.54	1.00000e-13
1178.51	1.00000e-13
1179.48	1.00000e-13
1180.45	1.00000e-13
1181.42	8.10974e-7
1182.39	1.00000e-13
1183.36	1.00000e-13
1184.33	1.00000e-13
1185.30	1.00000e-13
1186.27	1.00000e-13
1187.24	1.00000e-13
1188.21	1.00000e-13
1189.18	6.25609e-6
1190.15	1.00000e-13
1191.12	1.50610e-5
1192.09	1.00000e-13
1193.06	1.00000e-13
1194.03	1.00000e-13
1195.00	1.00000e-13
1195.97	1.00000e-13
1196.94	1.00000e-13
1197.91	1.00000e-13
1198.88	1.00000e-13
1199.85	1.00000e-13
1200.82	1.00000e-13
1201.79	1.00000e-13
1202.76	1.00000e-13
1203.73	1.00000e-13
1204.70	1.00000e-13
1205.67	1.00000e-13
1206.64	1.00000e-13
1207.61	1.00000e-13
1208.58	1.00000e-13
1209.55	9.84755e-6
1210.51	1.00000e-13
1211.49	1.00000e-13
1212.46	1.00000e-13
1213.43	1.00000e-13
1214.40	1.00000e-13
1215.37	1.00000e-13
1216.34	1.00000e-13
1217.31	1.00000e-13
1218.28	1.00000e-13
1219.25	1.00000e-13
1220.21	1.00000e-13
1221.19	1.00000e-13
1222.16	1.00000e-13
1223.13	1.00000e-13
1224.10	1.00000e-13
1225.06	1.00000e-13
1226.04	1.00000e-13
1227.00	1.00000e-13
1227.98	1.00000e-13
1228.94	1.00000e-13
1229.91	1.29756e-5
1230.88	1.00000e-13
1231.86	1.00000e-13
1232.83	1.00000e-13
1233.80	1.00000e-13
1234.76	1.00000e-13
1235.73	1.00000e-13
1236.70	3.24390e-6
1237.67	1.00000e-13
1238.64	5.21341e-6
1239.61	1.90000e-5
1240.59	1.00000e-13
1241.56	1.00000e-13
1242.52	1.00000e-13
1243.49	1.00000e-13
1244.47	1.00000e-13
1245.43	1.00000e-13
1246.40	6.25609e-6
1247.37	1.00000e-13
1248.35	1.00000e-13
1249.32	1.00000e-13
1250.29	8.57316e-6
1251.25	1.00000e-13
1252.22	1.00000e-13
1253.19	1.00000e-13
1254.16	1.00000e-13
1255.13	1.00000e-13
1256.11	1.00000e-13
1257.08	1.00000e-13
1258.05	1.00000e-13
1259.01	1.00000e-13
1259.98	1.00000e-13
1260.96	1.00000e-13
1261.92	1.03110e-5
1262.89	1.00000e-13
1263.86	1.00000e-13
1264.83	1.00000e-13
1265.80	1.06585e-5
1266.77	1.00000e-13
1267.74	1.00000e-13
1268.71	1.00000e-13
1269.68	1.00000e-13
1270.65	1.00000e-13
1271.62	3.47560e-6
1272.59	1.00000e-13
1273.56	1.00000e-13
1274.53	2.37500e-5
1275.50	2.89634e-6
1276.47	5.81584e-5
1277.44	2.36225e-4
1278.41	6.25145e-4
1279.38	1.55313e-3
1280.35	2.78315e-3
1281.32	4.17733e-3
1282.29	5.85361e-3
1283.26	6.46242e-3
1284.23	5.90795e-3
1285.20	5.68354e-3
1286.18	5.33274e-3
1287.14	4.89493e-3
1288.11	4.31241e-3
1289.08	4.36235e-3
1290.05	3.97713e-3
1291.02	3.78713e-3
1291.99	3.40806e-3
1292.96	3.17809e-3
1293.93	2.92727e-3
1294.90	3.27332e-3
1295.87	2.78674e-3
1296.84	2.71850e-3
1297.81	2.56546e-3
1298.78	2.44150e-3
1299.75	2.09382e-3
1300.72	2.11525e-3
1301.69	2.16530e-3
1302.66	2.14144e-3
1303.63	2.07100e-3
1304.60	1.84775e-3
1305.57	1.74730e-3
1306.54	1.86177e-3
1307.51	1.62936e-3
1308.48	1.57665e-3
1309.45	1.58939e-3
1310.42	1.43010e-3
1311.39	1.50123e-3
1312.36	1.51085e-3
1313.34	1.33475e-3
1313.98	1.47875e-3