File: data/TGA/ps_scf3_flynn_ozawa_wall/ExpDat_2025_11_18_SL_PS_005D-L1_1K_min.csv
#EXPORTTYPE:                 ,DATA ALL
#FILE:                       ,2025_11_18_SL_PS_005D-L1_1K_min.ngb-ss5
#FORMAT:                     ,NETZSCH5
#FTYPE:                      ,ASCII
#IDENTITY:                   ,PS-005D-L1
#DECIMAL:                    ,POINT
#SEPARATOR:                  ,COMMA
#MTYPE:                      ,DSC
#INSTRUMENT:                 ,NETZSCH STA 449F5
#PROJECT:                    ,
#DATE/TIME:                  ,11/19/2025 9:30:22 PM (UTC-5)
#CORR. FILE:                 ,
#TEMPCAL:                    ,05-05-2025 14:38
#SENSITIVITY:                ,28-06-2023 13:53
#LABORATORY:                 ,Tran
#OPERATOR:                   ,Stan
#REMARK:                     ,
#SAMPLE:                     ,PS-005D-L1
#SAMPLE MASS /mg:            ,2.98
#MATERIAL:                   ,
#REFERENCE:                  ,
#REFERENCE MASS /mg:         ,0
#TYPE OF CRUCIBLE:           ,Al2O3 85 ‘l, open
#SAMPLE CRUCIBLE MASS /mg:   ,0
#REFERENCE CRUCIBLE MASS /mg:,0
#DSC RANGE /‘V:              ,5000
#TG RANGE /mg:               ,35000
#TAU-R:                      ,---
#CORR. CODE:                 ,000
#EXO:                        ,-1
#RANGE:                      ,20›C....800›C/0.0....20.0K/min
#SEGMENT:                    ,S1-5/5
#SEG. 1:                     ,20›C/5.0(K/min)/100›C
#SEG. 2:                     ,100›C/00:05/100›C
#SEG. 3:                     ,100›C/10.0(K/min)/200›C
#SEG. 4:                     ,200›C/1.0(K/min)/600›C
#SEG. 5:                     ,600›C/20.0(K/min)/800›C

##Temp./›C,Time/min,DSC/(mW/mg),Mass/%,Gas Flow(purge2)/(ml/min),Gas Flow(protective)/(ml/min),TIC(scan:1)/A,Sensit./(uV/mW),Segment
 33.93100,  0.00000,      0.11884,100,50.00000,64.00000,            ,0.92423,1
 34.69100,  1.46667,      0.11162, 99.95436,50.00000,64.00000,3.307744e-09,0.92427,1
 35.48300,  2.93333, 9.388153e-02, 99.24060,50.00000,64.00000,3.317033e-09,0.92432,1
 37.14700,  4.40000,      0.44880, 99.58221,50.00000,64.00000,3.323910e-09,0.92437,1
 40.69800,  5.86667,      1.07759,100.786,50.00000,64.00000,3.326619e-09,0.92442,1
 46.22700,  7.33333,      1.71141,102.297,50.00000,64.00000,3.327354e-09,0.92446,1
 53.39600,  8.80000,      2.28234,103.61,50.00000,64.00000,3.337231e-09,0.92453,1
 61.73200, 10.26667,      2.72972,104.594,50.00000,64.00000,3.340102e-09,0.92464,1
 70.66600, 11.73333,      3.02657,105.33,50.00000,64.00000,3.341221e-09,0.92478,1
 79.75900, 13.20000,      3.21451,105.751,50.00000,64.00000,3.341606e-09,0.92496,1
 88.78600, 14.66667,      3.30922,105.972,50.00000,64.00000,3.345729e-09,0.92516,1
 97.26400, 16.08333,      3.34330,106.063,50.00000,64.00000,3.346425e-09,0.92536,2
102.444, 17.18333,      2.66477,104.863,50.00000,64.00000,3.350381e-09,0.92553,2
105.356, 18.28333,      1.64170,103.683,50.00000,64.00000,3.345059e-09,0.92570,2
107.189, 19.38333,      1.05098,102.805,50.00000,64.00000,3.351394e-09,0.92584,2
107.955, 20.48333,      0.48786,101.86,50.00000,64.00000,3.345160e-09,0.92597,2
107.996, 21.06333,      0.23042,101.386,50.00000,64.00000,3.341269e-09,0.92602,3
108.012, 21.28333,      0.18473,101.386,50.00000,64.00000,3.346225e-09,0.92606,3
108.142, 21.50333,      0.24854,101.541,50.00000,64.00000,3.345801e-09,0.92607,3
108.443, 21.72333,      0.44809,101.966,50.00000,64.00000,3.340595e-09,0.92608,3
108.961, 21.94333,      0.77230,102.547,50.00000,64.00000,3.348297e-09,0.92611,3
109.67, 22.16333,      1.17670,103.12,50.00000,64.00000,3.342886e-09,0.92612,3
110.551, 22.38333,      1.62070,103.66,50.00000,64.00000,3.353505e-09,0.92613,3
111.612, 22.60333,      2.05338,104.161,50.00000,64.00000,3.347725e-09,0.92615,3
112.726, 22.82333,      2.44374,104.59,50.00000,64.00000,3.352888e-09,0.92616,3
113.956, 23.04333,      2.78120,104.924,50.00000,64.00000,3.348910e-09,0.92617,3
115.216, 23.26333,      3.06902,105.152,50.00000,64.00000,3.349042e-09,0.92618,3
116.538, 23.48333,      3.30998,105.459,50.00000,64.00000,3.348858e-09,0.92619,3
117.915, 23.70333,      3.53228,105.759,50.00000,64.00000,3.349208e-09,0.92619,3
119.362, 23.92333,      3.74795,106.048,50.00000,64.00000,3.342344e-09,0.92620,3
120.904, 24.14333,      3.97105,106.348,50.00000,64.00000,3.349179e-09,0.92620,3
122.522, 24.36333,      4.21057,106.67,50.00000,64.00000,3.351813e-09,0.92620,3
124.234, 24.58333,      4.47083,106.978,50.00000,64.00000,3.348556e-09,0.92620,3
126.058, 24.80333,      4.74213,107.365,50.00000,64.00000,3.349286e-09,0.92620,3
127.965, 25.02333,      5.02591,107.646,50.00000,64.00000,3.339153e-09,0.92620,3
129.962, 25.24333,      5.31161,107.991,50.00000,64.00000,3.347554e-09,0.92619,3
132.063, 25.46333,      5.59315,108.276,50.00000,64.00000,3.343330e-09,0.92618,3
134.211, 25.68333,      5.86141,108.553,50.00000,64.00000,3.345668e-09,0.92617,3
136.422, 25.90333,      6.11225,108.808,50.00000,64.00000,3.342334e-09,0.92616,3
138.695, 26.12333,      6.34394,109.039,50.00000,64.00000,3.345166e-09,0.92615,3
141.006, 26.34333,      6.55924,109.252,50.00000,64.00000,3.350793e-09,0.92614,3
143.367, 26.56333,      6.75646,109.427,50.00000,64.00000,3.349884e-09,0.92611,3
145.746, 26.78333,      6.94000,109.662,50.00000,64.00000,3.351039e-09,0.92610,3
148.182, 27.00333,      7.10770,109.799,50.00000,64.00000,3.352372e-09,0.92608,3
150.63, 27.22333,      7.26988,109.981,50.00000,64.00000,3.352127e-09,0.92605,3
153.111, 27.44333,      7.41980,110.117,50.00000,64.00000,3.351723e-09,0.92603,3
155.614, 27.66333,      7.56108,110.254,50.00000,64.00000,3.346152e-09,0.92601,3
158.136, 27.88333,      7.69655,110.402,50.00000,64.00000,3.347199e-09,0.92597,3
160.682, 28.10333,      7.82194,110.528,50.00000,64.00000,3.347986e-09,0.92595,3
163.229, 28.32333,      7.93739,110.618,50.00000,64.00000,3.348336e-09,0.92593,3
165.785, 28.54333,      8.03976,110.717,50.00000,64.00000,3.344543e-09,0.92588,3
168.349, 28.76333,      8.13731,110.812,50.00000,64.00000,3.348668e-09,0.92585,3
170.917, 28.98333,      8.22109,110.903,50.00000,64.00000,3.342445e-09,0.92582,3
173.489, 29.20333,      8.29479,110.994,50.00000,64.00000,3.345920e-09,0.92576,3
176.064, 29.42333,      8.36209,111.086,50.00000,64.00000,3.352115e-09,0.92573,3
178.623, 29.64333,      8.41707,111.131,50.00000,64.00000,3.355441e-09,0.92570,3
181.201, 29.86333,      8.46537,111.222,50.00000,64.00000,3.353219e-09,0.92563,3
183.754, 30.08333,      8.50728,111.268,50.00000,64.00000,3.353460e-09,0.92560,3
186.322, 30.30333,      8.54184,111.313,50.00000,64.00000,3.354782e-09,0.92556,3
188.864, 30.52333,      8.56904,111.336,50.00000,64.00000,3.349871e-09,0.92549,3
191.416, 30.74333,      8.59197,111.382,50.00000,64.00000,3.357528e-09,0.92545,3
194.963, 31.05333,      8.60824,111.473,50.00000,64.00000,3.351446e-09,0.92536,4
202.739, 31.93333,      6.78793,110.292,50.00000,64.00000,3.346444e-09,0.92514,4
206.657, 32.81333,      4.12258,109.123,50.00000,64.00000,3.350314e-09,0.92484,4
209.723, 33.69333,      3.18785,108.709,50.00000,64.00000,3.349849e-09,0.92456,4
211.853, 34.57333,      2.31976,108.128,50.00000,64.00000,3.345498e-09,0.92426,4
212.843, 35.45333,      1.40369,107.555,50.00000,64.00000,3.350278e-09,0.92387,4
213.273, 36.33333,      0.89702,107.19,50.00000,64.00000,3.348023e-09,0.92351,4
213.429, 37.21333,      0.61989,106.894,50.00000,64.00000,3.356028e-09,0.92313,4
213.397, 38.09333,      0.44247,106.644,50.00000,64.00000,3.348141e-09,0.92265,4
213.305, 38.97333,      0.37558,106.416,50.00000,64.00000,3.346157e-09,0.92224,4
213.251, 39.85333,      0.38418,106.321,50.00000,64.00000,3.349455e-09,0.92182,4
213.277, 40.73333,      0.43351,106.184,50.00000,64.00000,3.349583e-09,0.92142,4
213.387, 41.61333,      0.50368,106.048,50.00000,64.00000,3.349226e-09,0.92110,4
213.613, 42.49333,      0.58551,105.956,50.00000,64.00000,3.354191e-09,0.92080,4
213.936, 43.37333,      0.66892,105.911,50.00000,64.00000,3.349841e-09,0.92050,4
214.362, 44.25333,      0.74650,105.865,50.00000,64.00000,3.341798e-09,0.92028,4
214.873, 45.13333,      0.81735,105.797,50.00000,64.00000,3.352874e-09,0.92008,4
215.458, 46.01333,      0.87970,105.751,50.00000,64.00000,3.346708e-09,0.91988,4
216.113, 46.89333,      0.93204,105.706,50.00000,64.00000,3.349071e-09,0.91971,4
216.804, 47.77333,      0.98328,105.66,50.00000,64.00000,3.349093e-09,0.91957,4
217.572, 48.65333,      1.01855,105.592,50.00000,64.00000,3.353115e-09,0.91941,4
218.351, 49.53333,      1.04761,105.547,50.00000,64.00000,3.346480e-09,0.91929,4
219.155, 50.41333,      1.07376,105.501,50.00000,64.00000,3.342599e-09,0.91918,4
220.002, 51.29333,      1.09341,105.444,50.00000,64.00000,3.344013e-09,0.91908,4
220.84, 52.17333,      1.10411,105.391,50.00000,64.00000,3.349522e-09,0.91901,4
221.7, 53.05333,      1.11426,105.342,50.00000,64.00000,3.342486e-09,0.91895,4
222.567, 53.93333,      1.12623,105.33,50.00000,64.00000,3.348718e-09,0.91891,4
223.436, 54.81333,      1.13372,105.273,50.00000,64.00000,3.350726e-09,0.91889,4
224.312, 55.69333,      1.13793,105.273,50.00000,64.00000,3.343847e-09,0.91887,4
225.199, 56.57333,      1.14217,105.228,50.00000,64.00000,3.343158e-09,0.91887,4
226.081, 57.45333,      1.14521,105.155,50.00000,64.00000,3.343283e-09,0.91888,4
226.957, 58.33333,      1.14705,105.144,50.00000,64.00000,3.347104e-09,0.91887,4
227.847, 59.21333,      1.14891,105.11,50.00000,64.00000,3.344229e-09,0.91887,4
228.725, 60.09333,      1.14594,105.053,50.00000,64.00000,3.339758e-09,0.91887,4
229.601, 60.97333,      1.14990,105.042,50.00000,64.00000,3.344207e-09,0.91887,4
230.477, 61.85333,      1.15447,105.007,50.00000,64.00000,3.346202e-09,0.91887,4
231.374, 62.73333,      1.15153,105.053,50.00000,64.00000,3.338878e-09,0.91887,4
232.257, 63.61333,      1.15552,104.996,50.00000,64.00000,3.347934e-09,0.91886,4
233.138, 64.49333,      1.15862,104.985,50.00000,64.00000,3.339661e-09,0.91885,4
234.007, 65.37333,      1.15686,104.916,50.00000,64.00000,3.343064e-09,0.91884,4
234.897, 66.25333,      1.15755,104.916,50.00000,64.00000,3.350625e-09,0.91882,4
235.779, 67.13333,      1.16005,104.95,50.00000,64.00000,3.344796e-09,0.91880,4
236.671, 68.01333,      1.15650,104.928,50.00000,64.00000,3.345008e-09,0.91878,4
237.542, 68.89333,      1.15809,104.905,50.00000,64.00000,3.341224e-09,0.91876,4
238.431, 69.77333,      1.15667,104.882,50.00000,64.00000,3.350054e-09,0.91873,4
239.311, 70.65333,      1.15675,104.916,50.00000,64.00000,3.344063e-09,0.91869,4
240.181, 71.53333,      1.15531,104.905,50.00000,64.00000,3.338980e-09,0.91865,4
241.066, 72.41333,      1.15540,104.894,50.00000,64.00000,3.341545e-09,0.91862,4
241.943, 73.29333,      1.15916,104.871,50.00000,64.00000,3.354377e-09,0.91857,4
242.836, 74.17333,      1.15713,104.916,50.00000,64.00000,3.342540e-09,0.91852,4
243.703, 75.05333,      1.15997,104.894,50.00000,64.00000,3.347201e-09,0.91847,4
244.585, 75.93333,      1.16099,104.894,50.00000,64.00000,3.340952e-09,0.91841,4
245.454, 76.81333,      1.15864,104.894,50.00000,64.00000,3.346180e-09,0.91836,4
246.346, 77.69333,      1.16489,104.935,50.00000,64.00000,3.347197e-09,0.91830,4
247.235, 78.57333,      1.16226,104.935,50.00000,64.00000,3.349546e-09,0.91823,4
248.116, 79.45333,      1.15532,104.912,50.00000,64.00000,3.345132e-09,0.91817,4
248.993, 80.33333,      1.15819,104.958,50.00000,64.00000,3.345194e-09,0.91810,4
249.875, 81.21333,      1.15893,104.958,50.00000,64.00000,3.346119e-09,0.91802,4
250.744, 82.09333,      1.15965,105.004,50.00000,63.00000,3.343581e-09,0.91794,4
251.634, 82.97333,      1.15917,104.939,50.00000,63.00000,3.344755e-09,0.91787,4
252.508, 83.85333,      1.16115,104.985,50.00000,63.00000,3.351788e-09,0.91777,4
253.396, 84.73333,      1.16252,104.985,50.00000,63.00000,3.352062e-09,0.91769,4
254.274, 85.61333,      1.15740,104.996,50.00000,63.00000,3.346725e-09,0.91761,4
255.15, 86.49333,      1.15722,105.019,50.00000,63.00000,3.345947e-09,0.91752,4
256.032, 87.37333,      1.15705,104.985,50.00000,63.00000,3.349791e-09,0.91743,4
256.898, 88.25333,      1.15965,105.03,50.00000,63.00000,3.344699e-09,0.91735,4
257.791, 89.13333,      1.16322,105.03,50.00000,63.00000,3.345131e-09,0.91724,4
258.659, 90.01333,      1.15869,105.03,50.00000,63.00000,3.348614e-09,0.91715,4
259.543, 90.89333,      1.16164,105.053,50.00000,63.00000,3.348465e-09,0.91706,4
260.423, 91.77333,      1.15806,105.076,50.00000,63.00000,3.344076e-09,0.91695,4
261.295, 92.65333,      1.15882,105.087,50.00000,63.00000,3.344786e-09,0.91686,4
262.191, 93.53333,      1.15900,105.053,50.00000,63.00000,3.348122e-09,0.91676,4
263.058, 94.41333,      1.15477,105.053,50.00000,63.00000,3.344260e-09,0.91665,4
263.939, 95.29333,      1.15867,105.099,50.00000,63.00000,3.345354e-09,0.91655,4
264.818, 96.17333,      1.16039,105.099,50.00000,63.00000,3.348176e-09,0.91645,4
265.708, 97.05333,      1.15994,105.19,50.00000,63.00000,3.341552e-09,0.91633,4
266.58, 97.93333,      1.15696,105.14,50.00000,63.00000,3.341210e-09,0.91622,4
267.476, 98.81333,      1.15872,105.174,50.00000,63.00000,3.345228e-09,0.91612,4
268.349, 99.69333,      1.15385,105.167,50.00000,63.00000,3.345212e-09,0.91600,4
269.223,100.573,      1.15244,105.133,50.00000,63.00000,3.338887e-09,0.91589,4
270.104,101.453,      1.15418,105.155,50.00000,63.00000,3.342768e-09,0.91578,4
270.982,102.333,      1.15152,105.137,50.00000,63.00000,3.338277e-09,0.91565,4
271.87,103.213,      1.15327,105.171,50.00000,63.00000,3.341734e-09,0.91554,4
272.747,104.093,      1.15596,105.171,50.00000,63.00000,3.347497e-09,0.91542,4
273.628,104.973,      1.15236,105.159,50.00000,63.00000,3.346190e-09,0.91528,4
274.509,105.853,      1.15222,105.159,50.00000,63.00000,3.347138e-09,0.91516,4
275.393,106.733,      1.15019,105.148,50.00000,63.00000,3.338573e-09,0.91504,4
276.279,107.613,      1.14563,105.148,50.00000,63.00000,3.340235e-09,0.91489,4
277.141,108.493,      1.14419,105.102,50.00000,63.00000,3.350792e-09,0.91476,4
278.038,109.373,      1.14693,105.102,50.00000,63.00000,3.349133e-09,0.91464,4
278.901,110.253,      1.14264,105.091,50.00000,63.00000,3.348443e-09,0.91448,4
279.782,111.133,      1.14409,105.102,50.00000,63.00000,3.356168e-09,0.91434,4
280.677,112.013,      1.14366,105.125,50.00000,63.00000,3.345708e-09,0.91421,4
281.528,112.893,      1.13871,105.114,50.00000,63.00000,3.342984e-09,0.91404,4
282.425,113.773,      1.13636,105.102,50.00000,63.00000,3.347781e-09,0.91390,4
283.303,114.653,      1.13686,105.114,50.00000,63.00000,3.335053e-09,0.91375,4
284.179,115.533,      1.13767,105.095,50.00000,63.00000,3.344092e-09,0.91358,4
285.061,116.413,      1.13626,105.049,50.00000,63.00000,3.336507e-09,0.91343,4
285.93,117.293,      1.13195,105.049,50.00000,63.00000,3.341312e-09,0.91327,4
286.813,118.173,      1.13149,105.06,50.00000,63.00000,3.340344e-09,0.91308,4
287.693,119.053,      1.13200,105.015,50.00000,63.00000,3.343771e-09,0.91293,4
288.581,119.933,      1.12994,105.038,50.00000,63.00000,3.341565e-09,0.91276,4
289.464,120.813,      1.12692,104.969,50.00000,63.00000,3.344443e-09,0.91257,4
290.336,121.693,      1.12838,104.958,50.00000,63.00000,3.346983e-09,0.91240,4
291.21,122.573,      1.12212,104.912,50.00000,63.00000,3.342857e-09,0.91223,4
292.097,123.453,      1.12295,104.912,50.00000,63.00000,3.345909e-09,0.91201,4
292.978,124.333,      1.12572,104.856,50.00000,63.00000,3.344691e-09,0.91183,4
293.851,125.213,      1.11879,104.81,50.00000,63.00000,3.348790e-09,0.91166,4
294.738,126.093,      1.12157,104.787,50.00000,63.00000,3.348871e-09,0.91144,4
295.628,126.973,      1.12371,104.742,50.00000,63.00000,3.349017e-09,0.91125,4
296.5,127.853,      1.12227,104.696,50.00000,63.00000,3.347435e-09,0.91106,4
297.386,128.733,      1.11663,104.673,50.00000,63.00000,3.349679e-09,0.91083,4
298.255,129.613,      1.11290,104.616,50.00000,63.00000,3.351331e-09,0.91063,4
299.141,130.493,      1.11244,104.616,50.00000,63.00000,3.344583e-09,0.91043,4
300.026,131.373,      1.11003,104.502,50.00000,63.00000,3.349334e-09,0.91019,4
300.896,132.253,      1.10271,104.457,50.00000,63.00000,3.345032e-09,0.90998,4
301.772,133.133,      1.10516,104.411,50.00000,63.00000,3.346965e-09,0.90977,4
302.66,134.013,      1.10111,104.354,50.00000,63.00000,3.342599e-09,0.90952,4
303.52,134.893,      1.09669,104.263,50.00000,63.00000,3.333081e-09,0.90931,4
304.415,135.773,      1.10440,104.263,50.00000,63.00000,3.350781e-09,0.90910,4
305.294,136.653,      1.09575,104.176,50.00000,63.00000,3.348956e-09,0.90883,4
306.169,137.533,      1.09100,104.085,50.00000,63.00000,3.346914e-09,0.90861,4
307.054,138.413,      1.09708,104.016,50.00000,63.00000,3.343715e-09,0.90838,4
307.931,139.293,      1.09233,103.914,50.00000,63.00000,3.349290e-09,0.90812,4
308.812,140.173,      1.09217,103.903,50.00000,63.00000,3.347013e-09,0.90789,4
309.703,141.053,      1.09664,103.811,50.00000,63.00000,3.342325e-09,0.90765,4
310.583,141.933,      1.08727,103.72,50.00000,63.00000,3.347042e-09,0.90737,4
311.476,142.813,      1.08449,103.618,50.00000,63.00000,3.342441e-09,0.90713,4
312.351,143.693,      1.08135,103.493,50.00000,63.00000,3.341416e-09,0.90690,4
313.216,144.573,      1.07588,103.39,50.00000,63.00000,3.346767e-09,0.90661,4
314.106,145.453,      1.07903,103.288,50.00000,63.00000,3.343190e-09,0.90636,4
314.984,146.333,      1.07887,103.174,50.00000,63.00000,3.341170e-09,0.90611,4
315.865,147.213,      1.07141,103.083,50.00000,63.00000,3.336917e-09,0.90581,4
316.73,148.093,      1.07421,102.9,50.00000,63.00000,3.344776e-09,0.90556,4
317.633,148.973,      1.07606,102.809,50.00000,63.00000,3.344479e-09,0.90531,4
318.503,149.853,      1.06856,102.672,50.00000,63.00000,3.343572e-09,0.90499,4
319.388,150.733,      1.06374,102.49,50.00000,63.00000,3.342851e-09,0.90474,4
320.254,151.613,      1.06287,102.354,50.00000,63.00000,3.342274e-09,0.90448,4
321.141,152.493,      1.06871,102.217,50.00000,63.00000,3.342890e-09,0.90416,4
322.028,153.373,      1.06253,102.023,50.00000,63.00000,3.339051e-09,0.90390,4
322.899,154.253,      1.06201,101.796,50.00000,63.00000,3.342747e-09,0.90363,4
323.778,155.133,      1.06116,101.625,50.00000,63.00000,3.347549e-09,0.90330,4
324.663,156.013,      1.05898,101.443,50.00000,63.00000,3.338983e-09,0.90303,4
325.541,156.893,      1.05544,101.215,50.00000,63.00000,3.341612e-09,0.90275,4
326.422,157.773,      1.05995,100.941,50.00000,63.00000,3.337444e-09,0.90242,4
327.301,158.653,      1.05809,100.759,50.00000,63.00000,3.338691e-09,0.90214,4
328.2,159.533,      1.05255,100.486,50.00000,63.00000,3.342416e-09,0.90186,4
329.067,160.413,      1.04493,100.212,50.00000,63.00000,3.341587e-09,0.90151,4
329.943,161.293,      1.04945, 99.93926,50.00000,63.00000,3.345209e-09,0.90122,4
330.823,162.173,      1.04960, 99.70000,50.00000,63.00000,3.335493e-09,0.90094,4
331.711,163.053,      1.04739, 99.39262,50.00000,63.00000,3.346830e-09,0.90058,4
332.593,163.933,      1.04483, 99.02785,50.00000,63.00000,3.344508e-09,0.90028,4
333.481,164.813,      1.04668, 98.72047,50.00000,63.00000,3.342276e-09,0.89999,4
334.352,165.693,      1.03935, 98.40168,50.00000,63.00000,3.340726e-09,0.89963,4
335.235,166.573,      1.04357, 98.02584,50.00000,63.00000,3.340325e-09,0.89933,4
336.117,167.453,      1.03725, 97.63087,50.00000,63.00000,3.339278e-09,0.89903,4
336.986,168.333,      1.03533, 97.24362,50.00000,63.00000,3.336650e-09,0.89872,4
337.852,169.213,      1.03920, 96.82987,50.00000,63.00000,3.342673e-09,0.89836,4
338.733,170.093,      1.03900, 96.32886,50.00000,63.00000,3.338823e-09,0.89805,4
339.623,170.973,      1.03847, 95.90738,50.00000,63.00000,3.338077e-09,0.89767,4
340.501,171.853,      1.04236, 95.42517,50.00000,63.00000,3.344511e-09,0.89736,4
341.378,172.733,      1.04148, 94.92416,50.00000,63.00000,3.344478e-09,0.89704,4
342.265,173.613,      1.04711, 94.41141,50.00000,63.00000,3.341150e-09,0.89673,4
343.145,174.493,      1.03697, 93.83054,50.00000,63.00000,3.339970e-09,0.89634,4
344.012,175.373,      1.03434, 93.27651,50.00000,63.00000,3.341064e-09,0.89603,4
344.89,176.253,      1.03963, 92.63859,50.00000,63.00000,3.350227e-09,0.89569,4
345.782,177.133,      1.03841, 91.98926,50.00000,63.00000,3.342624e-09,0.89531,4
346.656,178.013,      1.03786, 91.30604,50.00000,63.00000,3.338072e-09,0.89498,4
347.538,178.893,      1.04007, 90.64161,50.00000,63.00000,3.336341e-09,0.89464,4
348.425,179.773,      1.04126, 89.88993,50.00000,63.00000,3.335743e-09,0.89426,4
349.298,180.653,      1.04312, 89.15336,50.00000,63.00000,3.338034e-09,0.89392,4
350.187,181.533,      1.03878, 88.30671,50.00000,63.00000,3.343503e-09,0.89358,4
351.067,182.413,      1.04239, 87.44899,50.00000,63.00000,3.341663e-09,0.89318,4
351.934,183.293,      1.03731, 86.52248,50.00000,63.00000,3.341407e-09,0.89285,4
352.835,184.173,      1.03470, 85.66443,50.00000,63.00000,3.341520e-09,0.89251,4
353.702,185.053,      1.04838, 84.65839,50.00000,63.00000,3.342898e-09,0.89210,4
354.59,185.933,      1.05376, 83.63356,50.00000,63.00000,3.341753e-09,0.89176,4
355.459,186.813,      1.05112, 82.62349,50.00000,63.00000,3.342979e-09,0.89141,4
356.343,187.693,      1.06000, 81.45034,50.00000,63.00000,3.345870e-09,0.89100,4
357.219,188.573,      1.06436, 80.34966,50.00000,63.00000,3.340212e-09,0.89065,4
358.104,189.453,      1.07328, 79.08523,50.00000,63.00000,3.340101e-09,0.89030,4
358.98,190.333,      1.08150, 77.85906,50.00000,63.00000,3.339914e-09,0.88987,4
359.865,191.213,      1.07890, 76.55671,50.00000,63.00000,3.343239e-09,0.88952,4
360.741,192.093,      1.07732, 75.17886,50.00000,63.00000,3.342576e-09,0.88918,4
361.609,192.973,      1.08065, 73.85369,50.00000,63.00000,3.337168e-09,0.88874,4
362.503,193.853,      1.10478, 72.28221,50.00000,63.00000,3.342828e-09,0.88839,4
363.367,194.733,      1.10638, 70.73691,50.00000,63.00000,3.340689e-09,0.88803,4
364.256,195.613,      1.10732, 69.18792,50.00000,63.00000,3.338418e-09,0.88760,4
365.133,196.493,      1.11106, 67.59362,50.00000,63.00000,3.348348e-09,0.88723,4
366.018,197.373,      1.11129, 66.01040,50.00000,63.00000,3.340423e-09,0.88687,4
366.904,198.253,      1.10693, 64.31342,50.00000,63.00000,3.341564e-09,0.88643,4
367.776,199.133,      1.10253, 62.62383,50.00000,63.00000,3.339392e-09,0.88607,4
368.657,200.013,      1.09565, 60.86611,50.00000,63.00000,3.346868e-09,0.88562,4
369.536,200.893,      1.09337, 59.08557,50.00000,63.00000,3.340214e-09,0.88526,4
370.413,201.773,      1.08326, 57.28993,50.00000,63.00000,3.332376e-09,0.88489,4
371.303,202.653,      1.07742, 55.52081,50.00000,63.00000,3.338609e-09,0.88451,4
372.176,203.533,      1.06975, 53.63389,50.00000,63.00000,3.341802e-09,0.88407,4
373.056,204.413,      1.05031, 51.84597,50.00000,64.00000,3.347791e-09,0.88370,4
373.932,205.293,      1.03439, 50.00470,50.00000,63.00000,3.341266e-09,0.88332,4
374.814,206.173,      1.02022, 48.17483,50.00000,63.00000,3.339790e-09,0.88288,4
375.692,207.053,      1.00638, 46.39430,50.00000,63.00000,3.345652e-09,0.88249,4
376.58,207.933,      0.99430, 44.54530,50.00000,63.00000,3.346379e-09,0.88212,4
377.466,208.813,      0.97395, 42.76107,50.00000,63.00000,3.342640e-09,0.88166,4
378.344,209.693,      0.94707, 41.08289,50.00000,64.00000,3.343178e-09,0.88128,4
379.217,210.573,      0.92479, 39.28725,50.00000,64.00000,3.342534e-09,0.88089,4
380.097,211.453,      0.90355, 37.58255,50.00000,63.00000,3.345966e-09,0.88044,4
380.977,212.333,      0.88262, 35.93121,50.00000,63.00000,3.341797e-09,0.88005,4
381.857,213.213,      0.86201, 34.33658,50.00000,63.00000,3.342023e-09,0.87967,4
382.73,214.093,      0.83483, 32.78758,50.00000,63.00000,3.343211e-09,0.87921,4
383.611,214.973,      0.81122, 31.26141,50.00000,63.00000,3.343271e-09,0.87882,4
384.498,215.853,      0.77959, 29.83423,50.00000,63.00000,3.340956e-09,0.87844,4
385.382,216.733,      0.76020, 28.43691,50.00000,63.00000,3.340440e-09,0.87796,4
386.248,217.613,      0.72696, 27.06275,50.00000,63.00000,3.344666e-09,0.87757,4
387.132,218.493,      0.69330, 25.78322,50.00000,63.00000,3.343876e-09,0.87718,4
388.023,219.373,      0.66138, 24.54564,50.00000,63.00000,3.341806e-09,0.87671,4
388.894,220.253,      0.62609, 23.36510,50.00000,63.00000,3.339986e-09,0.87631,4
389.783,221.133,      0.58818, 22.27550,50.00000,63.00000,3.340969e-09,0.87592,4
390.654,222.013,      0.54506, 21.15168,50.00000,63.00000,3.342474e-09,0.87428,4
391.542,222.893,      0.49746, 20.12651,50.00000,63.00000,3.346619e-09,0.87279,4
392.415,223.773,      0.45339, 19.16980,50.00000,63.00000,3.343130e-09,0.87148,4
393.305,224.653,      0.40154, 18.24362,50.00000,63.00000,3.335670e-09,0.87016,4
394.175,225.533,      0.34772, 17.37416,50.00000,63.00000,3.339505e-09,0.86925,4
395.05,226.413,      0.29341, 16.53523,50.00000,63.00000,3.343085e-09,0.86849,4
395.919,227.293,      0.24780, 15.75705,50.00000,63.00000,3.346570e-09,0.86771,4
396.81,228.173,      0.20356, 15.02416,50.00000,63.00000,3.345212e-09,0.86713,4
397.695,229.053,      0.14815, 14.36745,50.00000,63.00000,3.339524e-09,0.86646,4
398.576,229.933, 9.593084e-02, 13.74866,50.00000,63.00000,3.340102e-09,0.86593,4
399.458,230.813, 4.986914e-02, 13.18289,50.00000,63.00000,3.341251e-09,0.86541,4
400.331,231.693,-1.035534e-02, 12.59430,50.00000,63.00000,3.343518e-09,0.86489,4
401.214,232.573,-5.331909e-02, 12.08960,50.00000,63.00000,3.343863e-09,0.86431,4
402.088,233.453,     -0.10862, 11.63389,50.00000,63.00000,3.341788e-09,0.86386,4
402.983,234.333,     -0.14846, 11.17852,50.00000,63.00000,3.344076e-09,0.86339,4
403.847,235.213,     -0.19805, 10.83289,50.00000,63.00000,3.348460e-09,0.86306,4
404.729,236.093,     -0.23735, 10.48356,50.00000,63.00000,3.339394e-09,0.86277,4
405.618,236.973,     -0.27488, 10.21040,50.00000,63.00000,3.341452e-09,0.86249,4
406.484,237.853,     -0.31585,  9.98255,50.00000,63.00000,3.340534e-09,0.86230,4
407.353,238.733,     -0.34459,  9.75101,50.00000,63.00000,3.341273e-09,0.86215,4
408.256,239.613,     -0.37042,  9.56879,50.00000,63.00000,3.340858e-09,0.86200,4
409.121,240.493,     -0.40790,  9.39799,50.00000,63.00000,3.341723e-09,0.86190,4
410.018,241.373,     -0.42600,  9.29530,50.00000,63.00000,3.335932e-09,0.86181,4
410.897,242.253,     -0.45051,  9.22718,50.00000,63.00000,3.339573e-09,0.86173,4
411.777,243.133,     -0.47433,  9.15872,50.00000,63.00000,3.341050e-09,0.86167,4
412.654,244.013,     -0.49181,  9.14732,50.00000,63.00000,3.344581e-09,0.86162,4
413.537,244.893,     -0.50519,  9.10168,50.00000,63.00000,3.342462e-09,0.86158,4
414.422,245.773,     -0.52389,  9.10940,50.00000,63.00000,3.336579e-09,0.86156,4
415.299,246.653,     -0.54413,  9.09799,50.00000,63.00000,3.350629e-09,0.86154,4
416.168,247.533,     -0.55610,  9.15503,50.00000,63.00000,3.345421e-09,0.86153,4
417.059,248.413,     -0.57227,  9.14362,50.00000,63.00000,3.338881e-09,0.86154,4
417.924,249.293,     -0.59452,  9.15503,50.00000,63.00000,3.343075e-09,0.86154,4
418.805,250.173,     -0.59598,  9.20034,50.00000,63.00000,3.334553e-09,0.86156,4
419.696,251.053,     -0.61264,  9.20034,50.00000,63.00000,3.343229e-09,0.86157,4
420.569,251.933,     -0.62894,  9.20034,50.00000,63.00000,3.345505e-09,0.86158,4
421.454,252.813,     -0.64833,  9.22315,50.00000,63.00000,3.347252e-09,0.86160,4
422.331,253.693,     -0.65786,  9.24597,50.00000,63.00000,3.345046e-09,0.86161,4
423.196,254.573,     -0.68265,  9.24597,50.00000,63.00000,3.345169e-09,0.86164,4
424.096,255.453,     -0.68615,  9.29161,50.00000,63.00000,3.345968e-09,0.86164,4
424.971,256.333,     -0.70263,  9.24597,50.00000,63.00000,3.344068e-09,0.86166,4
425.843,257.213,     -0.71800,  9.29161,50.00000,63.00000,3.348184e-09,0.86167,4
426.718,258.093,     -0.73340,  9.31443,50.00000,63.00000,3.341621e-09,0.86167,4
427.613,258.973,     -0.75002,  9.31812,50.00000,63.00000,3.346198e-09,0.86168,4
428.487,259.853,     -0.76857,  9.31812,50.00000,63.00000,3.344872e-09,0.86167,4
429.361,260.733,     -0.77178,  9.29530,50.00000,63.00000,3.339694e-09,0.86166,4
430.242,261.613,     -0.79541,  9.34094,50.00000,63.00000,3.342672e-09,0.86165,4
431.132,262.493,     -0.80754,  9.31812,50.00000,63.00000,3.340151e-09,0.86164,4
432.01,263.373,     -0.82007,  9.34094,50.00000,63.00000,3.343511e-09,0.86162,4
432.914,264.253,     -0.84000,  9.37517,50.00000,63.00000,3.342083e-09,0.86160,4
433.781,265.133,     -0.86418,  9.37517,50.00000,63.00000,3.348141e-09,0.86157,4
434.653,266.013,     -0.87604,  9.40940,50.00000,63.00000,3.352631e-09,0.86153,4
435.536,266.893,     -0.88755,  9.42081,50.00000,63.00000,3.341506e-09,0.86151,4
436.41,267.773,     -0.90684,  9.42081,50.00000,63.00000,3.335774e-09,0.86146,4
437.292,268.653,     -0.92423,  9.42081,50.00000,63.00000,3.341571e-09,0.86141,4
438.164,269.533,     -0.93504,  9.46611,50.00000,63.00000,3.349769e-09,0.86136,4
439.054,270.413,     -0.95057,  9.47383,50.00000,63.00000,3.344915e-09,0.86130,4
439.945,271.293,     -0.97316,  9.47383,50.00000,63.00000,3.343336e-09,0.86124,4
440.811,272.173,     -0.99421,  9.45101,50.00000,63.00000,3.344732e-09,0.86118,4
441.683,273.053,     -1.00319,  9.49664,50.00000,63.00000,3.343163e-09,0.86109,4
442.56,273.933,     -1.01729,  9.49664,50.00000,63.00000,3.343531e-09,0.86103,4
443.445,274.813,     -1.02986,  9.54228,50.00000,63.00000,3.342454e-09,0.86096,4
444.323,275.693,     -1.04205,  9.57617,50.00000,63.00000,3.346121e-09,0.86087,4
445.211,276.573,     -1.05743,  9.57617,50.00000,63.00000,3.330975e-09,0.86077,4
446.082,277.453,     -1.08541,  9.58758,50.00000,63.00000,3.338985e-09,0.86069,4
446.972,278.333,     -1.09536,  9.54228,50.00000,63.00000,3.342750e-09,0.86059,4
447.849,279.213,     -1.11478,  9.59899,50.00000,63.00000,3.346919e-09,0.86050,4
448.738,280.093,     -1.12992,  9.58758,50.00000,63.00000,3.343435e-09,0.86041,4
449.616,280.973,     -1.15377,  9.58758,50.00000,63.00000,3.343140e-09,0.86028,4
450.491,281.853,     -1.16580,  9.62181,50.00000,63.00000,3.341720e-09,0.86019,4
451.378,282.733,     -1.17906,  9.62181,50.00000,63.00000,3.335662e-09,0.86009,4
452.257,283.613,     -1.19829,  9.63322,50.00000,63.00000,3.340711e-09,0.85996,4
453.141,284.493,     -1.21876,  9.64463,50.00000,63.00000,3.342484e-09,0.85985,4
454.013,285.373,     -1.23250,  9.64463,50.00000,63.00000,3.341541e-09,0.85974,4
454.883,286.253,     -1.24865,  9.65604,50.00000,63.00000,3.343866e-09,0.85961,4
455.777,287.133,     -1.26767,  9.65604,50.00000,63.00000,3.335861e-09,0.85948,4
456.661,288.013,     -1.28591,  9.63322,50.00000,63.00000,3.339537e-09,0.85936,4
457.534,288.893,     -1.29739,  9.67886,50.00000,63.00000,3.339574e-09,0.85922,4
458.42,289.773,     -1.31211,  9.66745,50.00000,63.00000,3.336434e-09,0.85909,4
459.292,290.653,     -1.33965,  9.66745,50.00000,63.00000,3.341619e-09,0.85897,4
460.166,291.533,     -1.35323,  9.67886,50.00000,63.00000,3.337036e-09,0.85881,4
461.051,292.413,     -1.36726,  9.72450,50.00000,63.00000,3.346723e-09,0.85868,4
461.929,293.293,     -1.38291,  9.72450,50.00000,63.00000,3.341676e-09,0.85855,4
462.823,294.173,     -1.39782,  9.73188,50.00000,63.00000,3.337776e-09,0.85839,4
463.7,295.053,     -1.42280,  9.69765,50.00000,63.00000,3.347743e-09,0.85825,4
464.582,295.933,     -1.43333,  9.72047,50.00000,63.00000,3.343622e-09,0.85812,4
465.452,296.813,     -1.45314,  9.69765,50.00000,64.00000,3.343771e-09,0.85796,4
466.343,297.693,     -1.47183,  9.74329,50.00000,63.00000,3.346549e-09,0.85781,4
467.213,298.573,     -1.49172,  9.73188,50.00000,63.00000,3.346086e-09,0.85767,4
468.093,299.453,     -1.50561,  9.74329,50.00000,63.00000,3.343233e-09,0.85751,4
468.976,300.333,     -1.52277,  9.73188,50.00000,63.00000,3.342716e-09,0.85736,4
469.856,301.213,     -1.53794,  9.76611,50.00000,63.00000,3.344983e-09,0.85722,4
470.741,302.093,     -1.55111,  9.77752,50.00000,63.00000,3.334647e-09,0.85704,4
471.618,302.973,     -1.57610,  9.78893,50.00000,63.00000,3.337176e-09,0.85690,4
472.499,303.853,     -1.59259,  9.78893,50.00000,63.00000,3.345289e-09,0.85675,4
473.379,304.733,     -1.60993,  9.82315,50.00000,64.00000,3.343507e-09,0.85658,4
474.262,305.613,     -1.62405,  9.82315,50.00000,63.00000,3.348683e-09,0.85643,4
475.132,306.493,     -1.64512,  9.86846,50.00000,63.00000,3.346653e-09,0.85628,4
476.011,307.373,     -1.66053,  9.86846,50.00000,63.00000,3.339739e-09,0.85611,4
476.897,308.253,     -1.68540,  9.86846,50.00000,63.00000,3.344129e-09,0.85595,4
477.766,309.133,     -1.69553,  9.86846,50.00000,63.00000,3.347282e-09,0.85581,4
478.662,310.013,     -1.71272,  9.87987,50.00000,63.00000,3.341754e-09,0.85562,4
479.538,310.893,     -1.73072,  9.89128,50.00000,63.00000,3.343202e-09,0.85547,4
480.416,311.773,     -1.74752,  9.90268,50.00000,63.00000,3.341456e-09,0.85532,4
481.305,312.653,     -1.76398,  9.90268,50.00000,63.00000,3.337763e-09,0.85514,4
482.17,313.533,     -1.78165,  9.89128,50.00000,63.00000,3.343942e-09,0.85499,4
483.044,314.413,     -1.80103,  9.90268,50.00000,63.00000,3.345556e-09,0.85483,4
483.94,315.293,     -1.80976,  9.92550,50.00000,63.00000,3.340906e-09,0.85468,4
484.83,316.173,     -1.82510,  9.92550,50.00000,63.00000,3.350001e-09,0.85449,4
485.696,317.053,     -1.85742,  9.92550,50.00000,63.00000,3.344508e-09,0.85434,4
486.582,317.933,     -1.86828,  9.93691,50.00000,63.00000,3.345045e-09,0.85414,4
487.465,318.813,     -1.88745,  9.91409,50.00000,63.00000,3.346780e-09,0.85398,4
488.335,319.693,     -1.90539,  9.95973,50.00000,63.00000,3.346507e-09,0.85384,4
489.209,320.573,     -1.92587,  9.99396,50.00000,63.00000,3.348837e-09,0.85365,4
490.098,321.453,     -1.93268,  9.94832,50.00000,63.00000,3.348819e-09,0.85348,4
490.984,322.333,     -1.94534,  9.94832,50.00000,63.00000,3.340608e-09,0.85333,4
491.855,323.213,     -1.96884, 10.02819,50.00000,63.00000,3.346626e-09,0.85315,4
492.74,324.093,     -1.98113, 10.01678,50.00000,63.00000,3.342849e-09,0.85298,4
493.612,324.973,     -1.99928, 10.05101,50.00000,63.00000,3.347361e-09,0.85283,4
494.52,325.853,     -2.01378, 10.05101,50.00000,63.00000,3.348689e-09,0.85267,4
495.379,326.733,     -2.03322, 10.05101,50.00000,63.00000,3.340102e-09,0.85249,4
496.267,327.613,     -2.05194, 10.05101,50.00000,63.00000,3.342169e-09,0.85232,4
497.149,328.493,     -2.06478, 10.05101,50.00000,63.00000,3.346711e-09,0.85215,4
498.023,329.373,     -2.08522, 10.07349,50.00000,63.00000,3.348290e-09,0.85200,4
498.905,330.253,     -2.09644, 10.08490,50.00000,63.00000,3.347753e-09,0.85181,4
499.777,331.133,     -2.11229, 10.08490,50.00000,63.00000,3.353146e-09,0.85165,4
500.658,332.013,     -2.13834, 10.10772,50.00000,63.00000,3.348288e-09,0.85150,4
501.543,332.893,     -2.14500, 10.10772,50.00000,63.00000,3.352516e-09,0.85130,4
502.427,333.773,     -2.15844, 10.10772,50.00000,63.00000,3.342350e-09,0.85115,4
503.307,334.653,     -2.17401, 10.09631,50.00000,63.00000,3.343907e-09,0.85099,4
504.195,335.533,     -2.18837, 10.15336,50.00000,63.00000,3.346841e-09,0.85080,4
505.075,336.413,     -2.20358, 10.15336,50.00000,63.00000,3.344234e-09,0.85064,4
505.949,337.293,     -2.22220, 10.13054,50.00000,63.00000,3.347757e-09,0.85047,4
506.833,338.173,     -2.23705, 10.14195,50.00000,63.00000,3.344825e-09,0.85033,4
507.708,339.053,     -2.24466, 10.16477,50.00000,63.00000,3.342049e-09,0.85012,4
508.586,339.933,     -2.26851, 10.16477,50.00000,63.00000,3.349412e-09,0.84997,4
509.459,340.813,     -2.27616, 10.14966,50.00000,63.00000,3.348163e-09,0.84981,4
510.35,341.693,     -2.29199, 10.17248,50.00000,63.00000,3.342617e-09,0.84961,4
511.226,342.573,     -2.30953, 10.21779,50.00000,63.00000,3.348027e-09,0.84945,4
512.109,343.453,     -2.32197, 10.21779,50.00000,63.00000,3.348875e-09,0.84927,4
512.986,344.333,     -2.34215, 10.21779,50.00000,63.00000,3.350576e-09,0.84911,4
513.858,345.213,     -2.34645, 10.20638,50.00000,63.00000,3.341362e-09,0.84895,4
514.754,346.093,     -2.35599, 10.22919,50.00000,63.00000,3.348420e-09,0.84879,4
515.638,346.973,     -2.37627, 10.21779,50.00000,63.00000,3.347306e-09,0.84859,4
516.52,347.853,     -2.37848, 10.21779,50.00000,63.00000,3.348997e-09,0.84843,4
517.39,348.733,     -2.40655, 10.26342,50.00000,63.00000,3.348158e-09,0.84826,4
518.264,349.613,     -2.41351, 10.22919,50.00000,63.00000,3.340108e-09,0.84808,4
519.157,350.493,     -2.42660, 10.22919,50.00000,63.00000,3.343315e-09,0.84792,4
520.025,351.373,     -2.43314, 10.32047,50.00000,63.00000,3.339556e-09,0.84775,4
520.909,352.253,     -2.45361, 10.27483,50.00000,63.00000,3.344194e-09,0.84756,4
521.793,353.133,     -2.46283, 10.17248,50.00000,63.00000,3.351829e-09,0.84741,4
522.679,354.013,     -2.47512, 10.21779,50.00000,63.00000,3.344798e-09,0.84724,4
523.549,354.893,     -2.49346, 10.25201,50.00000,63.00000,3.340900e-09,0.84707,4
524.442,355.773,     -2.49841, 10.24060,50.00000,63.00000,3.346314e-09,0.84688,4
525.316,356.653,     -2.50767, 10.26342,50.00000,63.00000,3.346809e-09,0.84671,4
526.205,357.533,     -2.52353, 10.26342,50.00000,63.00000,3.346470e-09,0.84652,4
527.076,358.413,     -2.53893, 10.25201,50.00000,63.00000,3.352271e-09,0.84636,4
527.958,359.293,     -2.53996, 10.29765,50.00000,63.00000,3.352703e-09,0.84620,4
528.833,360.173,     -2.56242, 10.25201,50.00000,63.00000,3.346167e-09,0.84600,4
529.708,361.053,     -2.57746, 10.30906,50.00000,63.00000,3.352659e-09,0.84584,4
530.606,361.933,     -2.58076, 10.29765,50.00000,63.00000,3.351095e-09,0.84568,4
531.485,362.813,     -2.59323, 10.32047,50.00000,63.00000,3.348981e-09,0.84548,4
532.354,363.693,     -2.61007, 10.34329,50.00000,63.00000,3.352110e-09,0.84532,4
533.226,364.573,     -2.60891, 10.29765,50.00000,63.00000,3.347545e-09,0.84516,4
534.12,365.453,     -2.62368, 10.34329,50.00000,63.00000,3.346553e-09,0.84496,4
535.002,366.333,     -2.63843, 10.32047,50.00000,63.00000,3.346076e-09,0.84479,4
535.89,367.213,     -2.64263, 10.34329,50.00000,63.00000,3.342637e-09,0.84463,4
536.765,368.093,     -2.65784, 10.35470,50.00000,63.00000,3.347585e-09,0.84448,4
537.648,368.973,     -2.66824, 10.38859,50.00000,63.00000,3.348027e-09,0.84427,4
538.524,369.853,     -2.67198, 10.32047,50.00000,63.00000,3.349417e-09,0.84410,4
539.41,370.733,     -2.68196, 10.33188,50.00000,63.00000,3.345649e-09,0.84395,4
540.287,371.613,     -2.70392, 10.29765,50.00000,63.00000,3.345485e-09,0.84375,4
541.164,372.493,     -2.70636, 10.33188,50.00000,63.00000,3.356210e-09,0.84357,4
542.049,373.373,     -2.71594, 10.36611,50.00000,63.00000,3.348837e-09,0.84338,4
542.93,374.253,     -2.72642, 10.34329,50.00000,63.00000,3.351059e-09,0.84321,4
543.808,375.133,     -2.73601, 10.32047,50.00000,63.00000,3.354507e-09,0.84305,4
544.667,376.013,     -2.75224, 10.41141,50.00000,63.00000,3.349804e-09,0.84286,4
545.56,376.893,     -2.74449, 10.41141,50.00000,63.00000,3.345242e-09,0.84269,4
546.435,377.773,     -2.76438, 10.37718,50.00000,63.00000,3.348012e-09,0.84253,4
547.318,378.653,     -2.76195, 10.40000,50.00000,63.00000,3.334859e-09,0.84236,4
548.209,379.533,     -2.77971, 10.41141,50.00000,63.00000,3.350718e-09,0.84217,4
549.086,380.413,     -2.78264, 10.41141,50.00000,63.00000,3.353008e-09,0.84199,4
549.973,381.293,     -2.80581, 10.40000,50.00000,63.00000,3.349408e-09,0.84180,4
550.834,382.173,     -2.80421, 10.41141,50.00000,63.00000,3.349005e-09,0.84164,4
551.722,383.053,     -2.80674, 10.41141,50.00000,63.00000,3.353442e-09,0.84147,4
552.61,383.933,     -2.81648, 10.43423,50.00000,63.00000,3.348653e-09,0.84131,4
553.489,384.813,     -2.83071, 10.43423,50.00000,63.00000,3.347007e-09,0.84110,4
554.377,385.693,     -2.83551, 10.43423,50.00000,63.00000,3.352500e-09,0.84094,4
555.235,386.573,     -2.84790, 10.38859,50.00000,63.00000,3.348919e-09,0.84078,4
556.132,387.453,     -2.84550, 10.43423,50.00000,63.00000,3.348667e-09,0.84059,4
557.01,388.333,     -2.86341, 10.44564,50.00000,63.00000,3.353118e-09,0.84041,4
557.886,389.213,     -2.86276, 10.44564,50.00000,63.00000,3.346241e-09,0.84024,4
558.776,390.093,     -2.87939, 10.46846,50.00000,63.00000,3.345315e-09,0.84006,4
559.647,390.973,     -2.88462, 10.44564,50.00000,63.00000,3.352074e-09,0.83989,4
560.53,391.853,     -2.88899, 10.44564,50.00000,63.00000,3.351700e-09,0.83969,4
561.414,392.733,     -2.89427, 10.44564,50.00000,63.00000,3.353770e-09,0.83952,4
562.298,393.613,     -2.90366, 10.45705,50.00000,63.00000,3.347373e-09,0.83936,4
563.174,394.493,     -2.91349, 10.47987,50.00000,63.00000,3.356070e-09,0.83915,4
564.04,395.373,     -2.92330, 10.47987,50.00000,63.00000,3.350543e-09,0.83899,4
564.935,396.253,     -2.92408, 10.50268,50.00000,63.00000,3.353826e-09,0.83883,4
565.824,397.133,     -2.93856, 10.52550,50.00000,63.00000,3.347327e-09,0.83862,4
566.693,398.013,     -2.94429, 10.52550,50.00000,63.00000,3.350547e-09,0.83845,4
567.573,398.893,     -2.94226, 10.52550,50.00000,63.00000,3.354776e-09,0.83829,4
568.464,399.773,     -2.95587, 10.47987,50.00000,63.00000,3.350269e-09,0.83807,4
569.34,400.653,     -2.96991, 10.53691,50.00000,63.00000,3.352449e-09,0.83792,4
570.223,401.533,     -2.97617, 10.53691,50.00000,63.00000,3.354273e-09,0.83776,4
571.099,402.413,     -2.98333, 10.49128,50.00000,63.00000,3.351710e-09,0.83755,4
571.98,403.293,     -2.99375, 10.49128,50.00000,63.00000,3.347367e-09,0.83739,4
572.863,404.173,     -2.99726, 10.53691,50.00000,63.00000,3.347235e-09,0.83721,4
573.736,405.053,     -2.99981, 10.54832,50.00000,63.00000,3.350017e-09,0.83701,4
574.62,405.933,     -3.00795, 10.54832,50.00000,63.00000,3.350669e-09,0.83685,4
575.511,406.813,     -3.00918, 10.54832,50.00000,63.00000,3.350246e-09,0.83669,4
576.384,407.693,     -3.02470, 10.54832,50.00000,63.00000,3.350250e-09,0.83649,4
577.254,408.573,     -3.02493, 10.57081,50.00000,63.00000,3.353751e-09,0.83632,4
578.141,409.453,     -3.03171, 10.57081,50.00000,63.00000,3.348946e-09,0.83611,4
579.033,410.333,     -3.04270, 10.53691,50.00000,63.00000,3.346181e-09,0.83593,4
579.897,411.213,     -3.04942, 10.52550,50.00000,63.00000,3.344319e-09,0.83577,4
580.769,412.093,     -3.05431, 10.57081,50.00000,63.00000,3.350841e-09,0.83557,4
581.664,412.973,     -3.06068, 10.53691,50.00000,63.00000,3.354746e-09,0.83540,4
582.549,413.853,     -3.06842, 10.57081,50.00000,63.00000,3.350867e-09,0.83522,4
583.436,414.733,     -3.07243, 10.55973,50.00000,63.00000,3.347029e-09,0.83503,4
584.318,415.613,     -3.08953, 10.55973,50.00000,63.00000,3.344280e-09,0.83486,4
585.186,416.493,     -3.09255, 10.60503,50.00000,63.00000,3.344957e-09,0.83469,4
586.076,417.373,     -3.09472, 10.55973,50.00000,63.00000,3.352462e-09,0.83448,4
586.956,418.253,     -3.10482, 10.60503,50.00000,63.00000,3.350688e-09,0.83432,4
587.828,419.133,     -3.11302, 10.62785,50.00000,63.00000,3.345916e-09,0.83414,4
588.707,420.013,     -3.12267, 10.61644,50.00000,63.00000,3.346862e-09,0.83397,4
589.59,420.893,     -3.12529, 10.60503,50.00000,63.00000,3.348137e-09,0.83377,4
590.462,421.773,     -3.13163, 10.60503,50.00000,64.00000,3.348382e-09,0.83360,4
591.344,422.653,     -3.13660, 10.62785,50.00000,64.00000,3.348554e-09,0.83343,4
592.238,423.533,     -3.14727, 10.60503,50.00000,63.00000,3.351462e-09,0.83323,4
593.103,424.413,     -3.15266, 10.63926,50.00000,64.00000,3.353044e-09,0.83305,4
593.987,425.293,     -3.15954, 10.62785,50.00000,63.00000,3.351522e-09,0.83286,4
594.869,426.173,     -3.16736, 10.62785,50.00000,63.00000,3.349098e-09,0.83268,4
595.75,427.053,     -3.17140, 10.62785,50.00000,64.00000,3.354438e-09,0.83251,4
596.638,427.933,     -3.17735, 10.60503,50.00000,64.00000,3.356631e-09,0.83231,4
597.523,428.813,     -3.18046, 10.66208,50.00000,64.00000,3.356128e-09,0.83214,4
598.401,429.693,     -3.19588, 10.61644,50.00000,63.00000,3.354935e-09,0.83199,4
599.276,430.573,     -3.19420, 10.66208,50.00000,64.00000,3.342939e-09,0.83178,4
599.729,431.01,     -3.20198, 10.61644,50.00000,64.00000,3.351981e-09,0.83170,5
599.988,431.12,     -3.03256, 10.66208,50.00000,64.00000,3.343815e-09,0.83166,5
600.637,431.23,     -2.23676, 10.75336,50.00000,64.00000,3.347365e-09,0.83164,5
601.779,431.34,     -0.75701, 10.84799,50.00000,64.00000,3.347365e-09,0.83164,5
603.434,431.45,      1.19965, 11.05705,50.00000,64.00000,3.342734e-09,0.83160,5
605.487,431.56,      3.31454, 11.20872,50.00000,64.00000,3.344842e-09,0.83157,5
607.822,431.67,      5.28071, 11.30000,50.00000,64.00000,3.344842e-09,0.83157,5
610.302,431.78,      6.85805, 11.39094,50.00000,64.00000,3.346377e-09,0.83151,5
612.792,431.89,      7.93050, 11.48221,50.00000,64.00000,3.349407e-09,0.83149,5
615.209,432,      8.46031, 11.52752,50.00000,64.00000,3.349407e-09,0.83149,5
617.486,432.11,      8.53368, 11.57315,50.00000,64.00000,3.349821e-09,0.83146,5
619.625,432.22,      8.24592, 11.57315,50.00000,64.00000,3.348668e-09,0.83143,5
621.604,432.33,      7.75381, 11.58456,50.00000,64.00000,3.348668e-09,0.83143,5
623.489,432.44,      7.17978, 11.53893,50.00000,64.00000,3.350137e-09,0.83139,5
625.296,432.55,      6.64002, 11.53893,50.00000,64.00000,3.347733e-09,0.83135,5
627.072,432.66,      6.18610, 11.53893,50.00000,64.00000,3.347733e-09,0.83135,5
628.854,432.77,      5.89730, 11.58456,50.00000,64.00000,3.347195e-09,0.83132,5
630.673,432.88,      5.76293, 11.58456,50.00000,63.00000,3.344760e-09,0.83129,5
632.555,432.99,      5.75642, 11.67584,50.00000,64.00000,3.344760e-09,0.83129,5
634.47,433.1,      5.86649, 11.67584,50.00000,64.00000,3.353363e-09,0.83125,5
636.463,433.21,      6.03627, 11.72114,50.00000,64.00000,3.348069e-09,0.83122,5
638.509,433.32,      6.23079, 11.76678,50.00000,64.00000,3.348069e-09,0.83122,5
640.599,433.43,      6.42484, 11.81242,50.00000,64.00000,3.352297e-09,0.83118,5
642.722,433.54,      6.59647, 11.81242,50.00000,64.00000,3.344908e-09,0.83115,5
644.866,433.65,      6.72601, 11.85805,50.00000,63.00000,3.344908e-09,0.83115,5
647.033,433.76,      6.80369, 11.90336,50.00000,63.00000,3.345343e-09,0.83111,5
649.191,433.87,      6.83898, 11.91477,50.00000,64.00000,3.343358e-09,0.83109,5
651.344,433.98,      6.84468, 11.94899,50.00000,64.00000,3.343358e-09,0.83109,5
653.507,434.09,      6.82321, 11.97181,50.00000,64.00000,3.350397e-09,0.83104,5
655.698,434.2,      6.77705, 11.99463,50.00000,64.00000,3.345806e-09,0.83101,5
657.872,434.31,      6.72847, 12.04027,50.00000,63.00000,3.345806e-09,0.83101,5
660.056,434.42,      6.68168, 12.08591,50.00000,63.00000,3.345189e-09,0.83097,5
662.23,434.53,      6.62998, 12.08591,50.00000,63.00000,3.350109e-09,0.83095,5
664.422,434.64,      6.57910, 12.13121,50.00000,63.00000,3.350109e-09,0.83095,5
666.633,434.75,      6.53672, 12.17685,50.00000,64.00000,3.351011e-09,0.83091,5
668.834,434.86,      6.49962, 12.17685,50.00000,63.00000,3.349559e-09,0.83089,5
671.054,434.97,      6.44449, 12.22248,50.00000,63.00000,3.349559e-09,0.83089,5
673.277,435.08,      6.40548, 12.22248,50.00000,63.00000,3.346555e-09,0.83084,5
675.504,435.19,      6.36059, 12.26812,50.00000,63.00000,3.349215e-09,0.83081,5
677.752,435.3,      6.28878, 12.26812,50.00000,63.00000,3.349215e-09,0.83081,5
679.982,435.41,      6.22783, 12.31342,50.00000,63.00000,3.343915e-09,0.83078,5
682.236,435.52,      6.16772, 12.35906,50.00000,63.00000,3.344892e-09,0.83074,5
684.474,435.63,      6.09786, 12.37047,50.00000,64.00000,3.344892e-09,0.83074,5
686.723,435.74,      6.02355, 12.40470,50.00000,63.00000,3.350636e-09,0.83071,5
688.975,435.85,      5.94886, 12.45034,50.00000,63.00000,3.347202e-09,0.83067,5
691.224,435.96,      5.86752, 12.45034,50.00000,63.00000,3.347202e-09,0.83067,5
693.477,436.07,      5.77533, 12.49564,50.00000,63.00000,3.348808e-09,0.83064,5
695.729,436.18,      5.68059, 12.49564,50.00000,63.00000,3.348575e-09,0.83061,5
697.98,436.29,      5.59431, 12.51846,50.00000,64.00000,3.348575e-09,0.83061,5
700.237,436.4,      5.50081, 12.54128,50.00000,64.00000,3.352074e-09,0.83057,5
702.495,436.51,      5.41424, 12.58691,50.00000,63.00000,3.342827e-09,0.83053,5
704.753,436.62,      5.31669, 12.62114,50.00000,64.00000,3.342827e-09,0.83053,5
707.019,436.73,      5.22772, 12.63255,50.00000,64.00000,3.351191e-09,0.83051,5
709.273,436.84,      5.13138, 12.63255,50.00000,64.00000,3.342869e-09,0.83047,5
711.543,436.95,      5.03094, 12.67785,50.00000,64.00000,3.342869e-09,0.83047,5
713.795,437.06,      4.92996, 12.68926,50.00000,64.00000,3.343242e-09,0.83044,5
716.064,437.17,      4.81471, 12.72349,50.00000,64.00000,3.345538e-09,0.83040,5
718.32,437.28,      4.71279, 12.73490,50.00000,64.00000,3.345538e-09,0.83040,5
720.582,437.39,      4.60187, 12.76913,50.00000,64.00000,3.347109e-09,0.83036,5
722.852,437.5,      4.49747, 12.81477,50.00000,64.00000,3.343046e-09,0.83033,5
725.121,437.61,      4.38613, 12.86007,50.00000,64.00000,3.343046e-09,0.83033,5
727.376,437.72,      4.28073, 12.86007,50.00000,64.00000,3.347818e-09,0.83030,5
729.641,437.83,      4.16247, 12.86007,50.00000,64.00000,3.349542e-09,0.83026,5
731.908,437.94,      4.05615, 12.95134,50.00000,64.00000,3.349542e-09,0.83026,5
734.171,438.05,      3.94231, 12.95134,50.00000,64.00000,3.350455e-09,0.83022,5
736.421,438.16,      3.82630, 12.95134,50.00000,64.00000,3.348676e-09,0.83019,5
738.681,438.27,      3.70710, 12.99698,50.00000,64.00000,3.348676e-09,0.83019,5
740.943,438.38,      3.59559, 12.99698,50.00000,64.00000,3.346181e-09,0.83015,5
743.201,438.49,      3.47430, 13.04228,50.00000,64.00000,3.340246e-09,0.83013,5
745.47,438.6,      3.36020, 13.07651,50.00000,64.00000,3.340246e-09,0.83013,5
747.711,438.71,      3.24114, 13.07651,50.00000,64.00000,3.344456e-09,0.83009,5
749.975,438.82,      3.11174, 13.11074,50.00000,64.00000,3.343790e-09,0.83005,5
752.226,438.93,      2.99942, 13.13356,50.00000,64.00000,3.343790e-09,0.83005,5
754.479,439.04,      2.88332, 13.11074,50.00000,64.00000,3.343699e-09,0.83002,5
756.75,439.15,      2.76291, 13.13356,50.00000,64.00000,3.344437e-09,0.82999,5
758.992,439.26,      2.64360, 13.17919,50.00000,64.00000,3.344437e-09,0.82999,5
761.251,439.37,      2.52216, 13.17919,50.00000,64.00000,3.346770e-09,0.82995,5
763.5,439.48,      2.39408, 13.22483,50.00000,64.00000,3.349985e-09,0.82992,5
765.76,439.59,      2.27108, 13.24732,50.00000,64.00000,3.349985e-09,0.82992,5
768.003,439.7,      2.14698, 13.27013,50.00000,64.00000,3.347005e-09,0.82988,5
770.256,439.81,      2.04258, 13.27013,50.00000,63.00000,3.350272e-09,0.82985,5
772.494,439.92,      1.90290, 13.31577,50.00000,63.00000,3.350272e-09,0.82985,5
774.739,440.03,      1.78012, 13.32718,50.00000,64.00000,3.343622e-09,0.82982,5
776.995,440.14,      1.65854, 13.31577,50.00000,64.00000,3.349645e-09,0.82977,5
779.238,440.25,      1.53872, 13.31577,50.00000,64.00000,3.349645e-09,0.82977,5
781.484,440.36,      1.41162, 13.36141,50.00000,64.00000,3.347337e-09,0.82975,5
783.734,440.47,      1.28288, 13.40705,50.00000,64.00000,3.346628e-09,0.82971,5
785.98,440.58,      1.16043, 13.40705,50.00000,64.00000,3.346628e-09,0.82971,5
788.226,440.69,      1.03464, 13.40705,50.00000,64.00000,3.343354e-09,0.82967,5
790.477,440.8,      0.90949, 13.44094,50.00000,64.00000,            ,0.44871,5
792.718,440.91,      0.78612, 13.45235,50.00000,64.00000,            ,0.44781,5
793.536,440.95,      0.73692, 13.45235,50.00000,64.00000,            ,0.44748,5