File: data/TGA/ps_scf3_flynn_ozawa_wall/ExpDat_2025_11_18_SL_PS_005D-L1_10K_min.csv
#EXPORTTYPE:                 ,DATA ALL
#FILE:                       ,2025_11_18_SL_PS_005D-L1_10K_min.ngb-ss5
#FORMAT:                     ,NETZSCH5
#FTYPE:                      ,ASCII
#IDENTITY:                   ,PS-005d-L1
#DECIMAL:                    ,POINT
#SEPARATOR:                  ,COMMA
#MTYPE:                      ,DSC
#INSTRUMENT:                 ,NETZSCH STA 449F5
#PROJECT:                    ,PS
#DATE/TIME:                  ,11/22/2025 12:23:44 PM (UTC-5)
#CORR. FILE:                 ,
#TEMPCAL:                    ,05-05-2025 14:38
#SENSITIVITY:                ,28-06-2023 13:53
#LABORATORY:                 ,Tran
#OPERATOR:                   ,Stan
#REMARK:                     ,
#SAMPLE:                     ,PS-005d-L1
#SAMPLE MASS /mg:            ,2.5
#MATERIAL:                   ,
#REFERENCE:                  ,
#REFERENCE MASS /mg:         ,0
#TYPE OF CRUCIBLE:           ,Al2O3 85 ‘l, open
#SAMPLE CRUCIBLE MASS /mg:   ,0
#REFERENCE CRUCIBLE MASS /mg:,0
#DSC RANGE /‘V:              ,5000
#TG RANGE /mg:               ,35000
#TAU-R:                      ,---
#CORR. CODE:                 ,000
#EXO:                        ,-1
#RANGE:                      ,20›C....800›C/0.0....20.0K/min
#SEGMENT:                    ,S1-5/5
#SEG. 1:                     ,20›C/5.0(K/min)/100›C
#SEG. 2:                     ,100›C/00:05/100›C
#SEG. 3:                     ,100›C/10.0(K/min)/200›C
#SEG. 4:                     ,200›C/10.0(K/min)/600›C
#SEG. 5:                     ,600›C/20.0(K/min)/800›C

##Temp./›C,Time/min,DSC/(mW/mg),Mass/%,Gas Flow(purge2)/(ml/min),Gas Flow(protective)/(ml/min),TIC(scan:1)/A,Sensit./(uV/mW),Segment
 27.56400, 0.00000,      2.44218,    100,50.00000,63.00000,            ,0.92308,1
 29.07900, 0.86667,      1.10056,     99.38000,50.00000,62.00000,3.304226e-09,0.92321,1
 30.31500, 1.73333,      0.74707,     80.84440,50.00000,62.00000,3.302550e-09,0.92332,1
 31.43000, 2.60000,      0.63195,     81.55040,50.00000,62.00000,3.303751e-09,0.92344,1
 32.79000, 3.46667,      0.74210,     81.42800,50.00000,62.00000,3.303025e-09,0.92353,1
 34.71500, 4.33333,      1.04195,     81.68600,50.00000,62.00000,3.306646e-09,0.92361,1
 37.26800, 5.20000,      1.42534,     82.19280,50.00000,62.00000,3.297737e-09,0.92369,1
 40.42000, 6.06667,      1.82486,     82.88520,50.00000,62.00000,3.297689e-09,0.92378,1
 44.19900, 6.93333,      2.21613,     83.50960,50.00000,62.00000,3.302107e-09,0.92386,1
 48.46400, 7.80000,      2.57855,     84.23840,50.00000,62.00000,3.301123e-09,0.92395,1
 53.14800, 8.66667,      2.90874,     84.92600,50.00000,62.00000,3.301329e-09,0.92405,1
 58.15000, 9.53333,      3.19080,     85.25200,50.00000,62.00000,3.304937e-09,0.92418,1
 63.37900,10.40000,      3.40950,     85.72720,50.00000,62.00000,3.295127e-09,0.92430,1
 68.69100,11.26667,      3.58045,     86.04400,50.00000,62.00000,3.302941e-09,0.92443,1
 74.03300,12.13333,      3.70374,     86.23400,50.00000,62.00000,3.299767e-09,0.92458,1
 79.35500,13.00000,      3.79089,     86.36960,50.00000,62.00000,3.298889e-09,0.92473,1
 84.63400,13.86667,      3.84747,     86.45120,50.00000,62.00000,3.298425e-09,0.92491,1
 89.84700,14.73333,      3.87701,     86.54640,50.00000,62.00000,3.302322e-09,0.92507,1
 94.95900,15.60000,      3.88006,     86.54640,50.00000,62.00000,3.299816e-09,0.92523,1
 99.15300,16.33417,      3.84106,     86.38320,50.00000,62.00000,3.300372e-09,0.92535,2
102.137,16.98417,      3.36079,     85.45120,50.00000,62.00000,3.302878e-09,0.92547,2
104.189,17.63417,      2.56894,     84.34240,50.00000,62.00000,3.299346e-09,0.92558,2
105.66,18.28417,      1.93153,     83.60040,50.00000,62.00000,3.304761e-09,0.92569,2
106.794,18.93417,      1.48766,     82.98040,50.00000,62.00000,3.303535e-09,0.92579,2
107.576,19.58417,      1.10282,     82.31040,50.00000,62.00000,3.305291e-09,0.92589,2
107.996,20.23417,      0.71306,     81.61360,50.00000,62.00000,3.301993e-09,0.92597,2
108.095,20.88417,      0.36102,     80.96200,50.00000,62.00000,3.301944e-09,0.92604,2
108.08,21.05417,      0.28098,     80.79440,50.00000,62.00000,3.305269e-09,0.92606,3
108.055,21.18417,      0.23548,     80.68600,50.00000,62.00000,3.304678e-09,0.92607,3
108.056,21.31417,      0.21854,     80.68600,50.00000,62.00000,3.302629e-09,0.92609,3
108.137,21.44417,      0.24379,     80.79440,50.00000,62.00000,3.302629e-09,0.92609,3
108.235,21.57417,      0.32152,     81.07520,50.00000,62.00000,3.307000e-09,0.92610,3
108.406,21.70417,      0.44875,     81.33760,50.00000,62.00000,3.303373e-09,0.92611,3
108.65,21.83417,      0.62950,     81.69040,50.00000,62.00000,3.303023e-09,0.92613,3
108.97,21.96417,      0.84684,     82.02080,50.00000,62.00000,3.305452e-09,0.92614,3
109.354,22.09417,      1.09979,     82.47800,50.00000,62.00000,3.305452e-09,0.92614,3
109.792,22.22417,      1.37710,     82.79920,50.00000,62.00000,3.304434e-09,0.92615,3
110.304,22.35417,      1.66616,     83.10240,50.00000,62.00000,3.296554e-09,0.92616,3
110.867,22.48417,      1.95702,     83.61840,50.00000,62.00000,3.302266e-09,0.92617,3
111.472,22.61417,      2.24070,     83.87160,50.00000,62.00000,3.302266e-09,0.92617,3
112.115,22.74417,      2.51523,     84.16600,50.00000,62.00000,3.297647e-09,0.92617,3
112.792,22.87417,      2.77096,     84.41920,50.00000,62.00000,3.305265e-09,0.92618,3
113.51,23.00417,      3.00689,     84.67720,50.00000,62.00000,3.301777e-09,0.92619,3
114.228,23.13417,      3.22565,     84.88560,50.00000,62.00000,3.312015e-09,0.92619,3
114.998,23.26417,      3.42362,     85.08440,50.00000,62.00000,3.312015e-09,0.92619,3
115.759,23.39417,      3.60671,     85.25640,50.00000,62.00000,3.303827e-09,0.92619,3
116.553,23.52417,      3.77631,     85.44640,50.00000,62.00000,3.307185e-09,0.92620,3
117.354,23.65417,      3.93770,     85.69080,50.00000,62.00000,3.309525e-09,0.92620,3
118.186,23.78417,      4.09392,     85.80400,50.00000,62.00000,3.307747e-09,0.92620,3
119.047,23.91417,      4.25196,     86.00760,50.00000,62.00000,3.307747e-09,0.92620,3
119.928,24.04417,      4.40550,     86.22040,50.00000,62.00000,3.310080e-09,0.92620,3
120.856,24.17417,      4.56591,     86.39680,50.00000,62.00000,3.307089e-09,0.92620,3
121.798,24.30417,      4.73217,     86.61880,50.00000,62.00000,3.305995e-09,0.92620,3
122.794,24.43417,      4.90102,     86.88120,50.00000,62.00000,3.304373e-09,0.92620,3
123.806,24.56417,      5.08210,     87.08040,50.00000,62.00000,3.304373e-09,0.92620,3
124.866,24.69417,      5.26613,     87.28400,50.00000,62.00000,3.305164e-09,0.92619,3
125.944,24.82417,      5.45542,     87.44680,50.00000,62.00000,3.306494e-09,0.92619,3
127.068,24.95417,      5.65138,     87.75000,50.00000,62.00000,3.306329e-09,0.92618,3
128.219,25.08417,      5.84664,     87.94440,50.00000,62.00000,3.305311e-09,0.92617,3
129.41,25.21417,      6.04326,     88.13920,50.00000,62.00000,3.305311e-09,0.92617,3
130.611,25.34417,      6.23747,     88.33360,50.00000,62.00000,3.309847e-09,0.92617,3
131.87,25.47417,      6.43145,     88.57360,50.00000,62.00000,3.311732e-09,0.92616,3
133.123,25.60417,      6.61932,     88.73200,50.00000,62.00000,3.299543e-09,0.92615,3
134.41,25.73417,      6.79751,     88.89960,50.00000,62.00000,3.299543e-09,0.92615,3
135.718,25.86417,      6.97772,     89.08480,50.00000,62.00000,3.302385e-09,0.92614,3
137.051,25.99417,      7.14353,     89.26600,50.00000,62.00000,3.304961e-09,0.92612,3
138.399,26.12417,      7.30564,     89.37440,50.00000,62.00000,3.307435e-09,0.92611,3
139.793,26.25417,      7.46014,     89.57840,50.00000,62.00000,3.304625e-09,0.92610,3
141.169,26.38417,      7.60510,     89.66440,50.00000,62.00000,3.304625e-09,0.92610,3
142.56,26.51417,      7.74366,     89.78640,50.00000,62.00000,3.308374e-09,0.92608,3
143.974,26.64417,      7.87586,     90.01280,50.00000,62.00000,3.298128e-09,0.92606,3
145.39,26.77417,      7.99957,     90.06680,50.00000,62.00000,3.308745e-09,0.92605,3
146.831,26.90417,      8.12095,     90.17560,50.00000,62.00000,3.307981e-09,0.92603,3
148.282,27.03417,      8.22847,     90.29760,50.00000,62.00000,3.307981e-09,0.92603,3
149.723,27.16417,      8.33688,     90.35200,50.00000,62.00000,3.305262e-09,0.92601,3
151.197,27.29417,      8.44097,     90.46080,50.00000,62.00000,3.299331e-09,0.92599,3
152.675,27.42417,      8.53823,     90.56920,50.00000,62.00000,3.302728e-09,0.92597,3
154.149,27.55417,      8.63201,     90.67800,50.00000,62.00000,3.302071e-09,0.92594,3
155.655,27.68417,      8.72281,     90.73200,50.00000,62.00000,3.302071e-09,0.92594,3
157.139,27.81417,      8.80662,     90.89960,50.00000,62.00000,3.307347e-09,0.92592,3
158.638,27.94417,      8.88770,     90.95400,50.00000,62.00000,3.301614e-09,0.92590,3
160.142,28.07417,      8.96599,     91.06240,50.00000,62.00000,3.299610e-09,0.92587,3
161.661,28.20417,      9.03882,     91.11680,50.00000,62.00000,3.299610e-09,0.92587,3
163.186,28.33417,      9.10749,     91.17120,50.00000,62.00000,3.304234e-09,0.92584,3
164.688,28.46417,      9.16773,     91.22560,50.00000,62.00000,3.304396e-09,0.92581,3
166.208,28.59417,      9.23000,     91.27960,50.00000,62.00000,3.305701e-09,0.92579,3
167.728,28.72417,      9.28463,     91.33400,50.00000,62.00000,3.296740e-09,0.92576,3
169.251,28.85417,      9.33333,     91.38840,50.00000,62.00000,3.296740e-09,0.92576,3
170.775,28.98417,      9.38052,     91.48360,50.00000,62.00000,3.301286e-09,0.92573,3
172.292,29.11417,      9.42272,     91.55120,50.00000,62.00000,3.305610e-09,0.92569,3
173.812,29.24417,      9.45964,     91.60560,50.00000,62.00000,3.304820e-09,0.92566,3
175.348,29.37417,      9.49580,     91.71400,50.00000,62.00000,3.301209e-09,0.92562,3
176.865,29.50417,      9.52411,     91.65520,50.00000,62.00000,3.301209e-09,0.92562,3
178.39,29.63417,      9.55263,     91.71880,50.00000,62.00000,3.305466e-09,0.92559,3
179.892,29.76417,      9.57460,     91.73240,50.00000,62.00000,3.304337e-09,0.92555,3
181.422,29.89417,      9.59449,     91.82720,50.00000,62.00000,3.312009e-09,0.92552,3
182.948,30.02417,      9.61277,     91.82720,50.00000,62.00000,3.307173e-09,0.92548,3
184.461,30.15417,      9.62522,     91.82720,50.00000,62.00000,3.307173e-09,0.92548,3
185.98,30.28417,      9.63714,     91.88160,50.00000,62.00000,3.302284e-09,0.92544,3
187.498,30.41417,      9.64571,     91.88160,50.00000,62.00000,3.304708e-09,0.92540,3
188.989,30.54417,      9.64933,     91.93600,50.00000,62.00000,3.304215e-09,0.92536,3
190.501,30.67417,      9.65043,     91.93600,50.00000,62.00000,3.306050e-09,0.92532,3
192,30.80417,      9.64874,     91.99040,50.00000,62.00000,3.306050e-09,0.92532,3
193.506,30.93417,      9.64510,     91.99040,50.00000,62.00000,3.301083e-09,0.92527,3
194.988,31.06417,      9.63962,     92.04440,50.00000,62.00000,3.307187e-09,0.92523,4
196.487,31.19417,      9.62981,     91.99040,50.00000,62.00000,3.308653e-09,0.92518,4
197.952,31.32417,      9.61804,     92.04440,50.00000,62.00000,3.308653e-09,0.92518,4
199.437,31.45417,      9.60789,     92.08520,50.00000,62.00000,3.297062e-09,0.92514,4
200.909,31.58417,      9.59419,     92.08520,50.00000,62.00000,3.303394e-09,0.92509,4
202.361,31.71417,      9.57793,     92.03080,50.00000,62.00000,3.299250e-09,0.92504,4
203.821,31.84417,      9.56071,     92.08520,50.00000,62.00000,3.300083e-09,0.92499,4
205.287,31.97417,      9.54077,     92.13960,50.00000,62.00000,3.300083e-09,0.92499,4
206.737,32.10417,      9.52531,     92.09880,50.00000,62.00000,3.296551e-09,0.92494,4
208.18,32.23417,      9.50630,     92.15320,50.00000,62.00000,3.297115e-09,0.92489,4
209.629,32.36417,      9.49020,     92.15320,50.00000,62.00000,3.303606e-09,0.92484,4
211.068,32.49417,      9.46980,     92.15320,50.00000,62.00000,3.309974e-09,0.92479,4
212.489,32.62417,      9.44787,     92.19400,50.00000,62.00000,3.309974e-09,0.92479,4
213.933,32.75417,      9.42968,     92.19400,50.00000,62.00000,3.303674e-09,0.92473,4
215.345,32.88417,      9.41090,     92.15320,50.00000,62.00000,3.303089e-09,0.92468,4
216.751,33.01417,      9.38782,     92.20760,50.00000,62.00000,3.302525e-09,0.92462,4
218.17,33.14417,      9.36273,     92.15320,50.00000,62.00000,3.302525e-09,0.92462,4
219.587,33.27417,      9.34368,     92.26160,50.00000,62.00000,3.301910e-09,0.92457,4
220.999,33.40417,      9.31997,     92.20760,50.00000,62.00000,3.298384e-09,0.92451,4
222.394,33.53417,      9.29254,     92.26160,50.00000,62.00000,3.306645e-09,0.92445,4
223.783,33.66417,      9.27328,     92.26160,50.00000,62.00000,3.301720e-09,0.92439,4
225.18,33.79417,      9.24837,     92.20760,50.00000,62.00000,3.301720e-09,0.92439,4
226.57,33.92417,      9.21981,     92.31600,50.00000,62.00000,3.300441e-09,0.92433,4
227.948,34.05417,      9.19867,     92.26160,50.00000,62.00000,3.301414e-09,0.92427,4
229.324,34.18417,      9.17176,     92.26160,50.00000,62.00000,3.300301e-09,0.92421,4
230.696,34.31417,      9.14625,     92.26160,50.00000,62.00000,3.300301e-09,0.92421,4
232.068,34.44417,      9.12505,     92.31600,50.00000,62.00000,3.298138e-09,0.92414,4
233.422,34.57417,      9.10008,     92.28880,50.00000,62.00000,3.307725e-09,0.92408,4
234.796,34.70417,      9.07491,     92.34320,50.00000,62.00000,3.307645e-09,0.92401,4
236.157,34.83417,      9.05287,     92.31600,50.00000,62.00000,3.302858e-09,0.92395,4
237.51,34.96417,      9.02894,     92.34320,50.00000,62.00000,3.302858e-09,0.92395,4
238.857,35.09417,      9.00422,     92.34320,50.00000,62.00000,3.306527e-09,0.92388,4
240.2,35.22417,      8.98308,     92.39760,50.00000,62.00000,3.302164e-09,0.92381,4
241.551,35.35417,      8.95873,     92.34320,50.00000,62.00000,3.302053e-09,0.92374,4
242.907,35.48417,      8.93878,     92.39760,50.00000,62.00000,3.302656e-09,0.92367,4
244.252,35.61417,      8.91726,     92.34320,50.00000,62.00000,3.302656e-09,0.92367,4
245.579,35.74417,      8.89301,     92.39760,50.00000,62.00000,3.301997e-09,0.92360,4
246.923,35.87417,      8.87437,     92.39760,50.00000,62.00000,3.304760e-09,0.92353,4
248.252,36.00417,      8.84864,     92.39760,50.00000,62.00000,3.299943e-09,0.92346,4
249.58,36.13417,      8.83131,     92.43840,50.00000,62.00000,3.306718e-09,0.92339,4
250.91,36.26417,      8.80628,     92.45200,50.00000,62.00000,3.306718e-09,0.92339,4
252.252,36.39417,      8.78316,     92.45200,50.00000,62.00000,3.303124e-09,0.92331,4
253.571,36.52417,      8.76350,     92.45200,50.00000,62.00000,3.299604e-09,0.92324,4
254.894,36.65417,      8.74017,     92.47880,50.00000,62.00000,3.308761e-09,0.92317,4
256.204,36.78417,      8.72113,     92.47880,50.00000,62.00000,3.308761e-09,0.92317,4
257.524,36.91417,      8.69810,     92.47880,50.00000,62.00000,3.306106e-09,0.92309,4
258.85,37.04417,      8.67695,     92.47880,50.00000,62.00000,3.304361e-09,0.92301,4
260.17,37.17417,      8.65424,     92.47880,50.00000,62.00000,3.307243e-09,0.92293,4
261.482,37.30417,      8.63551,     92.47880,50.00000,62.00000,3.300066e-09,0.92286,4
262.793,37.43417,      8.61526,     92.53320,50.00000,62.00000,3.300066e-09,0.92286,4
264.117,37.56417,      8.59437,     92.49240,50.00000,62.00000,3.306929e-09,0.92278,4
265.402,37.69417,      8.57570,     92.53320,50.00000,62.00000,3.306098e-09,0.92270,4
266.734,37.82417,      8.55596,     92.50600,50.00000,62.00000,3.298444e-09,0.92261,4
268.038,37.95417,      8.53967,     92.56040,50.00000,62.00000,3.304979e-09,0.92253,4
269.326,38.08417,      8.51984,     92.56040,50.00000,62.00000,3.304979e-09,0.92253,4
270.641,38.21417,      8.50437,     92.56040,50.00000,62.00000,3.299613e-09,0.92245,4
271.937,38.34417,      8.48457,     92.56040,50.00000,62.00000,3.300950e-09,0.92237,4
273.244,38.47417,      8.46298,     92.56040,50.00000,62.00000,3.302987e-09,0.92228,4
274.544,38.60417,      8.44278,     92.60120,50.00000,62.00000,3.302987e-09,0.92228,4
275.847,38.73417,      8.42787,     92.54680,50.00000,62.00000,3.296689e-09,0.92220,4
277.154,38.86417,      8.40618,     92.57400,50.00000,62.00000,3.304613e-09,0.92211,4
278.452,38.99417,      8.39118,     92.60120,50.00000,62.00000,3.302562e-09,0.92203,4
279.75,39.12417,      8.37048,     92.65560,50.00000,62.00000,3.303648e-09,0.92194,4
281.045,39.25417,      8.35275,     92.62840,50.00000,62.00000,3.303648e-09,0.92194,4
282.345,39.38417,      8.33580,     92.60120,50.00000,62.00000,3.308402e-09,0.92186,4
283.633,39.51417,      8.32023,     92.65560,50.00000,62.00000,3.303554e-09,0.92177,4
284.913,39.64417,      8.30533,     92.65560,50.00000,62.00000,3.302493e-09,0.92170,4
286.231,39.77417,      8.28886,     92.65560,50.00000,62.00000,3.302519e-09,0.92164,4
287.513,39.90417,      8.26897,     92.65560,50.00000,62.00000,3.302519e-09,0.92164,4
288.812,40.03417,      8.25647,     92.60120,50.00000,62.00000,3.301436e-09,0.92157,4
290.096,40.16417,      8.24266,     92.62840,50.00000,62.00000,3.303716e-09,0.92150,4
291.397,40.29417,      8.22631,     92.62840,50.00000,62.00000,3.301602e-09,0.92144,4
292.688,40.42417,      8.21522,     92.62840,50.00000,62.00000,3.301329e-09,0.92137,4
293.972,40.55417,      8.19904,     92.65560,50.00000,62.00000,3.301329e-09,0.92137,4
295.27,40.68417,      8.18720,     92.60120,50.00000,62.00000,3.301317e-09,0.92130,4
296.558,40.81417,      8.17410,     92.60120,50.00000,62.00000,3.305336e-09,0.92123,4
297.837,40.94417,      8.16050,     92.54680,50.00000,62.00000,3.301252e-09,0.92117,4
299.135,41.07417,      8.14513,     92.51960,50.00000,62.00000,3.299780e-09,0.92111,4
300.421,41.20417,      8.13155,     92.50600,50.00000,62.00000,3.299780e-09,0.92111,4
301.719,41.33417,      8.11923,     92.54680,50.00000,62.00000,3.301609e-09,0.92105,4
303.005,41.46417,      8.10871,     92.49240,50.00000,62.00000,3.300927e-09,0.92099,4
304.294,41.59417,      8.10133,     92.43840,50.00000,62.00000,3.298592e-09,0.92093,4
305.584,41.72417,      8.08926,     92.43840,50.00000,62.00000,3.306968e-09,0.92087,4
306.877,41.85417,      8.07564,     92.41120,50.00000,62.00000,3.306968e-09,0.92087,4
308.16,41.98417,      8.06424,     92.37480,50.00000,62.00000,3.300871e-09,0.92081,4
309.44,42.11417,      8.05357,     92.32040,50.00000,62.00000,3.305510e-09,0.92075,4
310.735,42.24417,      8.04107,     92.26640,50.00000,62.00000,3.296022e-09,0.92070,4
312.024,42.37417,      8.02966,     92.22560,50.00000,62.00000,3.296022e-09,0.92070,4
313.327,42.50417,      8.02191,     92.15320,50.00000,62.00000,3.306585e-09,0.92064,4
314.596,42.63417,      8.01224,     92.09880,50.00000,62.00000,3.306383e-09,0.92059,4
315.887,42.76417,      8.00237,     92.04440,50.00000,62.00000,3.305961e-09,0.92054,4
317.179,42.89417,      7.99131,     91.89520,50.00000,62.00000,3.302672e-09,0.92049,4
318.46,43.02417,      7.97971,     91.88160,50.00000,62.00000,3.302672e-09,0.92049,4
319.754,43.15417,      7.96702,     91.77320,50.00000,62.00000,3.302888e-09,0.92044,4
321.048,43.28417,      7.96146,     91.66440,50.00000,62.00000,3.301817e-09,0.92040,4
322.324,43.41417,      7.95094,     91.54680,50.00000,62.00000,3.294757e-09,0.92034,4
323.632,43.54417,      7.94629,     91.43800,50.00000,62.00000,3.302699e-09,0.92030,4
324.903,43.67417,      7.94247,     91.38400,50.00000,62.00000,3.302699e-09,0.92030,4
326.19,43.80417,      7.93159,     91.24800,50.00000,62.00000,3.307754e-09,0.92025,4
327.481,43.93417,      7.92474,     91.15760,50.00000,62.00000,3.296376e-09,0.92022,4
328.776,44.06417,      7.91671,     90.99000,50.00000,62.00000,3.302414e-09,0.92017,4
330.059,44.19417,      7.90532,     90.93600,50.00000,62.00000,3.299360e-09,0.92013,4
331.348,44.32417,      7.89718,     90.70040,50.00000,62.00000,3.299360e-09,0.92013,4
332.636,44.45417,      7.89063,     90.50600,50.00000,62.00000,3.305446e-09,0.92009,4
333.92,44.58417,      7.87997,     90.46520,50.00000,62.00000,3.301205e-09,0.92005,4
335.216,44.71417,      7.86617,     90.23880,50.00000,62.00000,3.302935e-09,0.92002,4
336.499,44.84417,      7.85787,     90.04440,50.00000,62.00000,3.302935e-09,0.92002,4
337.793,44.97417,      7.84966,     89.87680,50.00000,62.00000,3.298088e-09,0.91998,4
339.078,45.10417,      7.83687,     89.66440,50.00000,62.00000,3.300121e-09,0.91994,4
340.37,45.23417,      7.83184,     89.48320,50.00000,62.00000,3.300843e-09,0.91991,4
341.657,45.36417,      7.82675,     89.24800,50.00000,62.00000,3.306764e-09,0.91987,4
342.947,45.49417,      7.81758,     88.97200,50.00000,62.00000,3.306764e-09,0.91987,4
344.222,45.62417,      7.80251,     88.68680,50.00000,62.00000,3.298392e-09,0.91984,4
345.515,45.75417,      7.77895,     88.43320,50.00000,62.00000,3.299703e-09,0.91981,4
346.805,45.88417,      7.76145,     88.14840,50.00000,62.00000,3.305383e-09,0.91977,4
348.084,46.01417,      7.75242,     87.77720,50.00000,62.00000,3.305501e-09,0.91974,4
349.382,46.14417,      7.73365,     87.57800,50.00000,62.00000,3.305501e-09,0.91974,4
350.665,46.27417,      7.71674,     87.21160,50.00000,62.00000,3.302689e-09,0.91971,4
351.948,46.40417,      7.70639,     86.87640,50.00000,62.00000,3.298697e-09,0.91968,4
353.242,46.53417,      7.71392,     86.52360,50.00000,62.00000,3.301456e-09,0.91965,4
354.523,46.66417,      7.70392,     86.17520,50.00000,62.00000,3.301456e-09,0.91965,4
355.809,46.79417,      7.70515,     85.76320,50.00000,62.00000,3.302291e-09,0.91962,4
357.105,46.92417,      7.69691,     85.35160,50.00000,62.00000,3.300472e-09,0.91960,4
358.39,47.05417,      7.70020,     84.95800,50.00000,62.00000,3.297468e-09,0.91957,4
359.675,47.18417,      7.70434,     84.54160,50.00000,62.00000,3.306170e-09,0.91954,4
360.968,47.31417,      7.68974,     83.95320,50.00000,62.00000,3.306170e-09,0.91954,4
362.251,47.44417,      7.68294,     83.64080,50.00000,62.00000,3.306873e-09,0.91951,4
363.538,47.57417,      7.67616,     83.04360,50.00000,62.00000,3.302172e-09,0.91948,4
364.835,47.70417,      7.67618,     82.50520,50.00000,62.00000,3.300530e-09,0.91946,4
366.112,47.83417,      7.68483,     81.98000,50.00000,62.00000,3.302306e-09,0.91943,4
367.412,47.96417,      7.68024,     81.38280,50.00000,62.00000,3.302306e-09,0.91943,4
368.707,48.09417,      7.67854,     80.81280,50.00000,62.00000,3.303864e-09,0.91941,4
369.993,48.22417,      7.68181,     80.17920,50.00000,62.00000,3.301545e-09,0.91938,4
371.291,48.35417,      7.67969,     79.44600,50.00000,62.00000,3.306139e-09,0.91936,4
372.573,48.48417,      7.69991,     78.61320,50.00000,62.00000,3.299128e-09,0.91933,4
373.873,48.61417,      7.69994,     77.85760,50.00000,62.00000,3.299128e-09,0.91933,4
375.156,48.74417,      7.71472,     76.97520,50.00000,62.00000,3.296413e-09,0.91931,4
376.431,48.87417,      7.72732,     76.07920,50.00000,62.00000,3.301004e-09,0.91929,4
377.725,49.00417,      7.75682,     75.20120,50.00000,62.00000,3.301705e-09,0.91927,4
379.018,49.13417,      7.75256,     74.25080,50.00000,62.00000,3.301705e-09,0.91927,4
380.3,49.26417,      7.78421,     73.25960,50.00000,62.00000,3.298067e-09,0.91924,4
381.592,49.39417,      7.81521,     72.15560,50.00000,62.00000,3.301130e-09,0.91922,4
382.878,49.52417,      7.83719,     70.98360,50.00000,62.00000,3.303301e-09,0.91920,4
384.168,49.65417,      7.88516,     69.79320,50.00000,62.00000,3.306948e-09,0.91918,4
385.467,49.78417,      7.93121,     68.61680,50.00000,62.00000,3.306948e-09,0.91918,4
386.758,49.91417,      7.98210,     67.28200,50.00000,62.00000,3.300849e-09,0.91916,4
388.037,50.04417,      8.02954,     65.96040,50.00000,62.00000,3.300698e-09,0.91914,4
389.324,50.17417,      8.06549,     64.54400,50.00000,62.00000,3.297287e-09,0.91912,4
390.617,50.30417,      8.09683,     63.06400,50.00000,62.00000,3.297287e-09,0.91912,4
391.912,50.43417,      8.14964,     61.57080,50.00000,62.00000,3.300942e-09,0.91910,4
393.212,50.56417,      8.19568,     59.95520,50.00000,62.00000,3.300884e-09,0.91908,4
394.494,50.69417,      8.22068,     58.31720,50.00000,62.00000,3.308147e-09,0.91907,4
395.793,50.82417,      8.25907,     56.56560,50.00000,62.00000,3.305603e-09,0.91905,4
397.08,50.95417,      8.28472,     54.81440,50.00000,62.00000,3.305603e-09,0.91905,4
398.373,51.08417,      8.30656,     52.87760,50.00000,62.00000,3.306677e-09,0.91904,4
399.661,51.21417,      8.31958,     51.09000,50.00000,62.00000,3.300626e-09,0.91902,4
400.946,51.34417,      8.33789,     49.13520,50.00000,62.00000,3.297127e-09,0.91901,4
402.25,51.47417,      8.34585,     47.14400,50.00000,62.00000,3.295834e-09,0.91900,4
403.538,51.60417,      8.34567,     45.05760,50.00000,62.00000,3.295834e-09,0.91900,4
404.815,51.73417,      8.34712,     42.95360,50.00000,62.00000,3.299895e-09,0.91898,4
406.121,51.86417,      8.32312,     40.89000,50.00000,62.00000,3.289186e-09,0.91897,4
407.411,51.99417,      8.29616,     38.76760,50.00000,62.00000,3.302109e-09,0.91896,4
408.696,52.12417,      8.28017,     36.66760,50.00000,62.00000,3.302109e-09,0.91896,4
409.975,52.25417,      8.23903,     34.48200,50.00000,62.00000,3.300124e-09,0.91895,4
411.275,52.38417,      8.18364,     32.39600,50.00000,62.00000,3.295519e-09,0.91894,4
412.576,52.51417,      8.13253,     30.32320,50.00000,62.00000,3.296515e-09,0.91893,4
413.858,52.64417,      8.06037,     28.20080,50.00000,62.00000,3.298882e-09,0.91892,4
415.16,52.77417,      7.98634,     26.15080,50.00000,62.00000,3.298882e-09,0.91892,4
416.452,52.90417,      7.88715,     24.22760,50.00000,62.00000,3.299439e-09,0.91891,4
417.745,53.03417,      7.77542,     22.26800,50.00000,62.00000,3.299531e-09,0.91891,4
419.036,53.16417,      7.64247,     20.38560,50.00000,62.00000,3.293271e-09,0.91889,4
420.329,53.29417,      7.49817,     18.60720,50.00000,62.00000,3.298426e-09,0.91889,4
421.62,53.42417,      7.33791,     16.91000,50.00000,62.00000,3.298426e-09,0.91889,4
422.916,53.55417,      7.16849,     15.28560,50.00000,62.00000,3.294881e-09,0.91888,4
424.202,53.68417,      6.99016,     13.75600,50.00000,62.00000,3.298803e-09,0.91887,4
425.512,53.81417,      6.77311,     12.25800,50.00000,62.00000,3.298056e-09,0.91887,4
426.799,53.94417,      6.58156,     11.00440,50.00000,62.00000,3.298056e-09,0.91887,4
428.098,54.07417,      6.41826,      9.69680,50.00000,62.00000,3.298713e-09,0.91886,4
429.4,54.20417,      6.23606,      8.57000,50.00000,62.00000,3.299449e-09,0.91886,4
430.695,54.33417,      6.05773,      7.52880,50.00000,62.00000,3.298632e-09,0.91886,4
431.994,54.46417,      5.90777,      6.42920,50.00000,62.00000,3.297399e-09,0.91886,4
433.294,54.59417,      5.75497,      5.61040,50.00000,62.00000,3.297399e-09,0.91886,4
434.58,54.72417,      5.60151,      4.83640,50.00000,62.00000,3.299664e-09,0.91885,4
435.876,54.85417,      5.46329,      4.03080,50.00000,62.00000,3.294908e-09,0.91885,4
437.179,54.98417,      5.33018,      3.47880,50.00000,62.00000,3.301151e-09,0.91885,4
438.475,55.11417,      5.20582,      2.83640,50.00000,62.00000,3.300441e-09,0.91884,4
439.763,55.24417,      5.08560,      2.34280,50.00000,62.00000,3.300441e-09,0.91884,4
441.05,55.37417,      4.97099,      1.89480,50.00000,62.00000,3.299698e-09,0.91884,4
442.35,55.50417,      4.86025,      1.45160,50.00000,62.00000,3.293982e-09,0.91884,4
443.646,55.63417,      4.75281,      1.07600,50.00000,62.00000,3.297441e-09,0.91885,4
444.938,55.76417,      4.65011,      0.87680,50.00000,62.00000,3.297441e-09,0.91885,4
446.238,55.89417,      4.55834,      0.60080,50.00000,62.00000,3.296975e-09,0.91885,4
447.526,56.02417,      4.46287,      0.32920,50.00000,62.00000,3.297180e-09,0.91885,4
448.824,56.15417,      4.36899,      0.14800,50.00000,62.00000,3.293079e-09,0.91885,4
450.121,56.28417,      4.28560,-1.200000e-03,50.00000,62.00000,3.298861e-09,0.91885,4
451.415,56.41417,      4.19717,     -0.12800,50.00000,62.00000,3.298861e-09,0.91885,4
452.704,56.54417,      4.11974,     -0.15520,50.00000,62.00000,3.301025e-09,0.91885,4
454.001,56.67417,      4.04397,     -0.23640,50.00000,62.00000,3.300185e-09,0.91885,4
455.304,56.80417,      3.97269,     -0.26360,50.00000,62.00000,3.297751e-09,0.91885,4
456.601,56.93417,      3.90207,     -0.29080,50.00000,62.00000,3.294994e-09,0.91885,4
457.885,57.06417,      3.83969,     -0.33160,50.00000,62.00000,3.294994e-09,0.91885,4
459.178,57.19417,      3.77999,     -0.34520,50.00000,62.00000,3.297611e-09,0.91885,4
460.467,57.32417,      3.72770,     -0.29080,50.00000,62.00000,3.297656e-09,0.91885,4
461.754,57.45417,      3.66993,     -0.34520,50.00000,62.00000,3.298524e-09,0.91885,4
463.058,57.58417,      3.62402,     -0.29080,50.00000,62.00000,3.298524e-09,0.91885,4
464.353,57.71417,      3.57165,     -0.29080,50.00000,62.00000,3.303220e-09,0.91885,4
465.643,57.84417,      3.51857,     -0.29080,50.00000,62.00000,3.299551e-09,0.91885,4
466.929,57.97417,      3.47444,     -0.23640,50.00000,62.00000,3.301824e-09,0.91885,4
468.236,58.10417,      3.42155,     -0.23640,50.00000,62.00000,3.302115e-09,0.91885,4
469.524,58.23417,      3.37467,     -0.23640,50.00000,62.00000,3.302115e-09,0.91885,4
470.825,58.36417,      3.32039,     -0.27720,50.00000,62.00000,3.302111e-09,0.91885,4
472.107,58.49417,      3.27263,     -0.22280,50.00000,62.00000,3.303033e-09,0.91885,4
473.403,58.62417,      3.22184,     -0.19560,50.00000,62.00000,3.297794e-09,0.91885,4
474.707,58.75417,      3.16991,     -0.19560,50.00000,62.00000,3.301722e-09,0.91885,4
475.995,58.88417,      3.11675,     -0.19560,50.00000,62.00000,3.301722e-09,0.91885,4
477.29,59.01417,      3.06392,     -0.16880,50.00000,62.00000,3.305382e-09,0.91885,4
478.583,59.14417,      3.01186,     -0.16880,50.00000,62.00000,3.301973e-09,0.91886,4
479.874,59.27417,      2.95911,     -0.11440,50.00000,62.00000,3.295271e-09,0.91885,4
481.175,59.40417,      2.91111,     -0.11440,50.00000,62.00000,3.301232e-09,0.91885,4
482.465,59.53417,      2.86044,     -0.11440,50.00000,62.00000,3.301232e-09,0.91885,4
483.763,59.66417,      2.80863,     -0.11440,50.00000,62.00000,3.297600e-09,0.91886,4
485.059,59.79417,      2.75662,     -0.11440,50.00000,62.00000,3.300346e-09,0.91885,4
486.355,59.92417,      2.70541,-6.000000e-02,50.00000,62.00000,3.301047e-09,0.91886,4
487.647,60.05417,      2.64954,-6.000000e-02,50.00000,62.00000,3.301047e-09,0.91886,4
488.935,60.18417,      2.59445,-6.000000e-02,50.00000,62.00000,3.294294e-09,0.91886,4
490.224,60.31417,      2.54463,-6.000000e-02,50.00000,62.00000,3.299065e-09,0.91885,4
491.527,60.44417,      2.49070,-6.000000e-02,50.00000,62.00000,3.300951e-09,0.91886,4
492.828,60.57417,      2.43507,-1.920000e-02,50.00000,62.00000,3.302608e-09,0.91886,4
494.123,60.70417,      2.37772,-5.600000e-03,50.00000,62.00000,3.302608e-09,0.91886,4
495.404,60.83417,      2.32613,-6.000000e-02,50.00000,62.00000,3.297248e-09,0.91886,4
496.712,60.96417,      2.26892,-5.600000e-03,50.00000,62.00000,3.297642e-09,0.91885,4
498.005,61.09417,      2.21498, 4.840000e-02,50.00000,62.00000,3.291207e-09,0.91885,4
499.296,61.22417,      2.16688,-5.600000e-03,50.00000,62.00000,3.296882e-09,0.91885,4
500.605,61.35417,      2.11815, 8.920000e-02,50.00000,62.00000,3.296882e-09,0.91885,4
501.894,61.48417,      2.06818, 8.920000e-02,50.00000,62.00000,3.297723e-09,0.91885,4
503.194,61.61417,      2.01807, 8.920000e-02,50.00000,62.00000,3.296901e-09,0.91886,4
504.488,61.74417,      1.96371, 8.920000e-02,50.00000,62.00000,3.308020e-09,0.91886,4
505.781,61.87417,      1.91069, 8.920000e-02,50.00000,62.00000,3.308020e-09,0.91886,4
507.09,62.00417,      1.85243, 8.920000e-02,50.00000,62.00000,3.308082e-09,0.91886,4
508.378,62.13417,      1.79545, 8.920000e-02,50.00000,62.00000,3.299159e-09,0.91885,4
509.681,62.26417,      1.73474, 8.920000e-02,50.00000,62.00000,3.292621e-09,0.91886,4
510.976,62.39417,      1.67993,      0.14360,50.00000,62.00000,3.296141e-09,0.91885,4
512.271,62.52417,      1.62135, 8.920000e-02,50.00000,62.00000,3.296141e-09,0.91885,4
513.577,62.65417,      1.56362,      0.14360,50.00000,62.00000,3.298940e-09,0.91885,4
514.871,62.78417,      1.51284,      0.14360,50.00000,62.00000,3.304345e-09,0.91885,4
516.161,62.91417,      1.46085,      0.14360,50.00000,62.00000,3.296308e-09,0.91885,4
517.47,63.04417,      1.40306,      0.14360,50.00000,62.00000,3.300499e-09,0.91885,4
518.77,63.17417,      1.34918,      0.14360,50.00000,62.00000,3.300499e-09,0.91885,4
520.067,63.30417,      1.28995,      0.14360,50.00000,62.00000,3.302048e-09,0.91885,4
521.368,63.43417,      1.23777,      0.19800,50.00000,62.00000,3.296109e-09,0.91885,4
522.655,63.56417,      1.17865,      0.17080,50.00000,62.00000,3.302716e-09,0.91884,4
523.965,63.69417,      1.11937,      0.17080,50.00000,62.00000,3.294054e-09,0.91884,4
525.268,63.82417,      1.06196,      0.19800,50.00000,62.00000,3.294054e-09,0.91884,4
526.569,63.95417,      1.01008,      0.22520,50.00000,62.00000,3.301047e-09,0.91884,4
527.873,64.08417,      0.95177,      0.17080,50.00000,62.00000,3.296129e-09,0.91884,4
529.171,64.21417,      0.89274,      0.19800,50.00000,62.00000,3.295699e-09,0.91884,4
530.472,64.34417,      0.83195,      0.27920,50.00000,62.00000,3.295699e-09,0.91884,4
531.765,64.47417,      0.77410,      0.26600,50.00000,62.00000,3.303883e-09,0.91883,4
533.078,64.60417,      0.71292,      0.22520,50.00000,62.00000,3.298662e-09,0.91884,4
534.365,64.73417,      0.64995,      0.27920,50.00000,62.00000,3.300628e-09,0.91883,4
535.663,64.86417,      0.59099,      0.22520,50.00000,62.00000,3.295181e-09,0.91883,4
536.969,64.99417,      0.53132,      0.27920,50.00000,62.00000,3.295181e-09,0.91883,4
538.254,65.12417,      0.46827,      0.30640,50.00000,62.00000,3.299148e-09,0.91883,4
539.57,65.25417,      0.40610,      0.27480,50.00000,62.00000,3.294623e-09,0.91883,4
540.851,65.38417,      0.34848,      0.31560,50.00000,62.00000,3.291906e-09,0.91883,4
542.161,65.51417,      0.28856,      0.31560,50.00000,62.00000,3.307357e-09,0.91882,4
543.469,65.64417,      0.23855,      0.31560,50.00000,62.00000,3.307357e-09,0.91882,4
544.766,65.77417,      0.18039,      0.32920,50.00000,62.00000,3.297797e-09,0.91882,4
546.08,65.90417,      0.12045,      0.32920,50.00000,62.00000,3.308807e-09,0.91882,4
547.375,66.03417, 6.245449e-02,      0.32920,50.00000,62.00000,3.291692e-09,0.91881,4
548.674,66.16417, 7.484867e-03,      0.32920,50.00000,62.00000,3.291692e-09,0.91881,4
549.976,66.29417,-5.301144e-02,      0.32920,50.00000,62.00000,3.292433e-09,0.91881,4
551.276,66.42417,     -0.11638,      0.38360,50.00000,62.00000,3.297305e-09,0.91881,4
552.586,66.55417,     -0.17511,      0.38360,50.00000,62.00000,3.300386e-09,0.91881,4
553.89,66.68417,     -0.23779,      0.38360,50.00000,62.00000,3.298142e-09,0.91880,4
555.194,66.81417,     -0.29850,      0.39720,50.00000,62.00000,3.298142e-09,0.91880,4
556.487,66.94417,     -0.35778,      0.34280,50.00000,62.00000,3.299476e-09,0.91879,4
557.792,67.07417,     -0.41995,      0.45600,50.00000,62.00000,3.300455e-09,0.91879,4
559.1,67.20417,     -0.48177,      0.39720,50.00000,62.00000,3.297559e-09,0.91879,4
560.4,67.33417,     -0.54214,      0.45120,50.00000,62.00000,3.304396e-09,0.91879,4
561.713,67.46417,     -0.60597,      0.41080,50.00000,62.00000,3.304396e-09,0.91879,4
563.005,67.59417,     -0.66997,      0.39720,50.00000,62.00000,3.297917e-09,0.91878,4
564.311,67.72417,     -0.73036,      0.39720,50.00000,62.00000,3.303589e-09,0.91878,4
565.613,67.85417,     -0.79311,      0.39720,50.00000,62.00000,3.305047e-09,0.91878,4
566.91,67.98417,     -0.85222,      0.42400,50.00000,62.00000,3.305047e-09,0.91878,4
568.219,68.11417,     -0.91808,      0.42400,50.00000,62.00000,3.298639e-09,0.91877,4
569.522,68.24417,     -0.98467,      0.42400,50.00000,62.00000,3.300443e-09,0.91877,4
570.829,68.37417,     -1.04324,      0.42400,50.00000,62.00000,3.306056e-09,0.91876,4
572.135,68.50417,     -1.10582,      0.42400,50.00000,62.00000,3.299887e-09,0.91876,4
573.433,68.63417,     -1.17133,      0.47840,50.00000,62.00000,3.299887e-09,0.91876,4
574.729,68.76417,     -1.23151,      0.42400,50.00000,62.00000,3.301263e-09,0.91875,4
576.047,68.89417,     -1.28913,      0.47840,50.00000,62.00000,3.302220e-09,0.91875,4
577.346,69.02417,     -1.34690,      0.47840,50.00000,62.00000,3.308725e-09,0.91874,4
578.658,69.15417,     -1.40872,      0.47840,50.00000,62.00000,3.306117e-09,0.91874,4
579.958,69.28417,     -1.46959,      0.53280,50.00000,62.00000,3.306117e-09,0.91874,4
581.273,69.41417,     -1.53344,      0.47840,50.00000,62.00000,3.303402e-09,0.91873,4
582.577,69.54417,     -1.59356,      0.47840,50.00000,62.00000,3.302408e-09,0.91873,4
583.879,69.67417,     -1.65384,      0.53280,50.00000,62.00000,3.296170e-09,0.91872,4
585.185,69.80417,     -1.71987,      0.47840,50.00000,62.00000,3.296170e-09,0.91872,4
586.495,69.93417,     -1.78890,      0.47840,50.00000,62.00000,3.303762e-09,0.91872,4
587.788,70.06417,     -1.85696,      0.53280,50.00000,62.00000,3.301137e-09,0.91871,4
589.099,70.19417,     -1.92132,      0.47840,50.00000,62.00000,3.299931e-09,0.91871,4
590.396,70.32417,     -1.99369,      0.53280,50.00000,62.00000,3.301087e-09,0.91870,4
591.696,70.45417,     -2.05222,      0.45120,50.00000,62.00000,3.301087e-09,0.91870,4
593.005,70.58417,     -2.11373,      0.47840,50.00000,62.00000,3.301739e-09,0.91869,4
594.307,70.71417,     -2.17653,      0.47840,50.00000,62.00000,3.301145e-09,0.91869,4
595.624,70.84417,     -2.24236,      0.47840,50.00000,62.00000,3.300261e-09,0.91868,4
596.683,70.95083,     -2.28736,      0.47840,50.00000,62.00000,3.300261e-09,0.91868,5
597.349,71.01583,     -2.32240,      0.47840,50.00000,62.00000,3.294957e-09,0.91868,5
598.039,71.08083,     -2.30380,      0.47840,50.00000,62.00000,3.294957e-09,0.91868,5
598.797,71.14583,     -2.14997,      0.53280,50.00000,62.00000,3.301576e-09,0.91867,5
599.65,71.21083,     -1.82034,      0.53280,50.00000,62.00000,3.301576e-09,0.91867,5
600.574,71.27583,     -1.30351,      0.60520,50.00000,62.00000,3.301576e-09,0.91867,5
601.604,71.34083,     -0.62721,      0.65040,50.00000,62.00000,3.300230e-09,0.91866,5
602.725,71.40583,      0.17975,      0.70480,50.00000,62.00000,3.300230e-09,0.91866,5
603.93,71.47083,      1.06908,      0.75920,50.00000,62.00000,3.300230e-09,0.91866,5
605.2,71.53583,      1.99282,      0.86760,50.00000,62.00000,3.295896e-09,0.91866,5
606.535,71.60083,      2.89646,      0.86760,50.00000,62.00000,3.295896e-09,0.91866,5
607.893,71.66583,      3.73987,      0.89480,50.00000,62.00000,3.290584e-09,0.91865,5
609.279,71.73083,      4.49308,      0.92200,50.00000,62.00000,3.290584e-09,0.91865,5
610.689,71.79583,      5.13160,      0.92200,50.00000,62.00000,3.290584e-09,0.91865,5
612.083,71.86083,      5.63575,      0.97640,50.00000,62.00000,3.302485e-09,0.91864,5
613.472,71.92583,      6.00323,      0.97640,50.00000,62.00000,3.302485e-09,0.91864,5
614.84,71.99083,      6.24080,      1.03040,50.00000,62.00000,3.305191e-09,0.91863,5
616.186,72.05583,      6.34095,      1.03040,50.00000,62.00000,3.305191e-09,0.91863,5
617.501,72.12083,      6.33652,      1.03040,50.00000,62.00000,3.305191e-09,0.91863,5
618.783,72.18583,      6.23287,      1.03040,50.00000,62.00000,3.301111e-09,0.91863,5
620.055,72.25083,      6.05930,      1.03040,50.00000,62.00000,3.301111e-09,0.91863,5
621.292,72.31583,      5.83221,      1.05760,50.00000,62.00000,3.299456e-09,0.91862,5
622.506,72.38083,      5.57473,      1.05760,50.00000,62.00000,3.299456e-09,0.91862,5
623.716,72.44583,      5.29793,      1.03040,50.00000,62.00000,3.299456e-09,0.91862,5
624.908,72.51083,      5.02089,      1.03040,50.00000,62.00000,3.295173e-09,0.91861,5
626.078,72.57583,      4.75819,      1.03040,50.00000,62.00000,3.295173e-09,0.91861,5
627.249,72.64083,      4.52403,      1.03040,50.00000,62.00000,3.295173e-09,0.91861,5
628.426,72.70583,      4.31794,      1.03040,50.00000,62.00000,3.293017e-09,0.91861,5
629.607,72.77083,      4.15818,      1.03040,50.00000,62.00000,3.293017e-09,0.91861,5
630.797,72.83583,      4.01797,      1.03040,50.00000,62.00000,3.300742e-09,0.91860,5
631.994,72.90083,      3.93200,      1.03040,50.00000,62.00000,3.300742e-09,0.91860,5
633.199,72.96583,      3.86874,      1.03040,50.00000,62.00000,3.300742e-09,0.91860,5
634.425,73.03083,      3.84951,      1.03040,50.00000,62.00000,3.305987e-09,0.91859,5
635.649,73.09583,      3.84140,      1.13000,50.00000,62.00000,3.305987e-09,0.91859,5
636.886,73.16083,      3.86102,      1.14360,50.00000,62.00000,3.299225e-09,0.91858,5
638.13,73.22583,      3.89605,      1.14360,50.00000,62.00000,3.299225e-09,0.91858,5
639.392,73.29083,      3.93714,      1.14360,50.00000,62.00000,3.299225e-09,0.91858,5
640.653,73.35583,      3.98423,      1.14360,50.00000,62.00000,3.305219e-09,0.91857,5
641.941,73.42083,      4.02679,      1.18440,50.00000,62.00000,3.305219e-09,0.91857,5
643.221,73.48583,      4.06466,      1.19800,50.00000,62.00000,3.301130e-09,0.91856,5
644.502,73.55083,      4.10202,      1.19800,50.00000,62.00000,3.301130e-09,0.91856,5
645.79,73.61583,      4.11866,      1.19800,50.00000,62.00000,3.301130e-09,0.91856,5
647.087,73.68083,      4.13179,      1.19800,50.00000,62.00000,3.297949e-09,0.91856,5
648.383,73.74583,      4.13180,      1.25240,50.00000,62.00000,3.297949e-09,0.91856,5
649.68,73.81083,      4.11805,      1.23880,50.00000,62.00000,3.300855e-09,0.91855,5
650.968,73.87583,      4.09465,      1.22520,50.00000,62.00000,3.300855e-09,0.91855,5
652.266,73.94083,      4.05622,      1.22520,50.00000,62.00000,3.300855e-09,0.91855,5
653.568,74.00583,      4.01830,      1.22520,50.00000,62.00000,3.301830e-09,0.91854,5
654.855,74.07083,      3.96459,      1.27960,50.00000,62.00000,3.301830e-09,0.91854,5
656.154,74.13583,      3.90536,      1.27960,50.00000,62.00000,3.301873e-09,0.91853,5
657.457,74.20083,      3.85018,      1.27960,50.00000,62.00000,3.301873e-09,0.91853,5
658.759,74.26583,      3.78339,      1.27960,50.00000,62.00000,3.301873e-09,0.91853,5
660.063,74.33083,      3.71763,      1.27960,50.00000,62.00000,3.293775e-09,0.91852,5
661.355,74.39583,      3.65224,      1.27960,50.00000,62.00000,3.293775e-09,0.91852,5
662.658,74.46083,      3.58489,      1.33360,50.00000,62.00000,3.301301e-09,0.91852,5
663.961,74.52583,      3.51493,      1.33360,50.00000,62.00000,3.301301e-09,0.91852,5
665.265,74.59083,      3.44539,      1.33360,50.00000,62.00000,3.301301e-09,0.91852,5
666.562,74.65583,      3.37988,      1.33360,50.00000,62.00000,3.296622e-09,0.91850,5
667.868,74.72083,      3.30936,      1.33360,50.00000,62.00000,3.296622e-09,0.91850,5
669.175,74.78583,      3.24352,      1.33360,50.00000,62.00000,3.296622e-09,0.91850,5
670.483,74.85083,      3.17933,      1.33360,50.00000,62.00000,3.299481e-09,0.91850,5
671.797,74.91583,      3.11010,      1.34720,50.00000,62.00000,3.299481e-09,0.91850,5
673.1,74.98083,      3.04004,      1.38800,50.00000,62.00000,3.304518e-09,0.91848,5
674.422,75.04583,      2.97352,      1.38800,50.00000,62.00000,3.304518e-09,0.91848,5
675.72,75.11083,      2.90919,      1.38800,50.00000,62.00000,3.304518e-09,0.91848,5
677.045,75.17583,      2.83680,      1.44240,50.00000,62.00000,3.294111e-09,0.91847,5
678.353,75.24083,      2.75863,      1.44240,50.00000,62.00000,3.294111e-09,0.91847,5
679.676,75.30583,      2.68706,      1.44240,50.00000,62.00000,3.299481e-09,0.91847,5
680.994,75.37083,      2.61283,      1.38800,50.00000,62.00000,3.299481e-09,0.91847,5
682.31,75.43583,      2.53962,      1.38800,50.00000,62.00000,3.299481e-09,0.91847,5
683.636,75.50083,      2.45822,      1.44240,50.00000,62.00000,3.302222e-09,0.91846,5
684.943,75.56583,      2.37409,      1.44240,50.00000,62.00000,3.302222e-09,0.91846,5
686.265,75.63083,      2.28729,      1.44240,50.00000,62.00000,3.299615e-09,0.91845,5
687.591,75.69583,      2.21082,      1.44240,50.00000,62.00000,3.299615e-09,0.91845,5
688.912,75.76083,      2.12359,      1.48320,50.00000,62.00000,3.299615e-09,0.91845,5
690.228,75.82583,      2.03550,      1.49680,50.00000,62.00000,3.305691e-09,0.91844,5
691.558,75.89083,      1.94472,      1.49680,50.00000,62.00000,3.305691e-09,0.91844,5
692.875,75.95583,      1.85369,      1.44240,50.00000,62.00000,3.297102e-09,0.91842,5
694.197,76.02083,      1.75994,      1.49680,50.00000,62.00000,3.297102e-09,0.91842,5
695.51,76.08583,      1.66531,      1.49680,50.00000,62.00000,3.297102e-09,0.91842,5
696.843,76.15083,      1.57422,      1.49680,50.00000,62.00000,3.306235e-09,0.91842,5
698.164,76.21583,      1.48164,      1.49680,50.00000,62.00000,3.306235e-09,0.91842,5
699.483,76.28083,      1.38192,      1.49680,50.00000,62.00000,3.306235e-09,0.91842,5
700.808,76.34583,      1.29012,      1.55120,50.00000,62.00000,3.294986e-09,0.91841,5
702.133,76.41083,      1.19558,      1.55120,50.00000,62.00000,3.294986e-09,0.91841,5
703.447,76.47583,      1.09702,      1.55120,50.00000,62.00000,3.300433e-09,0.91840,5
704.787,76.54083,      1.00264,      1.49680,50.00000,62.00000,3.300433e-09,0.91840,5
706.107,76.60583,      0.90171,      1.53760,50.00000,62.00000,3.300433e-09,0.91840,5
707.437,76.67083,      0.80496,      1.55120,50.00000,62.00000,3.308201e-09,0.91839,5
708.756,76.73583,      0.69658,      1.55120,50.00000,62.00000,3.308201e-09,0.91839,5
710.088,76.80083,      0.59427,      1.55120,50.00000,62.00000,3.306638e-09,0.91838,5
711.413,76.86583,      0.48284,      1.60520,50.00000,62.00000,3.306638e-09,0.91838,5
712.727,76.93083,      0.37113,      1.55120,50.00000,62.00000,3.306638e-09,0.91838,5
714.059,76.99583,      0.27059,      1.55120,50.00000,62.00000,3.298385e-09,0.91836,5
715.383,77.06083,      0.16217,      1.55120,50.00000,62.00000,3.298385e-09,0.91836,5
716.711,77.12583, 4.775346e-02,      1.60520,50.00000,62.00000,3.297477e-09,0.91835,5
718.034,77.19083,-5.801060e-02,      1.60520,50.00000,62.00000,3.297477e-09,0.91835,5
719.351,77.25583,     -0.17552,      1.60520,50.00000,62.00000,3.297477e-09,0.91835,5
720.676,77.32083,     -0.29011,      1.60520,50.00000,62.00000,3.298623e-09,0.91834,5
722.005,77.38583,     -0.39986,      1.60520,50.00000,62.00000,3.298623e-09,0.91834,5
723.326,77.45083,     -0.51692,      1.64600,50.00000,62.00000,3.295637e-09,0.91833,5
724.653,77.51583,     -0.63811,      1.65960,50.00000,62.00000,3.295637e-09,0.91833,5
725.982,77.58083,     -0.75188,      1.65960,50.00000,62.00000,3.295637e-09,0.91833,5
727.306,77.64583,     -0.86335,      1.71400,50.00000,62.00000,3.299514e-09,0.91832,5
728.625,77.71083,     -0.98666,      1.71400,50.00000,62.00000,3.299514e-09,0.91832,5
729.949,77.77583,     -1.10254,      1.71400,50.00000,62.00000,3.307629e-09,0.91831,5
731.27,77.84083,     -1.22449,      1.65960,50.00000,62.00000,3.307629e-09,0.91831,5
732.596,77.90583,     -1.34351,      1.65960,50.00000,62.00000,3.307629e-09,0.91831,5
733.923,77.97083,     -1.46604,      1.65960,50.00000,62.00000,3.305665e-09,0.91830,5
735.234,78.03583,     -1.59013,      1.71400,50.00000,62.00000,3.305665e-09,0.91830,5
736.567,78.10083,     -1.70223,      1.71400,50.00000,62.00000,3.301539e-09,0.91828,5
737.89,78.16583,     -1.83210,      1.71400,50.00000,62.00000,3.301539e-09,0.91828,5
739.216,78.23083,     -1.95578,      1.71400,50.00000,62.00000,3.301539e-09,0.91828,5
740.536,78.29583,     -2.07584,      1.67320,50.00000,62.00000,3.296918e-09,0.91827,5
741.856,78.36083,     -2.19878,      1.72760,50.00000,62.00000,3.296918e-09,0.91827,5
743.184,78.42583,     -2.31159,      1.72760,50.00000,62.00000,3.303014e-09,0.91826,5
744.515,78.49083,     -2.43773,      1.72760,50.00000,62.00000,3.303014e-09,0.91826,5
745.837,78.55583,     -2.55891,      1.78160,50.00000,62.00000,3.303014e-09,0.91826,5
747.151,78.62083,     -2.68035,      1.72760,50.00000,62.00000,3.301000e-09,0.91825,5
748.48,78.68583,     -2.79883,      1.78160,50.00000,62.00000,3.301000e-09,0.91825,5
749.8,78.75083,     -2.92479,      1.78160,50.00000,62.00000,3.305100e-09,0.91824,5
751.119,78.81583,     -3.05431,      1.78160,50.00000,62.00000,3.305100e-09,0.91824,5
752.451,78.88083,     -3.17694,      1.78160,50.00000,62.00000,3.305100e-09,0.91824,5
753.77,78.94583,     -3.30310,      1.83600,50.00000,62.00000,3.304008e-09,0.91822,5
755.087,79.01083,     -3.42362,      1.83600,50.00000,62.00000,3.304008e-09,0.91822,5
756.424,79.07583,     -3.55834,      1.82240,50.00000,62.00000,3.304008e-09,0.91822,5
757.745,79.14083,     -3.67218,      1.79520,50.00000,62.00000,3.302557e-09,0.91821,5
759.062,79.20583,     -3.80148,      1.80880,50.00000,62.00000,3.302557e-09,0.91821,5
760.384,79.27083,     -3.92910,      1.84960,50.00000,62.00000,3.301121e-09,0.91820,5
761.707,79.33583,     -4.05173,      1.84960,50.00000,62.00000,3.301121e-09,0.91820,5
763.027,79.40083,     -4.17462,      1.84960,50.00000,62.00000,3.301121e-09,0.91820,5
764.341,79.46583,     -4.29910,      1.84960,50.00000,62.00000,3.305613e-09,0.91819,5
765.655,79.53083,     -4.42919,      1.87680,50.00000,62.00000,3.305613e-09,0.91819,5
766.974,79.59583,     -4.55294,      1.87680,50.00000,62.00000,3.312569e-09,0.91817,5
768.299,79.66083,     -4.68100,      1.87680,50.00000,62.00000,3.312569e-09,0.91817,5
769.616,79.72583,     -4.79997,      1.87680,50.00000,62.00000,3.312569e-09,0.91817,5
770.941,79.79083,     -4.92393,      1.87680,50.00000,62.00000,3.304935e-09,0.91816,5
772.258,79.85583,     -5.04145,      1.90400,50.00000,62.00000,3.304935e-09,0.91816,5
773.579,79.92083,     -5.15859,      1.90400,50.00000,62.00000,3.307198e-09,0.91815,5
774.898,79.98583,     -5.27666,      1.90400,50.00000,62.00000,3.307198e-09,0.91815,5
776.211,80.05083,     -5.39900,      1.90400,50.00000,62.00000,3.307198e-09,0.91815,5
777.534,80.11583,     -5.52773,      1.90400,50.00000,62.00000,3.307306e-09,0.91814,5
778.848,80.18083,     -5.66074,      1.94480,50.00000,62.00000,3.307306e-09,0.91814,5
780.163,80.24583,     -5.76846,      1.95840,50.00000,62.00000,3.306981e-09,0.91813,5
781.491,80.31083,     -5.88999,      1.95840,50.00000,62.00000,3.306981e-09,0.91813,5
782.805,80.37583,     -6.01038,      1.93120,50.00000,62.00000,3.306981e-09,0.91813,5
784.133,80.44083,     -6.12706,      1.90400,50.00000,62.00000,3.306300e-09,0.91812,5
785.446,80.50583,     -6.24394,      1.90400,50.00000,62.00000,3.306300e-09,0.91812,5
786.765,80.57083,     -6.36111,      1.90400,50.00000,62.00000,3.304748e-09,0.91810,5
788.087,80.63583,     -6.47112,      1.95840,50.00000,62.00000,3.304748e-09,0.91810,5
789.397,80.70083,     -6.59014,      2.01240,50.00000,62.00000,            ,0.44914,5
790.72,80.76583,     -6.70543,      1.95840,50.00000,62.00000,            ,0.44861,5
792.041,80.83083,     -6.81758,      1.95840,50.00000,62.00000,            ,0.44808,5
793.365,80.89583,     -6.93001,      1.95840,50.00000,62.00000,            ,0.44755,5
794.178,80.93583,     -7.00262,      1.95840,50.00000,62.00000,            ,0.44722,5