File: data/TGA/ps_scf3_flynn_ozawa_wall/ExpDat_2025_11_18_SL_PS_Tosoh_F1_1K_min.csv
#EXPORTTYPE:                 ,DATA ALL
#FILE:                       ,2025_11_18_SL_PS_Tosoh_F1_1K_min.ngb-ss5
#FORMAT:                     ,NETZSCH5
#FTYPE:                      ,ASCII
#IDENTITY:                   ,PS_Tosoh_F1
#DECIMAL:                    ,POINT
#SEPARATOR:                  ,COMMA
#MTYPE:                      ,DSC
#INSTRUMENT:                 ,NETZSCH STA 449F5
#PROJECT:                    ,
#DATE/TIME:                  ,11/19/2025 11:22:13 AM (UTC-5)
#CORR. FILE:                 ,
#TEMPCAL:                    ,05-05-2025 14:38
#SENSITIVITY:                ,28-06-2023 13:53
#LABORATORY:                 ,Tran
#OPERATOR:                   ,Stan
#REMARK:                     ,
#SAMPLE:                     ,PS_Tosoh_F1
#SAMPLE MASS /mg:            ,4.5
#MATERIAL:                   ,
#REFERENCE:                  ,
#REFERENCE MASS /mg:         ,0
#TYPE OF CRUCIBLE:           ,Al2O3 85 ‘l, open
#SAMPLE CRUCIBLE MASS /mg:   ,0
#REFERENCE CRUCIBLE MASS /mg:,0
#DSC RANGE /‘V:              ,5000
#TG RANGE /mg:               ,35000
#TAU-R:                      ,---
#CORR. CODE:                 ,000
#EXO:                        ,-1
#RANGE:                      ,20›C....800›C/0.0....20.0K/min
#SEGMENT:                    ,S1-5/5
#SEG. 1:                     ,20›C/5.0(K/min)/100›C
#SEG. 2:                     ,100›C/00:05/100›C
#SEG. 3:                     ,100›C/10.0(K/min)/200›C
#SEG. 4:                     ,200›C/1.0(K/min)/600›C
#SEG. 5:                     ,600›C/20.0(K/min)/800›C

##Temp./›C,Time/min,DSC/(mW/mg),Mass/%,Gas Flow(purge2)/(ml/min),Gas Flow(protective)/(ml/min),TIC(scan:1)/A,Sensit./(uV/mW),Segment
 28.85300,  0.00000,      0.83381,    100,50.00000,62.00000,            ,0.92334,1
 32.43300,  1.53333,      0.35322,     88.85267,50.00000,60.00000,3.311575e-09,0.92362,1
 34.35400,  3.06667,      0.16453,     88.56600,50.00000,60.00000,3.322006e-09,0.92387,1
 36.75700,  4.60000,      0.32069,     88.56600,50.00000,60.00000,3.325577e-09,0.92406,1
 41.15700,  6.13333,      0.65877,     89.11156,50.00000,60.00000,3.325512e-09,0.92418,1
 47.58500,  7.66667,      0.98396,     89.83067,50.00000,60.00000,3.333996e-09,0.92429,1
 55.58300,  9.20000,      1.27005,     90.47422,50.00000,60.00000,3.333809e-09,0.92441,1
 64.62800, 10.73333,      1.48032,     90.98956,50.00000,60.00000,3.340421e-09,0.92456,1
 74.09500, 12.26667,      1.61651,     91.29378,50.00000,60.00000,3.351766e-09,0.92474,1
 83.54200, 13.80000,      1.69632,     91.44956,50.00000,60.00000,3.347563e-09,0.92496,1
 92.83600, 15.33333,      1.73925,     91.57022,50.00000,60.00000,3.342048e-09,0.92521,1
100.194, 16.63333,      1.70080,     91.30133,50.00000,60.00000,3.345529e-09,0.92543,2
104.132, 17.78333,      1.05102,     90.27311,50.00000,60.00000,3.353871e-09,0.92559,2
106.398, 18.93333,      0.65358,     89.60422,50.00000,60.00000,3.346111e-09,0.92576,2
107.582, 20.08333,      0.35163,     88.96311,50.00000,60.00000,3.348952e-09,0.92591,2
107.776, 20.99333,      0.13247,     88.43778,50.00000,60.00000,3.356543e-09,0.92602,3
107.758, 21.22333, 9.722977e-02,     88.35489,50.00000,60.00000,3.358548e-09,0.92604,3
107.86, 21.45333,      0.12030,     88.45022,50.00000,60.00000,3.355188e-09,0.92607,3
108.145, 21.68333,      0.22235,     88.71689,50.00000,60.00000,3.349181e-09,0.92608,3
108.636, 21.91333,      0.40065,     89.08889,50.00000,60.00000,3.350245e-09,0.92610,3
109.356, 22.14333,      0.63259,     89.43333,50.00000,60.00000,3.347920e-09,0.92612,3
110.297, 22.37333,      0.88594,     89.82556,50.00000,60.00000,3.348071e-09,0.92613,3
111.383, 22.60333,      1.13378,     90.11467,50.00000,60.00000,3.346746e-09,0.92615,3
112.594, 22.83333,      1.35526,     90.42644,50.00000,60.00000,3.347477e-09,0.92616,3
113.899, 23.06333,      1.54131,     90.59489,50.00000,60.00000,3.355153e-09,0.92617,3
115.245, 23.29333,      1.69779,     90.80600,50.00000,60.00000,3.359170e-09,0.92618,3
116.659, 23.52333,      1.83117,     90.97689,50.00000,60.00000,3.359041e-09,0.92619,3
118.142, 23.75333,      1.95014,     91.13044,50.00000,60.00000,3.355948e-09,0.92620,3
119.683, 23.98333,      2.06801,     91.32400,50.00000,60.00000,3.347966e-09,0.92620,3
121.345, 24.21333,      2.19265,     91.51244,50.00000,60.00000,3.355252e-09,0.92620,3
123.077, 24.44333,      2.32924,     91.73867,50.00000,60.00000,3.351459e-09,0.92620,3
124.93, 24.67333,      2.47788,     91.92489,50.00000,61.00000,3.349149e-09,0.92620,3
126.893, 24.90333,      2.63102,     92.17867,50.00000,61.00000,3.350233e-09,0.92619,3
128.951, 25.13333,      2.78961,     92.34467,50.00000,61.00000,3.354440e-09,0.92619,3
131.097, 25.36333,      2.94662,     92.57844,50.00000,61.00000,3.347854e-09,0.92619,3
133.313, 25.59333,      3.09686,     92.76711,50.00000,61.00000,3.353224e-09,0.92617,3
135.619, 25.82333,      3.23792,     92.92533,50.00000,61.00000,3.353408e-09,0.92616,3
137.974, 26.05333,      3.36939,     93.07867,50.00000,61.00000,3.348942e-09,0.92614,3
140.388, 26.28333,      3.48940,     93.19200,50.00000,61.00000,3.347856e-09,0.92613,3
142.838, 26.51333,      3.59884,     93.32756,50.00000,61.00000,3.357247e-09,0.92612,3
145.345, 26.74333,      3.70035,     93.44822,50.00000,61.00000,3.349056e-09,0.92609,3
147.859, 26.97333,      3.79532,     93.54133,50.00000,61.00000,3.358908e-09,0.92608,3
150.431, 27.20333,      3.88348,     93.64689,50.00000,61.00000,3.352252e-09,0.92604,3
153.01, 27.43333,      3.96488,     93.76000,50.00000,61.00000,3.353857e-09,0.92603,3
155.641, 27.66333,      4.04302,     93.85311,50.00000,61.00000,3.356160e-09,0.92601,3
158.277, 27.89333,      4.11683,     93.91333,50.00000,61.00000,3.356470e-09,0.92596,3
160.945, 28.12333,      4.18335,     93.97133,50.00000,61.00000,3.353638e-09,0.92594,3
163.606, 28.35333,      4.24509,     94.04422,50.00000,61.00000,3.348140e-09,0.92589,3
166.278, 28.58333,      4.29603,     94.13467,50.00000,61.00000,3.351710e-09,0.92587,3
168.954, 28.81333,      4.34464,     94.16489,50.00000,61.00000,3.357496e-09,0.92584,3
171.628, 29.04333,      4.38270,     94.19511,50.00000,61.00000,3.351235e-09,0.92578,3
174.315, 29.27333,      4.41689,     94.25533,50.00000,61.00000,3.355172e-09,0.92575,3
177, 29.50333,      4.44351,     94.28556,50.00000,61.00000,3.351136e-09,0.92569,3
179.678, 29.73333,      4.46326,     94.34578,50.00000,61.00000,3.352728e-09,0.92566,3
182.35, 29.96333,      4.48149,     94.38600,50.00000,61.00000,3.359434e-09,0.92562,3
185.027, 30.19333,      4.49379,     94.40111,50.00000,61.00000,3.353613e-09,0.92555,3
187.702, 30.42333,      4.50185,     94.43889,50.00000,61.00000,3.347551e-09,0.92551,3
190.336, 30.65333,      4.50723,     94.43889,50.00000,61.00000,3.354951e-09,0.92547,3
192.987, 30.88333,      4.51030,     94.46911,50.00000,61.00000,3.356057e-09,0.92539,3
200.788, 31.65333,      4.02181,     94.07933,50.00000,61.00000,3.348475e-09,0.92518,4
205.683, 32.57333,      2.36911,     93.08378,50.00000,61.00000,3.354143e-09,0.92493,4
208.991, 33.49333,      1.69885,     92.77200,50.00000,61.00000,3.352481e-09,0.92461,4
211.469, 34.41333,      1.28089,     92.37733,50.00000,61.00000,3.351019e-09,0.92431,4
212.624, 35.33333,      0.76635,     92.01022,50.00000,61.00000,3.356309e-09,0.92392,4
213.116, 36.25333,      0.47650,     91.73867,50.00000,61.00000,3.349354e-09,0.92357,4
213.312, 37.17333,      0.32959,     91.52000,50.00000,61.00000,3.354461e-09,0.92313,4
213.294, 38.09333,      0.23317,     91.30889,50.00000,61.00000,3.355371e-09,0.92265,4
213.206, 39.01333,      0.20147,     91.18556,50.00000,61.00000,3.354698e-09,0.92223,4
213.173, 39.93333,      0.21032,     91.03489,50.00000,61.00000,3.353133e-09,0.92175,4
213.203, 40.85333,      0.23984,     91.00467,50.00000,61.00000,3.350050e-09,0.92142,4
213.357, 41.77333,      0.28041,     90.92911,50.00000,61.00000,3.348516e-09,0.92104,4
213.618, 42.69333,      0.32555,     90.86644,50.00000,61.00000,3.352631e-09,0.92076,4
214.002, 43.61333,      0.37232,     90.80600,50.00000,61.00000,3.359704e-09,0.92046,4
214.502, 44.53333,      0.41286,     90.74578,50.00000,61.00000,3.357340e-09,0.92021,4
215.056, 45.45333,      0.44854,     90.72044,50.00000,61.00000,3.354259e-09,0.92003,4
215.691, 46.37333,      0.47994,     90.66022,50.00000,61.00000,3.352462e-09,0.91983,4
216.419, 47.29333,      0.50590,     90.63000,50.00000,61.00000,3.354513e-09,0.91968,4
217.187, 48.21333,      0.53132,     90.56978,50.00000,61.00000,3.354439e-09,0.91952,4
217.984, 49.13333,      0.54850,     90.48422,50.00000,61.00000,3.364447e-09,0.91938,4
218.811, 50.05333,      0.56314,     90.51444,50.00000,61.00000,3.357049e-09,0.91927,4
219.673, 50.97333,      0.57328,     90.42378,50.00000,61.00000,3.361862e-09,0.91916,4
220.557, 51.89333,      0.58126,     90.40133,50.00000,61.00000,3.362796e-09,0.91909,4
221.446, 52.81333,      0.58748,     90.40133,50.00000,61.00000,3.358471e-09,0.91902,4
222.361, 53.73333,      0.59293,     90.34089,50.00000,61.00000,3.365066e-09,0.91898,4
223.256, 54.65333,      0.59560,     90.31822,50.00000,61.00000,3.365025e-09,0.91895,4
224.187, 55.57333,      0.59730,     90.31067,50.00000,61.00000,3.366292e-09,0.91894,4
225.112, 56.49333,      0.59880,     90.27556,50.00000,61.00000,3.367869e-09,0.91894,4
226.028, 57.41333,      0.60011,     90.25289,50.00000,61.00000,3.363645e-09,0.91894,4
226.955, 58.33333,      0.60222,     90.20778,50.00000,61.00000,3.365815e-09,0.91894,4
227.881, 59.25333,      0.60135,     90.20778,50.00000,61.00000,3.364825e-09,0.91894,4
228.808, 60.17333,      0.60107,     90.17000,50.00000,61.00000,3.359993e-09,0.91894,4
229.72, 61.09333,      0.59979,     90.17000,50.00000,61.00000,3.363155e-09,0.91894,4
230.643, 62.01333,      0.59972,     90.10956,50.00000,61.00000,3.360188e-09,0.91894,4
231.559, 62.93333,      0.60244,     90.10956,50.00000,61.00000,3.360140e-09,0.91893,4
232.494, 63.85333,      0.60137,     90.09444,50.00000,61.00000,3.366607e-09,0.91892,4
233.413, 64.77333,      0.59850,     90.07956,50.00000,61.00000,3.364931e-09,0.91891,4
234.325, 65.69333,      0.60063,     90.07200,50.00000,61.00000,3.360339e-09,0.91890,4
235.249, 66.61333,      0.60217,     90.07956,50.00000,61.00000,3.364981e-09,0.91888,4
236.175, 67.53333,      0.60210,     90.06444,50.00000,61.00000,3.363294e-09,0.91886,4
237.096, 68.45333,      0.60264,     90.04178,50.00000,61.00000,3.359078e-09,0.91883,4
238.016, 69.37333,      0.60298,     90.05422,50.00000,61.00000,3.358552e-09,0.91881,4
238.941, 70.29333,      0.59970,     90.05422,50.00000,60.00000,3.354676e-09,0.91877,4
239.855, 71.21333,      0.59923,     90.03178,50.00000,60.00000,3.356402e-09,0.91874,4
240.773, 72.13333,      0.60321,     90.04667,50.00000,60.00000,3.355511e-09,0.91869,4
241.693, 73.05333,      0.60214,     90.06178,50.00000,60.00000,3.361587e-09,0.91865,4
242.626, 73.97333,      0.60189,     90.05422,50.00000,60.00000,3.359148e-09,0.91860,4
243.527, 74.89333,      0.60081,     90.04667,50.00000,60.00000,3.361762e-09,0.91854,4
244.453, 75.81333,      0.60036,     90.05422,50.00000,60.00000,3.354679e-09,0.91849,4
245.376, 76.73333,      0.60071,     90.06178,50.00000,60.00000,3.351095e-09,0.91843,4
246.305, 77.65333,      0.60310,     90.03178,50.00000,60.00000,3.356067e-09,0.91837,4
247.212, 78.57333,      0.60162,     90.03178,50.00000,60.00000,3.356141e-09,0.91830,4
248.123, 79.49333,      0.60340,     90.06933,50.00000,60.00000,3.355417e-09,0.91822,4
249.054, 80.41333,      0.60255,     90.07689,50.00000,60.00000,3.351580e-09,0.91815,4
249.973, 81.33333,      0.60271,     90.09200,50.00000,60.00000,3.353339e-09,0.91806,4
250.908, 82.25333,      0.60329,     90.09200,50.00000,60.00000,3.356851e-09,0.91799,4
251.824, 83.17333,      0.60120,     90.10711,50.00000,59.00000,3.355400e-09,0.91790,4
252.743, 84.09333,      0.60055,     90.12978,50.00000,59.00000,3.356770e-09,0.91782,4
253.655, 85.01333,      0.60214,     90.12978,50.00000,59.00000,3.358915e-09,0.91773,4
254.585, 85.93333,      0.60251,     90.12978,50.00000,59.00000,3.350259e-09,0.91763,4
255.496, 86.85333,      0.60124,     90.15733,50.00000,59.00000,3.355060e-09,0.91754,4
256.4, 87.77333,      0.60304,     90.19000,50.00000,59.00000,3.348249e-09,0.91744,4
257.334, 88.69333,      0.60486,     90.17489,50.00000,59.00000,3.352498e-09,0.91735,4
258.257, 89.61333,      0.60381,     90.20511,50.00000,59.00000,3.351567e-09,0.91725,4
259.176, 90.53333,      0.60542,     90.20511,50.00000,59.00000,3.359447e-09,0.91716,4
260.084, 91.45333,      0.60271,     90.18244,50.00000,59.00000,3.357537e-09,0.91705,4
261.009, 92.37333,      0.60722,     90.21267,50.00000,59.00000,3.346739e-09,0.91694,4
261.932, 93.29333,      0.60782,     90.20511,50.00000,59.00000,3.354855e-09,0.91683,4
262.851, 94.21333,      0.60862,     90.20511,50.00000,58.00000,3.354409e-09,0.91672,4
263.756, 95.13333,      0.60694,     90.23533,50.00000,58.00000,3.351233e-09,0.91662,4
264.693, 96.05333,      0.60755,     90.23533,50.00000,59.00000,3.355645e-09,0.91650,4
265.618, 96.97333,      0.60795,     90.20022,50.00000,58.00000,3.357820e-09,0.91639,4
266.526, 97.89333,      0.61041,     90.22778,50.00000,58.00000,3.351968e-09,0.91627,4
267.439, 98.81333,      0.60769,     90.19756,50.00000,58.00000,3.345165e-09,0.91617,4
268.364, 99.73333,      0.61288,     90.21267,50.00000,58.00000,3.351829e-09,0.91603,4
269.288,100.653,      0.61516,     90.21267,50.00000,58.00000,3.347598e-09,0.91591,4
270.209,101.573,      0.61661,     90.23533,50.00000,58.00000,3.348943e-09,0.91579,4
271.131,102.493,      0.61702,     90.21022,50.00000,58.00000,3.356567e-09,0.91566,4
272.04,103.413,      0.61639,     90.18756,50.00000,58.00000,3.350660e-09,0.91554,4
272.967,104.333,      0.61932,     90.18000,50.00000,58.00000,3.351062e-09,0.91540,4
273.884,105.253,      0.62078,     90.18244,50.00000,58.00000,3.350549e-09,0.91529,4
274.796,106.173,      0.62434,     90.21778,50.00000,58.00000,3.352539e-09,0.91514,4
275.722,107.093,      0.62331,     90.17244,50.00000,58.00000,3.348590e-09,0.91502,4
276.644,108.013,      0.62793,     90.16489,50.00000,58.00000,3.351920e-09,0.91487,4
277.557,108.933,      0.63193,     90.14222,50.00000,58.00000,3.344117e-09,0.91471,4
278.475,109.853,      0.63615,     90.14222,50.00000,58.00000,3.350327e-09,0.91458,4
279.404,110.773,      0.63829,     90.17000,50.00000,58.00000,3.350911e-09,0.91442,4
280.315,111.693,      0.64042,     90.13222,50.00000,58.00000,3.353227e-09,0.91428,4
281.23,112.613,      0.64403,     90.07956,50.00000,58.00000,3.343771e-09,0.91411,4
282.152,113.533,      0.64618,     90.07200,50.00000,58.00000,3.349570e-09,0.91397,4
283.078,114.453,      0.65002,     90.06444,50.00000,58.00000,3.344638e-09,0.91380,4
284.004,115.373,      0.65071,     90.04178,50.00000,58.00000,3.352116e-09,0.91362,4
284.916,116.293,      0.65456,     90.01911,50.00000,58.00000,3.346698e-09,0.91347,4
285.831,117.213,      0.65694,     90.01156,50.00000,58.00000,3.348370e-09,0.91329,4
286.759,118.133,      0.65976,     89.98133,50.00000,58.00000,3.345898e-09,0.91313,4
287.67,119.053,      0.66470,     89.95133,50.00000,58.00000,3.354264e-09,0.91294,4
288.593,119.973,      0.67263,     89.89089,50.00000,58.00000,3.350306e-09,0.91277,4
289.517,120.893,      0.67377,     89.85311,50.00000,58.00000,3.349851e-09,0.91257,4
290.429,121.813,      0.67917,     89.80289,50.00000,58.00000,3.344418e-09,0.91240,4
291.346,122.733,      0.68266,     89.80289,50.00000,58.00000,3.348858e-09,0.91219,4
292.28,123.653,      0.68660,     89.77267,50.00000,58.00000,3.347858e-09,0.91202,4
293.188,124.573,      0.68797,     89.72000,50.00000,58.00000,3.346476e-09,0.91181,4
294.12,125.493,      0.69471,     89.67467,50.00000,58.00000,3.353340e-09,0.91158,4
295.039,126.413,      0.69760,     89.62178,50.00000,58.00000,3.346404e-09,0.91140,4
295.954,127.333,      0.70199,     89.57667,50.00000,58.00000,3.347522e-09,0.91117,4
296.873,128.253,      0.70704,     89.52378,50.00000,58.00000,3.339276e-09,0.91098,4
297.797,129.173,      0.71296,     89.46356,50.00000,58.00000,3.343224e-09,0.91074,4
298.718,130.093,      0.71696,     89.38044,50.00000,58.00000,3.342871e-09,0.91055,4
299.628,131.013,      0.71687,     89.34778,50.00000,58.00000,3.336650e-09,0.91031,4
300.54,131.933,      0.72153,     89.30000,50.00000,58.00000,3.332274e-09,0.91007,4
301.474,132.853,      0.73096,     89.18689,50.00000,58.00000,3.344262e-09,0.90986,4
302.403,133.773,      0.73285,     89.10156,50.00000,58.00000,3.348901e-09,0.90961,4
303.308,134.693,      0.73666,     89.01089,50.00000,58.00000,3.346035e-09,0.90939,4
304.233,135.613,      0.74202,     88.92800,50.00000,58.00000,3.345450e-09,0.90914,4
305.155,136.533,      0.74978,     88.90533,50.00000,58.00000,3.341326e-09,0.90891,4
306.072,137.453,      0.75277,     88.77978,50.00000,58.00000,3.342660e-09,0.90865,4
307.006,138.373,      0.75774,     88.68911,50.00000,58.00000,3.343635e-09,0.90843,4
307.916,139.293,      0.76336,     88.60622,50.00000,58.00000,3.338957e-09,0.90816,4
308.843,140.213,      0.76464,     88.42511,50.00000,59.00000,3.338709e-09,0.90787,4
309.754,141.133,      0.77137,     88.28444,50.00000,59.00000,3.341705e-09,0.90765,4
310.677,142.053,      0.77681,     88.14867,50.00000,60.00000,3.341478e-09,0.90736,4
311.599,142.973,      0.78030,     87.99533,50.00000,60.00000,3.337276e-09,0.90712,4
312.522,143.893,      0.78468,     87.84200,50.00000,60.00000,3.340582e-09,0.90684,4
313.44,144.813,      0.79212,     87.66089,50.00000,61.00000,3.338344e-09,0.90660,4
314.369,145.733,      0.79806,     87.51000,50.00000,61.00000,3.345595e-09,0.90630,4
315.282,146.653,      0.80048,     87.38689,50.00000,61.00000,3.343904e-09,0.90600,4
316.219,147.573,      0.80711,     87.20089,50.00000,62.00000,3.341641e-09,0.90575,4
317.137,148.493,      0.81352,     87.08511,50.00000,62.00000,3.339410e-09,0.90545,4
318.049,149.413,      0.81971,     86.84133,50.00000,62.00000,3.333849e-09,0.90520,4
318.956,150.333,      0.82878,     86.64511,50.00000,62.00000,3.348509e-09,0.90488,4
319.886,151.253,      0.83436,     86.53711,50.00000,62.00000,3.337993e-09,0.90463,4
320.807,152.173,      0.83818,     86.33089,50.00000,62.00000,3.348065e-09,0.90431,4
321.724,153.093,      0.84731,     86.11978,50.00000,62.00000,3.334856e-09,0.90399,4
322.653,154.013,      0.86622,     85.90867,50.00000,62.00000,3.347145e-09,0.90372,4
323.574,154.933,      0.86101,     85.72756,50.00000,62.00000,3.337277e-09,0.90341,4
324.489,155.853,      0.86420,     85.51378,50.00000,62.00000,3.340254e-09,0.90312,4
325.419,156.773,      0.86809,     85.30267,50.00000,62.00000,3.336219e-09,0.90279,4
326.322,157.693,      0.87641,     85.03111,50.00000,62.00000,3.341219e-09,0.90252,4
327.261,158.613,      0.87677,     84.82000,50.00000,62.00000,3.334607e-09,0.90218,4
328.176,159.533,      0.87666,     84.56111,50.00000,62.00000,3.337591e-09,0.90190,4
329.1,160.453,      0.88370,     84.28444,50.00000,62.00000,3.338609e-09,0.90156,4
330.017,161.373,      0.88717,     84.00800,50.00000,62.00000,3.345802e-09,0.90121,4
330.923,162.293,      0.89556,     83.75644,50.00000,63.00000,3.346425e-09,0.90092,4
331.854,163.213,      0.90333,     83.48756,50.00000,63.00000,3.342566e-09,0.90057,4
332.781,164.133,      0.90887,     83.15311,50.00000,63.00000,3.344500e-09,0.90027,4
333.7,165.053,      0.91598,     82.85156,50.00000,63.00000,3.343211e-09,0.89991,4
334.62,165.973,      0.92042,     82.48689,50.00000,63.00000,3.336532e-09,0.89962,4
335.537,166.893,      0.92868,     82.14244,50.00000,63.00000,3.341477e-09,0.89926,4
336.458,167.813,      0.93607,     81.80067,50.00000,63.00000,3.346638e-09,0.89890,4
337.369,168.733,      0.94121,     81.43600,50.00000,63.00000,3.348168e-09,0.89859,4
338.285,169.653,      0.94931,     81.03133,50.00000,63.00000,3.349964e-09,0.89821,4
339.216,170.573,      0.95540,     80.60133,50.00000,63.00000,3.348733e-09,0.89791,4
340.132,171.493,      0.96512,     80.17400,50.00000,63.00000,3.344510e-09,0.89753,4
341.051,172.413,      0.96647,     79.70622,50.00000,63.00000,3.341746e-09,0.89715,4
341.982,173.333,      0.98418,     79.30667,50.00000,63.00000,3.344638e-09,0.89683,4
342.894,174.253,      0.98374,     78.73844,50.00000,63.00000,3.349524e-09,0.89646,4
343.822,175.173,      0.99309,     78.22800,50.00000,63.00000,3.350497e-09,0.89614,4
344.73,176.093,      0.99607,     77.69244,50.00000,63.00000,3.340759e-09,0.89574,4
345.641,177.013,      1.00430,     77.14956,50.00000,63.00000,3.345240e-09,0.89542,4
346.575,177.933,      1.01965,     76.58644,50.00000,64.00000,3.347230e-09,0.89503,4
347.482,178.853,      1.02221,     75.88000,50.00000,64.00000,3.346790e-09,0.89470,4
348.412,179.773,      1.03235,     75.23622,50.00000,64.00000,3.349061e-09,0.89431,4
349.328,180.693,      1.04136,     74.55244,50.00000,64.00000,3.353771e-09,0.89391,4
350.253,181.613,      1.04421,     73.82578,50.00000,64.00000,3.350695e-09,0.89358,4
351.166,182.533,      1.05760,     73.06422,50.00000,64.00000,3.354845e-09,0.89317,4
352.076,183.453,      1.06597,     72.28467,50.00000,64.00000,3.347284e-09,0.89283,4
353.006,184.373,      1.07715,     71.48778,50.00000,64.00000,3.357773e-09,0.89243,4
353.936,185.293,      1.08720,     70.60533,50.00000,64.00000,3.349310e-09,0.89201,4
354.842,186.213,      1.09493,     69.70289,50.00000,64.00000,3.349294e-09,0.89167,4
355.774,187.133,      1.12004,     68.76511,50.00000,64.00000,3.350664e-09,0.89127,4
356.7,188.053,      1.11607,     67.74178,50.00000,64.00000,3.355259e-09,0.89091,4
357.625,188.973,      1.13246,     66.69333,50.00000,64.00000,3.359130e-09,0.89049,4
358.55,189.893,      1.13846,     65.62733,50.00000,64.00000,3.364390e-09,0.89015,4
359.462,190.813,      1.13610,     64.47356,50.00000,64.00000,3.361043e-09,0.88974,4
360.39,191.733,      1.13817,     63.26933,50.00000,64.00000,3.358925e-09,0.88931,4
361.316,192.653,      1.14909,     62.01978,50.00000,64.00000,3.358381e-09,0.88895,4
362.22,193.573,      1.15650,     60.80289,50.00000,64.00000,3.362446e-09,0.88853,4
363.136,194.493,      1.16418,     59.38244,50.00000,64.00000,3.365206e-09,0.88817,4
364.065,195.413,      1.18777,     57.99222,50.00000,64.00000,3.359639e-09,0.88774,4
364.98,196.333,      1.17237,     56.50133,50.00000,64.00000,3.365190e-09,0.88731,4
365.909,197.253,      1.19603,     54.94756,50.00000,64.00000,3.361155e-09,0.88694,4
366.828,198.173,      1.19302,     53.34622,50.00000,64.00000,3.360543e-09,0.88651,4
367.751,199.093,      1.19681,     51.69933,50.00000,64.00000,3.366280e-09,0.88614,4
368.647,200.013,      1.18155,     50.01489,50.00000,64.00000,3.356938e-09,0.88570,4
369.581,200.933,      1.19547,     48.22489,50.00000,64.00000,3.365683e-09,0.88534,4
370.505,201.853,      1.18986,     46.39711,50.00000,64.00000,3.359120e-09,0.88489,4
371.416,202.773,      1.18045,     44.48911,50.00000,64.00000,3.353615e-09,0.88445,4
372.353,203.693,      1.17082,     42.56311,50.00000,64.00000,3.363266e-09,0.88409,4
373.266,204.613,      1.16136,     40.54178,50.00000,64.00000,3.365098e-09,0.88363,4
374.196,205.533,      1.13748,     38.48533,50.00000,64.00000,3.355763e-09,0.88326,4
375.11,206.453,      1.11778,     36.44133,50.00000,64.00000,3.365153e-09,0.88280,4
376.031,207.373,      1.09662,     34.36978,50.00000,64.00000,3.367392e-09,0.88242,4
376.953,208.293,      1.07161,     32.22778,50.00000,64.00000,3.365829e-09,0.88198,4
377.879,209.213,      1.04392,     30.13356,50.00000,64.00000,3.363869e-09,0.88159,4
378.792,210.133,      1.01496,     27.99667,50.00000,64.00000,3.367205e-09,0.88114,4
379.705,211.053,      0.99046,     25.84200,50.00000,64.00000,3.370038e-09,0.88068,4
380.636,211.973,      0.95113,     23.67733,50.00000,65.00000,3.367301e-09,0.88030,4
381.543,212.893,      0.91406,     21.57556,50.00000,65.00000,3.367881e-09,0.87983,4
382.466,213.813,      0.88075,     19.50911,50.00000,65.00000,3.367655e-09,0.87945,4
383.392,214.733,      0.83658,     17.44244,50.00000,65.00000,3.369147e-09,0.87899,4
384.307,215.653,      0.78606,     15.45622,50.00000,65.00000,3.372050e-09,0.87860,4
385.229,216.573,      0.73446,     13.53556,50.00000,65.00000,3.364750e-09,0.87814,4
386.152,217.493,      0.67697,     11.70778,50.00000,65.00000,3.366152e-09,0.87775,4
387.074,218.413,      0.61380,      9.95289,50.00000,65.00000,3.373935e-09,0.87727,4
387.989,219.333,      0.54950,      8.26600,50.00000,65.00000,3.365678e-09,0.87681,4
388.901,220.253,      0.48263,      6.65200,50.00000,65.00000,3.366834e-09,0.87642,4
389.83,221.173,      0.41296,      5.15356,50.00000,65.00000,3.374883e-09,0.87595,4
390.747,222.093,      0.33174,      3.71800,50.00000,65.00000,3.367910e-09,0.87461,4
391.669,223.013,      0.26267,      2.35800,50.00000,65.00000,3.366717e-09,0.87283,4
392.596,223.933,      0.18882,      1.01800,50.00000,65.00000,3.371509e-09,0.87150,4
393.509,224.853,      0.10921,     -0.18378,50.00000,65.00000,3.377141e-09,0.87018,4
394.437,225.773, 2.308375e-02,     -1.33778,50.00000,65.00000,3.361140e-09,0.86911,4
395.349,226.693,-5.084623e-02,     -2.37867,50.00000,65.00000,3.366962e-09,0.86838,4
396.266,227.613,     -0.11448,     -3.36667,50.00000,65.00000,3.370312e-09,0.86762,4
397.185,228.533,     -0.17267,     -4.25667,50.00000,65.00000,3.373611e-09,0.86706,4
398.113,229.453,     -0.21635,     -5.02600,50.00000,65.00000,3.374752e-09,0.86641,4
399.038,230.373,     -0.26111,     -5.75000,50.00000,65.00000,3.372254e-09,0.86588,4
399.94,231.293,     -0.30329,     -6.39111,50.00000,65.00000,3.369216e-09,0.86527,4
400.866,232.213,     -0.34043,     -6.96422,50.00000,65.00000,3.374035e-09,0.86466,4
401.798,233.133,     -0.37300,     -7.47711,50.00000,65.00000,3.371581e-09,0.86419,4
402.704,234.053,     -0.40515,     -7.91956,50.00000,65.00000,3.375446e-09,0.86370,4
403.629,234.973,     -0.43271,     -8.31689,50.00000,65.00000,3.371275e-09,0.86333,4
404.548,235.893,     -0.46305,     -8.68644,50.00000,65.00000,3.371255e-09,0.86295,4
405.461,236.813,     -0.49074,     -8.99067,50.00000,65.00000,3.371018e-09,0.86270,4
406.378,237.733,     -0.51060,     -9.26467,50.00000,65.00000,3.367942e-09,0.86245,4
407.289,238.653,     -0.53274,     -9.48844,50.00000,65.00000,3.371293e-09,0.86227,4
408.211,239.573,     -0.55171,     -9.69956,50.00000,65.00000,3.368187e-09,0.86214,4
409.134,240.493,     -0.56057,     -9.85289,50.00000,65.00000,3.372602e-09,0.86201,4
410.075,241.413,     -0.58163,     -9.94089,50.00000,65.00000,3.368730e-09,0.86192,4
410.997,242.333,     -0.60595,    -10.15222,50.00000,65.00000,3.373433e-09,0.86184,4
411.905,243.253,     -0.62087,    -10.27289,50.00000,65.00000,3.375060e-09,0.86178,4
412.828,244.173,     -0.63534,    -10.36333,50.00000,65.00000,3.367887e-09,0.86172,4
413.738,245.093,     -0.65357,    -10.45133,50.00000,65.00000,3.364908e-09,0.86167,4
414.669,246.013,     -0.66712,    -10.51178,50.00000,65.00000,3.372780e-09,0.86165,4
415.581,246.933,     -0.68494,    -10.57200,50.00000,65.00000,3.365910e-09,0.86162,4
416.505,247.853,     -0.69706,    -10.58711,50.00000,65.00000,3.372316e-09,0.86162,4
417.413,248.773,     -0.70943,    -10.58956,50.00000,65.00000,3.367854e-09,0.86163,4
418.336,249.693,     -0.71759,    -10.58200,50.00000,65.00000,3.373483e-09,0.86162,4
419.261,250.613,     -0.73331,    -10.58956,50.00000,65.00000,3.371187e-09,0.86164,4
420.178,251.533,     -0.74528,    -10.59956,50.00000,65.00000,3.373167e-09,0.86165,4
421.107,252.453,     -0.75326,    -10.59711,50.00000,65.00000,3.365759e-09,0.86168,4
422.018,253.373,     -0.76755,    -10.58200,50.00000,65.00000,3.369278e-09,0.86168,4
422.933,254.293,     -0.77127,    -10.55933,50.00000,65.00000,3.365943e-09,0.86169,4
423.858,255.213,     -0.78436,    -10.56689,50.00000,65.00000,3.373186e-09,0.86171,4
424.778,256.133,     -0.80381,    -10.58956,50.00000,65.00000,3.378154e-09,0.86171,4
425.7,257.053,     -0.81038,    -10.55933,50.00000,65.00000,3.371530e-09,0.86173,4
426.616,257.973,     -0.82863,    -10.55933,50.00000,65.00000,3.370383e-09,0.86174,4
427.538,258.893,     -0.83728,    -10.53689,50.00000,65.00000,3.375987e-09,0.86173,4
428.459,259.813,     -0.84798,    -10.54444,50.00000,65.00000,3.366422e-09,0.86173,4
429.367,260.733,     -0.85691,    -10.53689,50.00000,65.00000,3.370777e-09,0.86172,4
430.296,261.653,     -0.86844,    -10.55200,50.00000,65.00000,3.377093e-09,0.86171,4
431.22,262.573,     -0.88407,    -10.52178,50.00000,65.00000,3.371655e-09,0.86169,4
432.137,263.493,     -0.89538,    -10.49156,50.00000,65.00000,3.377413e-09,0.86167,4
433.047,264.413,     -0.90722,    -10.49156,50.00000,65.00000,3.373500e-09,0.86165,4
433.972,265.333,     -0.91860,    -10.47644,50.00000,65.00000,3.371295e-09,0.86163,4
434.898,266.253,     -0.93026,    -10.46133,50.00000,65.00000,3.374977e-09,0.86159,4
435.819,267.173,     -0.94349,    -10.41867,50.00000,65.00000,3.374696e-09,0.86155,4
436.737,268.093,     -0.95442,    -10.44622,50.00000,65.00000,3.365587e-09,0.86150,4
437.662,269.013,     -0.96771,    -10.41622,50.00000,65.00000,3.373553e-09,0.86145,4
438.585,269.933,     -0.97664,    -10.41111,50.00000,65.00000,3.371411e-09,0.86139,4
439.485,270.853,     -0.99228,    -10.41622,50.00000,65.00000,3.372706e-09,0.86134,4
440.412,271.773,     -1.00178,    -10.41622,50.00000,65.00000,3.374466e-09,0.86127,4
441.332,272.693,     -1.01415,    -10.39356,50.00000,65.00000,3.374306e-09,0.86118,4
442.262,273.613,     -1.02733,    -10.37844,50.00000,65.00000,3.373056e-09,0.86111,4
443.179,274.533,     -1.04001,    -10.39356,50.00000,65.00000,3.374736e-09,0.86103,4
444.1,275.453,     -1.04545,    -10.36333,50.00000,65.00000,3.371640e-09,0.86096,4
445.012,276.373,     -1.06623,    -10.37844,50.00000,65.00000,3.369050e-09,0.86085,4
445.945,277.293,     -1.07225,    -10.34067,50.00000,65.00000,3.380337e-09,0.86076,4
446.861,278.213,     -1.08634,    -10.31044,50.00000,65.00000,3.379988e-09,0.86066,4
447.78,279.133,     -1.10046,    -10.27778,50.00000,65.00000,3.368347e-09,0.86057,4
448.696,280.053,     -1.11409,    -10.28533,50.00000,65.00000,3.369287e-09,0.86045,4
449.619,280.973,     -1.12279,    -10.26267,50.00000,65.00000,3.373025e-09,0.86034,4
450.53,281.893,     -1.14014,    -10.25533,50.00000,65.00000,3.379108e-09,0.86025,4
451.458,282.813,     -1.14759,    -10.25533,50.00000,65.00000,3.375745e-09,0.86012,4
452.378,283.733,     -1.16265,    -10.26267,50.00000,65.00000,3.373384e-09,0.86001,4
453.304,284.653,     -1.17592,    -10.23267,50.00000,65.00000,3.376543e-09,0.85988,4
454.223,285.573,     -1.18474,    -10.20244,50.00000,65.00000,3.374965e-09,0.85977,4
455.147,286.493,     -1.19911,    -10.23267,50.00000,65.00000,3.377524e-09,0.85963,4
456.058,287.413,     -1.21297,    -10.23267,50.00000,65.00000,3.373673e-09,0.85948,4
456.977,288.333,     -1.22635,    -10.16222,50.00000,65.00000,3.375767e-09,0.85936,4
457.896,289.253,     -1.23790,    -10.17733,50.00000,65.00000,3.374398e-09,0.85923,4
458.809,290.173,     -1.24841,    -10.17733,50.00000,65.00000,3.375620e-09,0.85910,4
459.743,291.093,     -1.26455,    -10.16978,50.00000,65.00000,3.379282e-09,0.85895,4
460.665,292.013,     -1.27725,    -10.19244,50.00000,65.00000,3.380692e-09,0.85881,4
461.574,292.933,     -1.28704,    -10.17733,50.00000,65.00000,3.374445e-09,0.85867,4
462.501,293.853,     -1.30273,    -10.14467,50.00000,65.00000,3.377354e-09,0.85850,4
463.417,294.773,     -1.31391,    -10.15711,50.00000,65.00000,3.376439e-09,0.85838,4
464.332,295.693,     -1.32804,    -10.11200,50.00000,65.00000,3.374687e-09,0.85821,4
465.269,296.613,     -1.33931,    -10.09689,50.00000,65.00000,3.376238e-09,0.85807,4
466.177,297.533,     -1.35483,    -10.10444,50.00000,65.00000,3.382692e-09,0.85790,4
467.1,298.453,     -1.36773,    -10.10444,50.00000,65.00000,3.374268e-09,0.85777,4
468.016,299.373,     -1.37583,    -10.10444,50.00000,65.00000,3.379918e-09,0.85760,4
468.917,300.293,     -1.39304,    -10.06667,50.00000,65.00000,3.380604e-09,0.85743,4
469.86,301.213,     -1.40499,    -10.04156,50.00000,65.00000,3.376248e-09,0.85729,4
470.777,302.133,     -1.41449,    -10.07178,50.00000,65.00000,3.383883e-09,0.85711,4
471.711,303.053,     -1.42782,    -10.04156,50.00000,65.00000,3.378204e-09,0.85697,4
472.624,303.973,     -1.44330,    -10.06422,50.00000,65.00000,3.374249e-09,0.85679,4
473.542,304.893,     -1.45666,    -10.07178,50.00000,65.00000,3.373535e-09,0.85662,4
474.459,305.813,     -1.47113,    -10.07933,50.00000,65.00000,3.377254e-09,0.85647,4
475.38,306.733,     -1.48022,    -10.03400,50.00000,65.00000,3.375754e-09,0.85629,4
476.301,307.653,     -1.49313,    -10.04911,50.00000,65.00000,3.374888e-09,0.85615,4
477.215,308.573,     -1.50415,    -10.02644,50.00000,65.00000,3.376640e-09,0.85597,4
478.139,309.493,     -1.52146,    -10.00378,50.00000,65.00000,3.377986e-09,0.85582,4
479.064,310.413,     -1.53283,    -10.00378,50.00000,65.00000,3.375640e-09,0.85563,4
479.982,311.333,     -1.54666,     -9.95867,50.00000,65.00000,3.379817e-09,0.85545,4
480.89,312.253,     -1.55505,     -9.98867,50.00000,65.00000,3.378878e-09,0.85530,4
481.822,313.173,     -1.56787,     -9.95356,50.00000,65.00000,3.382282e-09,0.85511,4
482.743,314.093,     -1.58807,     -9.97867,50.00000,65.00000,3.384582e-09,0.85495,4
483.665,315.013,     -1.59245,     -9.94844,50.00000,65.00000,3.383804e-09,0.85477,4
484.583,315.933,     -1.60751,     -9.94089,50.00000,65.00000,3.386402e-09,0.85462,4
485.488,316.853,     -1.62285,     -9.94089,50.00000,65.00000,3.385879e-09,0.85444,4
486.421,317.773,     -1.63252,     -9.94844,50.00000,65.00000,3.379848e-09,0.85425,4
487.345,318.693,     -1.64851,     -9.94844,50.00000,65.00000,3.373450e-09,0.85409,4
488.263,319.613,     -1.65598,     -9.90333,50.00000,65.00000,3.388878e-09,0.85391,4
489.181,320.533,     -1.67036,     -9.87067,50.00000,65.00000,3.378927e-09,0.85374,4
490.107,321.453,     -1.68507,     -9.87556,50.00000,65.00000,3.383346e-09,0.85356,4
491.029,322.373,     -1.69620,     -9.86800,50.00000,65.00000,3.381547e-09,0.85337,4
491.944,323.293,     -1.70652,     -9.84289,50.00000,65.00000,3.382403e-09,0.85322,4
492.866,324.213,     -1.72074,     -9.88311,50.00000,65.00000,3.380746e-09,0.85303,4
493.777,325.133,     -1.72943,     -9.86044,50.00000,65.00000,3.382541e-09,0.85287,4
494.7,326.053,     -1.73982,     -9.84533,50.00000,65.00000,3.375979e-09,0.85268,4
495.631,326.973,     -1.75248,     -9.82289,50.00000,65.00000,3.385425e-09,0.85249,4
496.531,327.893,     -1.76397,     -9.83800,50.00000,65.00000,3.380042e-09,0.85234,4
497.463,328.813,     -1.77529,     -9.85289,50.00000,65.00000,3.388053e-09,0.85213,4
498.392,329.733,     -1.78522,     -9.82289,50.00000,65.00000,3.380405e-09,0.85197,4
499.308,330.653,     -1.79319,     -9.82289,50.00000,65.00000,3.385986e-09,0.85180,4
500.226,331.573,     -1.80621,     -9.83044,50.00000,65.00000,3.387347e-09,0.85163,4
501.162,332.493,     -1.81174,     -9.83044,50.00000,65.00000,3.379944e-09,0.85144,4
502.068,333.413,     -1.82702,     -9.82778,50.00000,65.00000,3.388380e-09,0.85128,4
503.002,334.333,     -1.83342,     -9.81267,50.00000,65.00000,3.383186e-09,0.85109,4
503.911,335.253,     -1.84707,     -9.82778,50.00000,65.00000,3.383776e-09,0.85090,4
504.832,336.173,     -1.85459,     -9.79022,50.00000,65.00000,3.388075e-09,0.85074,4
505.741,337.093,     -1.86181,     -9.81022,50.00000,65.00000,3.391302e-09,0.85054,4
506.678,338.013,     -1.86714,     -9.79511,50.00000,65.00000,3.381073e-09,0.85038,4
507.579,338.933,     -1.87860,     -9.79511,50.00000,65.00000,3.380105e-09,0.85019,4
508.502,339.853,     -1.88617,     -9.78756,50.00000,65.00000,3.389370e-09,0.85003,4
509.434,340.773,     -1.89350,     -9.76489,50.00000,65.00000,3.390044e-09,0.84984,4
510.336,341.693,     -1.90643,     -9.77244,50.00000,65.00000,3.381662e-09,0.84965,4
511.277,342.613,     -1.90616,     -9.74733,50.00000,65.00000,3.383440e-09,0.84949,4
512.186,343.533,     -1.92028,     -9.72733,50.00000,65.00000,3.385581e-09,0.84931,4
513.107,344.453,     -1.92479,     -9.73489,50.00000,64.00000,3.385231e-09,0.84914,4
514.03,345.373,     -1.92988,     -9.73489,50.00000,64.00000,3.389096e-09,0.84894,4
514.954,346.293,     -1.93812,     -9.73489,50.00000,64.00000,3.379762e-09,0.84878,4
515.881,347.213,     -1.94694,     -9.73489,50.00000,64.00000,3.383896e-09,0.84860,4
516.787,348.133,     -1.95059,     -9.73489,50.00000,64.00000,3.387107e-09,0.84840,4
517.707,349.053,     -1.95542,     -9.62933,50.00000,64.00000,3.383973e-09,0.84823,4
518.624,349.973,     -1.96741,     -9.71978,50.00000,64.00000,3.385216e-09,0.84804,4
519.545,350.893,     -1.96768,     -9.69711,50.00000,64.00000,3.380707e-09,0.84789,4
520.474,351.813,     -1.96882,     -9.68956,50.00000,64.00000,3.383101e-09,0.84769,4
521.392,352.733,     -1.97769,     -9.68956,50.00000,64.00000,3.378936e-09,0.84752,4
522.312,353.653,     -1.98255,     -9.66200,50.00000,64.00000,3.381921e-09,0.84733,4
523.244,354.573,     -1.98659,     -9.65444,50.00000,64.00000,3.384752e-09,0.84715,4
524.164,355.493,     -1.99319,     -9.63933,50.00000,64.00000,3.370699e-09,0.84698,4
525.075,356.413,     -1.99949,     -9.63933,50.00000,64.00000,3.382472e-09,0.84678,4
525.989,357.333,     -2.00061,     -9.64689,50.00000,64.00000,3.379291e-09,0.84662,4
526.916,358.253,     -2.00726,     -9.64689,50.00000,64.00000,3.376082e-09,0.84642,4
527.829,359.173,     -2.00924,     -9.61667,50.00000,64.00000,3.384899e-09,0.84626,4
528.757,360.093,     -2.01445,     -9.61667,50.00000,64.00000,3.373516e-09,0.84607,4
529.692,361.013,     -2.01649,     -9.64933,50.00000,64.00000,3.381582e-09,0.84591,4
530.596,361.933,     -2.02310,     -9.63422,50.00000,64.00000,3.380160e-09,0.84571,4
531.526,362.853,     -2.02339,     -9.61156,50.00000,64.00000,3.386204e-09,0.84555,4
532.446,363.773,     -2.03238,     -9.59644,50.00000,64.00000,3.380140e-09,0.84536,4
533.354,364.693,     -2.03232,     -9.59644,50.00000,64.00000,3.373287e-09,0.84517,4
534.278,365.613,     -2.03726,     -9.58156,50.00000,64.00000,3.383616e-09,0.84501,4
535.192,366.533,     -2.04013,     -9.58156,50.00000,64.00000,3.379234e-09,0.84480,4
536.111,367.453,     -2.04125,     -9.56644,50.00000,64.00000,3.377778e-09,0.84464,4
537.042,368.373,     -2.04534,     -9.54378,50.00000,64.00000,3.372368e-09,0.84444,4
537.97,369.293,     -2.04883,     -9.57400,50.00000,64.00000,3.366764e-09,0.84428,4
538.879,370.213,     -2.04876,     -9.54133,50.00000,64.00000,3.378056e-09,0.84409,4
539.805,371.133,     -2.05519,     -9.54133,50.00000,64.00000,3.380559e-09,0.84388,4
540.727,372.053,     -2.05720,     -9.54133,50.00000,64.00000,3.374616e-09,0.84372,4
541.641,372.973,     -2.05978,     -9.54378,50.00000,64.00000,3.380002e-09,0.84351,4
542.57,373.893,     -2.06181,     -9.53622,50.00000,64.00000,3.373868e-09,0.84336,4
543.49,374.813,     -2.06794,     -9.50600,50.00000,64.00000,3.374446e-09,0.84316,4
544.398,375.733,     -2.07199,     -9.51356,50.00000,64.00000,3.375089e-09,0.84300,4
545.316,376.653,     -2.07311,     -9.52622,50.00000,64.00000,3.372342e-09,0.84280,4
546.242,377.573,     -2.07276,     -9.52622,50.00000,64.00000,3.375929e-09,0.84260,4
547.156,378.493,     -2.07949,     -9.49600,50.00000,64.00000,3.381131e-09,0.84245,4
548.09,379.413,     -2.07737,     -9.48089,50.00000,64.00000,3.381031e-09,0.84224,4
549.003,380.333,     -2.08471,     -9.49600,50.00000,64.00000,3.375295e-09,0.84208,4
549.916,381.253,     -2.08729,     -9.49356,50.00000,64.00000,3.377938e-09,0.84188,4
550.836,382.173,     -2.08721,     -9.49356,50.00000,64.00000,3.376084e-09,0.84171,4
551.762,383.093,     -2.08922,     -9.43311,50.00000,64.00000,3.372655e-09,0.84151,4
552.693,384.013,     -2.09662,     -9.45578,50.00000,64.00000,3.382155e-09,0.84132,4
553.605,384.933,     -2.09950,     -9.48600,50.00000,64.00000,3.382188e-09,0.84115,4
554.529,385.853,     -2.09911,     -9.45578,50.00000,64.00000,3.377924e-09,0.84096,4
555.45,386.773,     -2.10501,     -9.45578,50.00000,64.00000,3.369139e-09,0.84079,4
556.368,387.693,     -2.10970,     -9.44067,50.00000,64.00000,3.374474e-09,0.84059,4
557.294,388.613,     -2.11412,     -9.44067,50.00000,64.00000,3.372195e-09,0.84042,4
558.206,389.533,     -2.11610,     -9.43311,50.00000,64.00000,3.372226e-09,0.84022,4
559.128,390.453,     -2.12352,     -9.42556,50.00000,64.00000,3.379819e-09,0.84003,4
560.054,391.373,     -2.12554,     -9.42556,50.00000,64.00000,3.376861e-09,0.83986,4
560.976,392.293,     -2.13267,     -9.38289,50.00000,64.00000,3.371883e-09,0.83967,4
561.893,393.213,     -2.14010,     -9.41311,50.00000,64.00000,3.374108e-09,0.83950,4
562.815,394.133,     -2.14513,     -9.39800,50.00000,64.00000,3.367522e-09,0.83930,4
563.733,395.053,     -2.15047,     -9.39044,50.00000,64.00000,3.378044e-09,0.83913,4
564.655,395.973,     -2.15582,     -9.35022,50.00000,64.00000,3.373055e-09,0.83893,4
565.586,396.893,     -2.15877,     -9.42067,50.00000,64.00000,3.373807e-09,0.83873,4
566.498,397.813,     -2.16622,     -9.39044,50.00000,64.00000,3.366703e-09,0.83857,4
567.417,398.733,     -2.17128,     -9.37533,50.00000,64.00000,3.364680e-09,0.83836,4
568.337,399.653,     -2.17999,     -9.37533,50.00000,64.00000,3.373009e-09,0.83819,4
569.264,400.573,     -2.17777,     -9.36267,50.00000,64.00000,3.373641e-09,0.83800,4
570.186,401.493,     -2.19289,     -9.34000,50.00000,64.00000,3.376635e-09,0.83783,4
571.115,402.413,     -2.19952,     -9.29978,50.00000,64.00000,3.373478e-09,0.83763,4
572.015,403.333,     -2.20364,     -9.35511,50.00000,64.00000,3.363393e-09,0.83743,4
572.945,404.253,     -2.21029,     -9.37022,50.00000,64.00000,3.374716e-09,0.83726,4
573.875,405.173,     -2.21602,     -9.34756,50.00000,64.00000,3.367883e-09,0.83705,4
574.78,406.093,     -2.22598,     -9.36267,50.00000,64.00000,3.377467e-09,0.83689,4
575.709,407.013,     -2.23296,     -9.34000,50.00000,64.00000,3.369599e-09,0.83669,4
576.618,407.933,     -2.24204,     -9.34000,50.00000,64.00000,3.375279e-09,0.83652,4
577.553,408.853,     -2.24413,     -9.37778,50.00000,64.00000,3.367738e-09,0.83632,4
578.455,409.773,     -2.25413,     -9.34000,50.00000,64.00000,3.366346e-09,0.83612,4
579.383,410.693,     -2.26329,     -9.31000,50.00000,64.00000,3.371992e-09,0.83594,4
580.301,411.613,     -2.27275,     -9.32756,50.00000,64.00000,3.364225e-09,0.83575,4
581.219,412.533,     -2.27821,     -9.32756,50.00000,64.00000,3.372327e-09,0.83558,4
582.143,413.453,     -2.28893,     -9.34267,50.00000,64.00000,3.374015e-09,0.83538,4
583.061,414.373,     -2.29441,     -9.35022,50.00000,64.00000,3.374989e-09,0.83517,4
583.982,415.293,     -2.30608,     -9.33511,50.00000,64.00000,3.363533e-09,0.83501,4
584.902,416.213,     -2.31065,     -9.33511,50.00000,64.00000,3.368587e-09,0.83480,4
585.827,417.133,     -2.32205,     -9.35511,50.00000,64.00000,3.374897e-09,0.83463,4
586.748,418.053,     -2.33098,     -9.34000,50.00000,64.00000,3.373285e-09,0.83443,4
587.682,418.973,     -2.33902,     -9.34756,50.00000,64.00000,3.372047e-09,0.83427,4
588.6,419.893,     -2.34890,     -9.34000,50.00000,64.00000,3.374972e-09,0.83406,4
589.516,420.813,     -2.35972,     -9.33267,50.00000,64.00000,3.362810e-09,0.83387,4
590.432,421.733,     -2.37305,     -9.36267,50.00000,64.00000,3.362132e-09,0.83368,4
591.351,422.653,     -2.38328,     -9.32511,50.00000,64.00000,3.368589e-09,0.83349,4
592.258,423.573,     -2.39163,     -9.31756,50.00000,64.00000,3.364286e-09,0.83331,4
593.192,424.493,     -2.40224,     -9.31000,50.00000,64.00000,3.364855e-09,0.83311,4
594.089,425.413,     -2.41152,     -9.30244,50.00000,64.00000,3.365438e-09,0.83294,4
595.025,426.333,     -2.41998,     -9.30244,50.00000,64.00000,3.363471e-09,0.83273,4
595.94,427.253,     -2.43090,     -9.30489,50.00000,64.00000,3.368998e-09,0.83253,4
596.873,428.173,     -2.44157,     -9.31244,50.00000,64.00000,3.369347e-09,0.83236,4
597.794,429.093,     -2.45222,     -9.30489,50.00000,64.00000,3.364129e-09,0.83215,4
598.705,430.013,     -2.46475,     -9.32756,50.00000,64.00000,3.370496e-09,0.83198,4
599.636,430.933,     -2.47388,     -9.32756,50.00000,64.00000,3.367926e-09,0.83178,4
599.799,431.06,     -2.45858,     -9.32756,50.00000,64.00000,3.364846e-09,0.83175,5
600.236,431.175,     -2.22749,     -9.32756,50.00000,64.00000,3.364846e-09,0.83175,5
601.185,431.29,     -1.64522,     -9.23200,50.00000,64.00000,3.362964e-09,0.83171,5
602.686,431.405,     -0.79852,     -9.11133,50.00000,64.00000,3.369154e-09,0.83168,5
604.673,431.52,      0.15929,     -8.99311,50.00000,64.00000,3.369154e-09,0.83168,5
607.039,431.635,      1.05186,     -8.93289,50.00000,64.00000,3.364866e-09,0.83165,5
609.608,431.75,      1.75140,     -8.86244,50.00000,64.00000,3.363454e-09,0.83161,5
612.215,431.865,      2.19116,     -8.77444,50.00000,64.00000,3.363454e-09,0.83161,5
614.788,431.98,      2.36912,     -8.73667,50.00000,64.00000,3.367957e-09,0.83158,5
617.202,432.095,      2.31552,     -8.73667,50.00000,64.00000,3.376522e-09,0.83155,5
619.459,432.21,      2.10485,     -8.73667,50.00000,64.00000,3.369042e-09,0.83150,5
621.547,432.325,      1.81122,     -8.73667,50.00000,64.00000,3.369042e-09,0.83150,5
623.506,432.44,      1.50606,     -8.70667,50.00000,64.00000,3.365902e-09,0.83147,5
625.388,432.555,      1.23805,     -8.73667,50.00000,64.00000,3.364327e-09,0.83142,5
627.242,432.67,      1.03543,     -8.70667,50.00000,64.00000,3.364327e-09,0.83142,5
629.111,432.785,      0.91784,     -8.72156,50.00000,64.00000,3.370958e-09,0.83141,5
631.02,432.9,      0.87505,     -8.69156,50.00000,64.00000,3.360578e-09,0.83137,5
632.982,433.015,      0.89379,     -8.66133,50.00000,64.00000,3.360578e-09,0.83137,5
635.011,433.13,      0.95060,     -8.63111,50.00000,64.00000,3.366595e-09,0.83134,5
637.126,433.245,      1.02672,     -8.60089,50.00000,64.00000,3.368357e-09,0.83129,5
639.28,433.36,      1.10091,     -8.60089,50.00000,64.00000,3.364117e-09,0.83127,5
641.484,433.475,      1.16659,     -8.54067,50.00000,64.00000,3.364117e-09,0.83127,5
643.725,433.59,      1.20652,     -8.54067,50.00000,64.00000,3.364537e-09,0.83124,5
645.97,433.705,      1.22579,     -8.51044,50.00000,64.00000,3.367898e-09,0.83120,5
648.23,433.82,      1.22261,     -8.48022,50.00000,64.00000,3.367898e-09,0.83120,5
650.5,433.935,      1.19483,     -8.48022,50.00000,64.00000,3.365908e-09,0.83117,5
652.764,434.05,      1.15792,     -8.45022,50.00000,64.00000,3.373132e-09,0.83113,5
655.033,434.165,      1.11381,     -8.45022,50.00000,64.00000,3.373132e-09,0.83113,5
657.315,434.28,      1.06851,     -8.42000,50.00000,64.00000,3.362465e-09,0.83110,5
659.588,434.395,      1.01828,     -8.38978,50.00000,64.00000,3.368321e-09,0.83106,5
661.867,434.51,      0.97286,     -8.38978,50.00000,64.00000,3.367208e-09,0.83103,5
664.154,434.625,      0.92992,     -8.35200,50.00000,64.00000,3.367208e-09,0.83103,5
666.455,434.74,      0.88308,     -8.32933,50.00000,64.00000,3.371565e-09,0.83099,5
668.77,434.855,      0.84415,     -8.29933,50.00000,64.00000,3.367940e-09,0.83096,5
671.08,434.97,      0.79858,     -8.29933,50.00000,64.00000,3.367940e-09,0.83096,5
673.404,435.085,      0.75621,     -8.26911,50.00000,64.00000,3.372482e-09,0.83092,5
675.727,435.2,      0.70614,     -8.26911,50.00000,64.00000,3.374042e-09,0.83089,5
678.067,435.315,      0.65688,     -8.20867,50.00000,64.00000,3.371728e-09,0.83085,5
680.406,435.43,      0.60739,     -8.23889,50.00000,64.00000,3.371728e-09,0.83085,5
682.756,435.545,      0.55322,     -8.20867,50.00000,64.00000,3.355117e-09,0.83082,5
685.11,435.66,      0.49674,     -8.18622,50.00000,64.00000,3.367418e-09,0.83078,5
687.46,435.775,      0.43174,     -8.14844,50.00000,64.00000,3.367418e-09,0.83078,5
689.818,435.89,      0.37197,     -8.14844,50.00000,64.00000,3.370159e-09,0.83075,5
692.16,436.005,      0.30328,     -8.11822,50.00000,64.00000,3.368519e-09,0.83072,5
694.514,436.12,      0.23914,     -8.11067,50.00000,64.00000,3.368519e-09,0.83072,5
696.879,436.235,      0.16846,     -8.08800,50.00000,64.00000,3.366401e-09,0.83068,5
699.236,436.35, 9.851211e-02,     -8.05800,50.00000,64.00000,3.362307e-09,0.83065,5
701.597,436.465, 3.174637e-02,     -8.05800,50.00000,64.00000,3.365454e-09,0.83061,5
703.946,436.58,-3.985653e-02,     -8.02778,50.00000,64.00000,3.365454e-09,0.83061,5
706.319,436.695,     -0.11107,     -8.02778,50.00000,64.00000,3.369513e-09,0.83058,5
708.674,436.81,     -0.18611,     -7.99756,50.00000,64.00000,3.360251e-09,0.83055,5
711.042,436.925,     -0.26182,     -7.99756,50.00000,64.00000,3.360251e-09,0.83055,5
713.417,437.04,     -0.33574,     -7.96733,50.00000,64.00000,3.362460e-09,0.83051,5
715.786,437.155,     -0.41493,     -7.93733,50.00000,64.00000,3.356394e-09,0.83048,5
718.144,437.27,     -0.49197,     -7.93733,50.00000,64.00000,3.356394e-09,0.83048,5
720.511,437.385,     -0.57147,     -7.93733,50.00000,64.00000,3.369776e-09,0.83044,5
722.874,437.5,     -0.65202,     -7.90711,50.00000,64.00000,3.365381e-09,0.83040,5
725.234,437.615,     -0.73683,     -7.90711,50.00000,64.00000,3.363889e-09,0.83037,5
727.607,437.73,     -0.82093,     -7.87689,50.00000,64.00000,3.363889e-09,0.83037,5
729.97,437.845,     -0.90645,     -7.84667,50.00000,64.00000,3.358705e-09,0.83034,5
732.334,437.96,     -0.98766,     -7.84667,50.00000,64.00000,3.360323e-09,0.83030,5
734.687,438.075,     -1.07496,     -7.84667,50.00000,64.00000,3.360323e-09,0.83030,5
737.051,438.19,     -1.15758,     -7.84667,50.00000,64.00000,3.368366e-09,0.83027,5
739.418,438.305,     -1.24705,     -7.81400,50.00000,64.00000,3.368879e-09,0.83024,5
741.774,438.42,     -1.33398,     -7.81400,50.00000,64.00000,3.368879e-09,0.83024,5
744.148,438.535,     -1.42237,     -7.78378,50.00000,64.00000,3.367423e-09,0.83020,5
746.495,438.65,     -1.50638,     -7.75378,50.00000,64.00000,3.361596e-09,0.83017,5
748.844,438.765,     -1.59692,     -7.75378,50.00000,64.00000,3.361596e-09,0.83017,5
751.199,438.88,     -1.67106,     -7.72356,50.00000,64.00000,3.369035e-09,0.83013,5
753.556,438.995,     -1.75391,     -7.72356,50.00000,64.00000,3.363195e-09,0.83011,5
755.923,439.11,     -1.84224,     -7.72356,50.00000,64.00000,3.367757e-09,0.83007,5
758.274,439.225,     -1.92687,     -7.69333,50.00000,64.00000,3.367757e-09,0.83007,5
760.628,439.34,     -2.01332,     -7.66311,50.00000,64.00000,3.368111e-09,0.83004,5
762.987,439.455,     -2.10456,     -7.66311,50.00000,64.00000,3.363270e-09,0.83000,5
765.339,439.57,     -2.19210,     -7.65578,50.00000,64.00000,3.363270e-09,0.83000,5
767.695,439.685,     -2.28222,     -7.63311,50.00000,64.00000,3.366079e-09,0.82997,5
770.04,439.8,     -2.36861,     -7.61800,50.00000,64.00000,3.367386e-09,0.82993,5
772.39,439.915,     -2.46094,     -7.60289,50.00000,64.00000,3.367386e-09,0.82993,5
774.751,440.03,     -2.54845,     -7.60289,50.00000,64.00000,3.364646e-09,0.82990,5
777.098,440.145,     -2.63742,     -7.57267,50.00000,64.00000,3.366872e-09,0.82986,5
779.452,440.26,     -2.72863,     -7.57267,50.00000,64.00000,3.366872e-09,0.82986,5
781.805,440.375,     -2.81460,     -7.54244,50.00000,64.00000,3.355173e-09,0.82983,5
784.152,440.49,     -2.90766,     -7.51244,50.00000,64.00000,3.356720e-09,0.82980,5
786.495,440.605,     -2.99621,     -7.54244,50.00000,64.00000,3.361611e-09,0.82975,5
788.854,440.72,     -3.08328,     -7.51244,50.00000,64.00000,            ,0.44936,5
791.202,440.835,     -3.17068,     -7.48222,50.00000,64.00000,            ,0.44842,5
793.555,440.95,     -3.26300,     -7.48978,50.00000,64.00000,            ,0.44747,5