File: data/TGA/ps_scf3_flynn_ozawa_wall/ExpDat_2025_11_18_SL_PS_005D-L1_5K_min.csv
#EXPORTTYPE:                 ,DATA ALL
#FILE:                       ,2025_11_18_SL_PS_005D-L1_5K_min.ngb-ss5
#FORMAT:                     ,NETZSCH5
#FTYPE:                      ,ASCII
#IDENTITY:                   ,PS-005d-L1
#DECIMAL:                    ,POINT
#SEPARATOR:                  ,COMMA
#MTYPE:                      ,DSC
#INSTRUMENT:                 ,NETZSCH STA 449F5
#PROJECT:                    ,PS
#DATE/TIME:                  ,11/22/2025 2:30:30 PM (UTC-5)
#CORR. FILE:                 ,
#TEMPCAL:                    ,05-05-2025 14:38
#SENSITIVITY:                ,28-06-2023 13:53
#LABORATORY:                 ,Tran
#OPERATOR:                   ,Stan
#REMARK:                     ,
#SAMPLE:                     ,PS-005d-L1
#SAMPLE MASS /mg:            ,2.25
#MATERIAL:                   ,
#REFERENCE:                  ,
#REFERENCE MASS /mg:         ,0
#TYPE OF CRUCIBLE:           ,Al2O3 85 ‘l, open
#SAMPLE CRUCIBLE MASS /mg:   ,0
#REFERENCE CRUCIBLE MASS /mg:,0
#DSC RANGE /‘V:              ,5000
#TG RANGE /mg:               ,35000
#TAU-R:                      ,---
#CORR. CODE:                 ,000
#EXO:                        ,-1
#RANGE:                      ,20›C....800›C/0.0....20.0K/min
#SEGMENT:                    ,S1-5/5
#SEG. 1:                     ,20›C/5.0(K/min)/100›C
#SEG. 2:                     ,100›C/00:05/100›C
#SEG. 3:                     ,100›C/10.0(K/min)/200›C
#SEG. 4:                     ,200›C/5.0(K/min)/600›C
#SEG. 5:                     ,600›C/20.0(K/min)/800›C

##Temp./›C,Time/min,DSC/(mW/mg),Mass/%,Gas Flow(purge2)/(ml/min),Gas Flow(protective)/(ml/min),TIC(scan:1)/A,Sensit./(uV/mW),Segment
 48.73100,  0.00000,      6.00981,    100,50.00000,63.00000,            ,0.92588,1
 57.06000,  1.13333,      2.75092,     72.65156,50.00000,62.00000,3.259720e-09,0.92610,1
 60.37600,  2.26667,      1.14005,     70.35867,50.00000,62.00000,3.266748e-09,0.92617,1
 61.28400,  3.40000,      0.26689,     68.25200,50.00000,62.00000,3.275436e-09,0.92620,1
 60.88200,  4.53333,     -0.23358,     66.19556,50.00000,62.00000,3.274907e-09,0.92620,1
 59.76000,  5.66667,     -0.51584,     64.82756,50.00000,62.00000,3.286458e-09,0.92619,1
 58.27200,  6.80000,     -0.66411,     63.64089,50.00000,62.00000,3.287386e-09,0.92619,1
 56.61000,  7.93333,     -0.73148,     62.85156,50.00000,62.00000,3.286227e-09,0.92618,1
 55.17200,  9.06667,     -0.61984,     62.73600,50.00000,62.00000,3.288571e-09,0.92618,1
 55.32600, 10.20000, 9.445822e-02,     64.68711,50.00000,62.00000,3.297676e-09,0.92618,1
 57.71700, 11.33333,      0.98921,     67.14089,50.00000,62.00000,3.296032e-09,0.92619,1
 62.11900, 12.46667,      1.81191,     69.63956,50.00000,62.00000,3.298964e-09,0.92619,1
 68.20100, 13.60000,      2.54663,     71.98267,50.00000,62.00000,3.298725e-09,0.92620,1
 75.53300, 14.73333,      3.14521,     73.79289,50.00000,62.00000,3.306995e-09,0.92620,1
 83.66000, 15.86667,      3.58787,     75.20089,50.00000,62.00000,3.300487e-09,0.92620,1
 89.80100, 16.73417,      3.58789,     75.24089,50.00000,62.00000,3.306140e-09,0.92620,2
 94.45900, 17.58417,      2.96508,     74.19022,50.00000,62.00000,3.304412e-09,0.92620,2
 98.13400, 18.43417,      2.46325,     73.55644,50.00000,62.00000,3.302806e-09,0.92620,2
101.135, 19.28417,      2.05569,     72.87289,50.00000,62.00000,3.306217e-09,0.92619,2
103.331, 20.13417,      1.57755,     72.01289,50.00000,62.00000,3.306905e-09,0.92619,2
104.715, 20.94417,      1.13433,     71.22356,50.00000,62.00000,3.305673e-09,0.92618,3
104.952, 21.11417,      1.05736,     71.08800,50.00000,62.00000,3.314347e-09,0.92618,3
105.179, 21.28417,      1.01393,     71.08800,50.00000,62.00000,3.307659e-09,0.92617,3
105.483, 21.45417,      1.02914,     71.23867,50.00000,62.00000,3.310915e-09,0.92617,3
105.872, 21.62417,      1.12367,     71.70622,50.00000,62.00000,3.309837e-09,0.92617,3
106.382, 21.79417,      1.29166,     72.12356,50.00000,62.00000,3.304376e-09,0.92617,3
106.987, 21.96417,      1.52173,     72.72711,50.00000,62.00000,3.310719e-09,0.92617,3
107.71, 22.13417,      1.78885,     73.21956,50.00000,62.00000,3.303470e-09,0.92616,3
108.514, 22.30417,      2.07313,     73.75289,50.00000,62.00000,3.309228e-09,0.92616,3
109.407, 22.47417,      2.35542,     74.25556,50.00000,62.00000,3.307853e-09,0.92616,3
110.362, 22.64417,      2.61837,     74.63244,50.00000,62.00000,3.306810e-09,0.92616,3
111.359, 22.81417,      2.85937,     74.99956,50.00000,62.00000,3.300512e-09,0.92616,3
112.407, 22.98417,      3.06846,     75.33644,50.00000,62.00000,3.309522e-09,0.92616,3
113.474, 23.15417,      3.24853,     75.55289,50.00000,62.00000,3.304360e-09,0.92616,3
114.548, 23.32417,      3.40657,     75.81911,50.00000,62.00000,3.306478e-09,0.92616,3
115.671, 23.49417,      3.54633,     76.07067,50.00000,62.00000,3.311249e-09,0.92616,3
116.815, 23.66417,      3.68366,     76.39733,50.00000,62.00000,3.303223e-09,0.92615,3
118.002, 23.83417,      3.82157,     76.65378,50.00000,62.00000,3.311849e-09,0.92616,3
119.214, 24.00417,      3.96374,     76.91556,50.00000,62.00000,3.304452e-09,0.92616,3
120.501, 24.17417,      4.11807,     77.23200,50.00000,62.00000,3.315862e-09,0.92616,3
121.829, 24.34417,      4.28304,     77.53911,50.00000,62.00000,3.313999e-09,0.92616,3
123.198, 24.51417,      4.46167,     77.88089,50.00000,62.00000,3.314635e-09,0.92616,3
124.632, 24.68417,      4.64810,     78.22800,50.00000,62.00000,3.311830e-09,0.92616,3
126.135, 24.85417,      4.84312,     78.51422,50.00000,62.00000,3.313118e-09,0.92616,3
127.68, 25.02417,      5.03928,     78.90178,50.00000,62.00000,3.308162e-09,0.92616,3
129.262, 25.19417,      5.23772,     79.16311,50.00000,62.00000,3.306430e-09,0.92616,3
130.906, 25.36417,      5.43072,     79.49511,50.00000,62.00000,3.310209e-09,0.92616,3
132.573, 25.53417,      5.62041,     79.79156,50.00000,62.00000,3.313864e-09,0.92616,3
134.296, 25.70417,      5.79945,     80.05289,50.00000,62.00000,3.320271e-09,0.92617,3
136.027, 25.87417,      5.97629,     80.23422,50.00000,62.00000,3.310307e-09,0.92617,3
137.817, 26.04417,      6.13764,     80.50044,50.00000,62.00000,3.304406e-09,0.92617,3
139.611, 26.21417,      6.29230,     80.68667,50.00000,62.00000,3.303998e-09,0.92617,3
141.444, 26.38417,      6.43549,     80.94311,50.00000,62.00000,3.310235e-09,0.92617,3
143.306, 26.55417,      6.57430,     81.13911,50.00000,62.00000,3.307196e-09,0.92618,3
145.166, 26.72417,      6.70412,     81.32533,50.00000,62.00000,3.314301e-09,0.92618,3
147.076, 26.89417,      6.82888,     81.50622,50.00000,62.00000,3.303772e-09,0.92618,3
148.989, 27.06417,      6.94954,     81.62667,50.00000,62.00000,3.306935e-09,0.92618,3
150.93, 27.23417,      7.06166,     81.88311,50.00000,62.00000,3.305271e-09,0.92618,3
152.864, 27.40417,      7.16661,     82.00400,50.00000,62.00000,3.308543e-09,0.92619,3
154.815, 27.57417,      7.26824,     82.18489,50.00000,62.00000,3.304158e-09,0.92619,3
156.793, 27.74417,      7.36960,     82.27556,50.00000,62.00000,3.308920e-09,0.92619,3
158.76, 27.91417,      7.45845,     82.48667,50.00000,62.00000,3.314595e-09,0.92619,3
160.76, 28.08417,      7.54100,     82.54711,50.00000,62.00000,3.309915e-09,0.92619,3
162.774, 28.25417,      7.62018,     82.68267,50.00000,62.00000,3.310812e-09,0.92620,3
164.77, 28.42417,      7.69242,     82.86889,50.00000,62.00000,3.311235e-09,0.92620,3
166.777, 28.59417,      7.75974,     82.92933,50.00000,62.00000,3.312658e-09,0.92620,3
168.782, 28.76417,      7.81786,     83.04978,50.00000,62.00000,3.304178e-09,0.92620,3
170.782, 28.93417,      7.87054,     83.17067,50.00000,62.00000,3.313855e-09,0.92620,3
172.809, 29.10417,      7.91642,     83.23067,50.00000,62.00000,3.309657e-09,0.92620,3
174.797, 29.27417,      7.95625,     83.35156,50.00000,62.00000,3.309475e-09,0.92620,3
176.805, 29.44417,      7.98919,     83.44222,50.00000,62.00000,3.312017e-09,0.92620,3
178.82, 29.61417,      8.01819,     83.53244,50.00000,62.00000,3.308193e-09,0.92620,3
180.814, 29.78417,      8.04155,     83.57778,50.00000,62.00000,3.312487e-09,0.92620,3
182.824, 29.95417,      8.06252,     83.65333,50.00000,62.00000,3.316714e-09,0.92620,3
184.809, 30.12417,      8.07933,     83.71333,50.00000,62.00000,3.307478e-09,0.92619,3
186.802, 30.29417,      8.08905,     83.77378,50.00000,62.00000,3.310472e-09,0.92619,3
188.779, 30.46417,      8.09652,     83.89467,50.00000,62.00000,3.310944e-09,0.92619,3
190.768, 30.63417,      8.10114,     83.89467,50.00000,62.00000,3.314705e-09,0.92618,3
192.732, 30.80417,      8.10072,     83.95467,50.00000,62.00000,3.314227e-09,0.92618,3
194.851, 30.98750,      8.09832,     84.01511,50.00000,62.00000,3.311074e-09,0.92617,4
197.409, 31.21417,      8.05115,     84.13600,50.00000,62.00000,3.310833e-09,0.92617,4
199.841, 31.44083,      7.87439,     83.95467,50.00000,62.00000,3.306349e-09,0.92615,4
202.049, 31.66750,      7.53977,     83.68844,50.00000,62.00000,3.300765e-09,0.92614,4
204.076, 31.89417,      7.09640,     83.38667,50.00000,62.00000,3.302591e-09,0.92612,4
205.896, 32.12083,      6.61294,     83.14533,50.00000,62.00000,3.307849e-09,0.92611,4
207.587, 32.34750,      6.15953,     82.90400,50.00000,62.00000,3.302360e-09,0.92610,4
209.192, 32.57417,      5.77543,     82.72311,50.00000,62.00000,3.305940e-09,0.92607,4
210.765, 32.80083,      5.48678,     82.66267,50.00000,62.00000,3.301763e-09,0.92606,4
212.307, 33.02750,      5.27551,     82.60222,50.00000,62.00000,3.308783e-09,0.92604,4
213.838, 33.25417,      5.12429,     82.54178,50.00000,62.00000,3.303043e-09,0.92601,4
215.321, 33.48083,      5.00562,     82.54178,50.00000,62.00000,3.302952e-09,0.92599,4
216.783, 33.70750,      4.88935,     82.48178,50.00000,62.00000,3.306061e-09,0.92597,4
218.191, 33.93417,      4.75835,     82.42133,50.00000,62.00000,3.314545e-09,0.92592,4
219.545, 34.16083,      4.61377,     82.36089,50.00000,62.00000,3.306899e-09,0.92590,4
220.837, 34.38750,      4.45197,     82.30044,50.00000,62.00000,3.303309e-09,0.92587,4
222.079, 34.61417,      4.28645,     82.24044,50.00000,62.00000,3.312520e-09,0.92582,4
223.265, 34.84083,      4.11878,     82.18000,50.00000,62.00000,3.311341e-09,0.92579,4
224.423, 35.06750,      3.97054,     82.05422,50.00000,62.00000,3.311388e-09,0.92573,4
225.522, 35.29417,      3.83372,     82.11467,50.00000,62.00000,3.307036e-09,0.92570,4
226.604, 35.52083,      3.71689,     82.05422,50.00000,62.00000,3.302129e-09,0.92566,4
227.696, 35.74750,      3.62580,     82.02400,50.00000,62.00000,3.304883e-09,0.92559,4
228.736, 35.97417,      3.54593,     81.99378,50.00000,62.00000,3.307685e-09,0.92555,4
229.773, 36.20083,      3.47909,     81.99378,50.00000,62.00000,3.301727e-09,0.92551,4
230.818, 36.42750,      3.42335,     81.99378,50.00000,62.00000,3.306730e-09,0.92542,4
231.838, 36.65417,      3.37544,     81.99378,50.00000,62.00000,3.302105e-09,0.92538,4
232.839, 36.88083,      3.32939,     81.93378,50.00000,62.00000,3.310426e-09,0.92533,4
233.839, 37.10750,      3.28727,     81.93378,50.00000,62.00000,3.311801e-09,0.92523,4
234.827, 37.33417,      3.25186,     81.99378,50.00000,62.00000,3.307599e-09,0.92518,4
235.789, 37.56083,      3.21632,     81.99378,50.00000,62.00000,3.306044e-09,0.92507,4
236.776, 37.78750,      3.18441,     82.03911,50.00000,62.00000,3.304223e-09,0.92502,4
237.756, 38.01417,      3.16411,     81.99378,50.00000,62.00000,3.306830e-09,0.92496,4
238.719, 38.24083,      3.14856,     82.02400,50.00000,62.00000,3.305312e-09,0.92484,4
239.695, 38.46750,      3.13464,     82.03911,50.00000,62.00000,3.313104e-09,0.92478,4
240.667, 38.69417,      3.12877,     82.03911,50.00000,62.00000,3.308410e-09,0.92465,4
241.627, 38.92083,      3.12487,     82.03911,50.00000,62.00000,3.302551e-09,0.92458,4
242.616, 39.14750,      3.12350,     82.09956,50.00000,62.00000,3.308385e-09,0.92451,4
243.597, 39.37417,      3.12817,     82.05422,50.00000,62.00000,3.305537e-09,0.92437,4
244.582, 39.60083,      3.13207,     82.11467,50.00000,62.00000,3.303010e-09,0.92429,4
245.567, 39.82750,      3.13883,     82.17511,50.00000,62.00000,3.300780e-09,0.92422,4
246.56, 40.05417,      3.14482,     82.17511,50.00000,62.00000,3.299254e-09,0.92410,4
247.567, 40.28083,      3.15006,     82.23511,50.00000,62.00000,3.311560e-09,0.92404,4
248.562, 40.50750,      3.15895,     82.23511,50.00000,62.00000,3.309532e-09,0.92398,4
249.568, 40.73417,      3.16626,     82.29556,50.00000,62.00000,3.304468e-09,0.92386,4
250.577, 40.96083,      3.17565,     82.29556,50.00000,62.00000,3.299404e-09,0.92379,4
251.605, 41.18750,      3.18554,     82.29556,50.00000,62.00000,3.303448e-09,0.92367,4
252.616, 41.41417,      3.19622,     82.34089,50.00000,62.00000,3.304657e-09,0.92361,4
253.636, 41.64083,      3.20328,     82.31067,50.00000,62.00000,3.301664e-09,0.92355,4
254.665, 41.86750,      3.21449,     82.34578,50.00000,62.00000,3.307609e-09,0.92343,4
255.705, 42.09417,      3.22290,     82.35600,50.00000,62.00000,3.309963e-09,0.92337,4
256.755, 42.32083,      3.23137,     82.41644,50.00000,62.00000,3.308154e-09,0.92331,4
257.799, 42.54750,      3.24272,     82.41644,50.00000,62.00000,3.307273e-09,0.92319,4
258.848, 42.77417,      3.25371,     82.46133,50.00000,62.00000,3.306919e-09,0.92313,4
259.917, 43.00083,      3.26274,     82.47644,50.00000,62.00000,3.313893e-09,0.92301,4
260.964, 43.22750,      3.26802,     82.47644,50.00000,62.00000,3.296289e-09,0.92295,4
262.026, 43.45417,      3.27791,     82.53689,50.00000,62.00000,3.300647e-09,0.92290,4
263.1, 43.68083,      3.28333,     82.53689,50.00000,62.00000,3.302998e-09,0.92278,4
264.168, 43.90750,      3.28916,     82.53689,50.00000,62.00000,3.297582e-09,0.92273,4
265.238, 44.13417,      3.29130,     82.53689,50.00000,62.00000,3.309319e-09,0.92268,4
266.319, 44.36083,      3.29639,     82.59733,50.00000,62.00000,3.309123e-09,0.92257,4
267.389, 44.58750,      3.30229,     82.59733,50.00000,62.00000,3.306230e-09,0.92252,4
268.488, 44.81417,      3.30540,     82.65778,50.00000,62.00000,3.308032e-09,0.92241,4
269.575, 45.04083,      3.31099,     82.65778,50.00000,62.00000,3.298521e-09,0.92236,4
270.665, 45.26750,      3.31744,     82.62756,50.00000,62.00000,3.311322e-09,0.92231,4
271.764, 45.49417,      3.31770,     82.68800,50.00000,62.00000,3.301525e-09,0.92221,4
272.847, 45.72083,      3.32041,     82.68800,50.00000,62.00000,3.305786e-09,0.92215,4
273.942, 45.94750,      3.31899,     82.73289,50.00000,62.00000,3.306923e-09,0.92206,4
275.053, 46.17417,      3.31848,     82.67289,50.00000,62.00000,3.305880e-09,0.92201,4
276.151, 46.40083,      3.31834,     82.79333,50.00000,62.00000,3.303578e-09,0.92196,4
277.26, 46.62750,      3.31784,     82.73289,50.00000,62.00000,3.301392e-09,0.92186,4
278.37, 46.85417,      3.31314,     82.79333,50.00000,62.00000,3.304334e-09,0.92181,4
279.474, 47.08083,      3.31347,     82.79333,50.00000,62.00000,3.307881e-09,0.92177,4
280.582, 47.30750,      3.31171,     82.80844,50.00000,62.00000,3.304749e-09,0.92167,4
281.696, 47.53417,      3.30997,     82.80844,50.00000,62.00000,3.310334e-09,0.92162,4
282.805, 47.76083,      3.30696,     82.79333,50.00000,62.00000,3.304206e-09,0.92152,4
283.92, 47.98750,      3.30650,     82.74800,50.00000,62.00000,3.304409e-09,0.92148,4
285.041, 48.21417,      3.30269,     82.80844,50.00000,62.00000,3.308732e-09,0.92144,4
286.15, 48.44083,      3.29331,     82.74800,50.00000,62.00000,3.302842e-09,0.92134,4
287.25, 48.66750,      3.28771,     82.74800,50.00000,62.00000,3.303423e-09,0.92129,4
288.376, 48.89417,      3.28050,     82.74800,50.00000,62.00000,3.303879e-09,0.92125,4
289.495, 49.12083,      3.27665,     82.68800,50.00000,62.00000,3.308675e-09,0.92116,4
290.612, 49.34750,      3.27023,     82.74800,50.00000,62.00000,3.297343e-09,0.92111,4
291.733, 49.57417,      3.26766,     82.68800,50.00000,62.00000,3.305941e-09,0.92103,4
292.859, 49.80083,      3.25956,     82.68800,50.00000,62.00000,3.299980e-09,0.92099,4
293.965, 50.02750,      3.25307,     82.68800,50.00000,62.00000,3.307004e-09,0.92094,4
295.09, 50.25417,      3.24707,     82.62756,50.00000,62.00000,3.304220e-09,0.92086,4
296.219, 50.48083,      3.24065,     82.68800,50.00000,62.00000,3.303946e-09,0.92082,4
297.326, 50.70750,      3.23199,     82.62222,50.00000,62.00000,3.302529e-09,0.92078,4
298.452, 50.93417,      3.22596,     82.66756,50.00000,62.00000,3.296882e-09,0.92070,4
299.572, 51.16083,      3.21689,     82.60711,50.00000,62.00000,3.304199e-09,0.92067,4
300.705, 51.38750,      3.20440,     82.54711,50.00000,62.00000,3.307737e-09,0.92059,4
301.817, 51.61417,      3.19741,     82.54711,50.00000,62.00000,3.300835e-09,0.92056,4
302.932, 51.84083,      3.18955,     82.50178,50.00000,62.00000,3.307227e-09,0.92052,4
304.061, 52.06750,      3.18000,     82.42622,50.00000,62.00000,3.306759e-09,0.92045,4
305.183, 52.29417,      3.17214,     82.36578,50.00000,62.00000,3.303145e-09,0.92042,4
306.3, 52.52083,      3.16380,     82.30578,50.00000,62.00000,3.305645e-09,0.92039,4
307.422, 52.74750,      3.15764,     82.24533,50.00000,62.00000,3.307215e-09,0.92032,4
308.551, 52.97417,      3.14758,     82.24533,50.00000,62.00000,3.305423e-09,0.92029,4
309.679, 53.20083,      3.13923,     82.18489,50.00000,62.00000,3.307573e-09,0.92023,4
310.811, 53.42750,      3.13263,     82.15467,50.00000,62.00000,3.307471e-09,0.92021,4
311.926, 53.65417,      3.12289,     82.09467,50.00000,62.00000,3.308150e-09,0.92017,4
313.06, 53.88083,      3.11276,     81.97378,50.00000,62.00000,3.299027e-09,0.92012,4
314.177, 54.10750,      3.10385,     81.85289,50.00000,62.00000,3.308973e-09,0.92009,4
315.311, 54.33417,      3.09455,     81.89822,50.00000,62.00000,3.304687e-09,0.92007,4
316.427, 54.56083,      3.08252,     81.79289,50.00000,62.00000,3.301990e-09,0.92002,4
317.55, 54.78750,      3.07357,     81.73244,50.00000,62.00000,3.304460e-09,0.91999,4
318.686, 55.01417,      3.06509,     81.61156,50.00000,62.00000,3.308413e-09,0.91997,4
319.814, 55.24083,      3.05656,     81.49111,50.00000,62.00000,3.304946e-09,0.91993,4
320.94, 55.46750,      3.05021,     81.37022,50.00000,62.00000,3.308583e-09,0.91991,4
322.083, 55.69417,      3.03992,     81.31022,50.00000,62.00000,3.301800e-09,0.91986,4
323.198, 55.92083,      3.02862,     81.24978,50.00000,62.00000,3.301171e-09,0.91985,4
324.331, 56.14750,      3.01824,     81.12889,50.00000,62.00000,3.300871e-09,0.91982,4
325.467, 56.37417,      3.00696,     80.94800,50.00000,62.00000,3.303285e-09,0.91980,4
326.589, 56.60083,      2.99693,     80.88756,50.00000,62.00000,3.300097e-09,0.91980,4
327.72, 56.82750,      2.98913,     80.75689,50.00000,62.00000,3.306756e-09,0.91979,4
328.841, 57.05417,      2.97861,     80.57111,50.00000,62.00000,3.302670e-09,0.91979,4
329.981, 57.28083,      2.96946,     80.45022,50.00000,62.00000,3.302742e-09,0.91978,4
331.093, 57.50750,      2.96108,     80.32978,50.00000,62.00000,3.303334e-09,0.91978,4
332.224, 57.73417,      2.95230,     80.14356,50.00000,62.00000,3.297750e-09,0.91977,4
333.35, 57.96083,      2.94438,     79.96267,50.00000,62.00000,3.302661e-09,0.91977,4
334.483, 58.18750,      2.93556,     79.83689,50.00000,62.00000,3.301857e-09,0.91976,4
335.618, 58.41417,      2.92583,     79.65067,50.00000,62.00000,3.296599e-09,0.91975,4
336.746, 58.64083,      2.91604,     79.46489,50.00000,62.00000,3.298335e-09,0.91976,4
337.877, 58.86750,      2.91030,     79.21333,50.00000,62.00000,3.301204e-09,0.91974,4
339.016, 59.09417,      2.90005,     79.03244,50.00000,62.00000,3.300337e-09,0.91974,4
340.144, 59.32083,      2.89155,     78.77067,50.00000,62.00000,3.302597e-09,0.91974,4
341.269, 59.54750,      2.88301,     78.54444,50.00000,62.00000,3.305486e-09,0.91973,4
342.403, 59.77417,      2.87538,     78.28311,50.00000,62.00000,3.301093e-09,0.91973,4
343.539, 60.00083,      2.86865,     78.07200,50.00000,62.00000,3.301541e-09,0.91972,4
344.67, 60.22750,      2.86007,     77.77511,50.00000,62.00000,3.305251e-09,0.91972,4
345.791, 60.45417,      2.84777,     77.50889,50.00000,62.00000,3.306369e-09,0.91971,4
346.933, 60.68083,      2.83552,     77.21200,50.00000,62.00000,3.306266e-09,0.91971,4
348.057, 60.90750,      2.82545,     76.91022,50.00000,62.00000,3.299987e-09,0.91970,4
349.181, 61.13417,      2.81489,     76.58844,50.00000,62.00000,3.302137e-09,0.91970,4
350.301, 61.36083,      2.80566,     76.18133,50.00000,62.00000,3.305265e-09,0.91969,4
351.444, 61.58750,      2.79695,     75.84444,50.00000,62.00000,3.302231e-09,0.91968,4
352.569, 61.81417,      2.79136,     75.51244,50.00000,62.00000,3.298890e-09,0.91968,4
353.702, 62.04083,      2.77980,     75.08533,50.00000,62.00000,3.301094e-09,0.91967,4
354.844, 62.26750,      2.77239,     74.59733,50.00000,62.00000,3.304156e-09,0.91967,4
355.955, 62.49417,      2.76254,     74.23556,50.00000,62.00000,3.300237e-09,0.91966,4
357.086, 62.72083,      2.75180,     73.70756,50.00000,62.00000,3.294495e-09,0.91966,4
358.206, 62.94750,      2.74701,     73.30533,50.00000,62.00000,3.300508e-09,0.91965,4
359.353, 63.17417,      2.73767,     72.75200,50.00000,62.00000,3.299416e-09,0.91964,4
360.483, 63.40083,      2.73427,     72.17378,50.00000,62.00000,3.296209e-09,0.91963,4
361.619, 63.62750,      2.72949,     71.58578,50.00000,62.00000,3.298639e-09,0.91963,4
362.75, 63.85417,      2.72328,     71.01733,50.00000,62.00000,3.307827e-09,0.91962,4
363.876, 64.08083,      2.71657,     70.38400,50.00000,62.00000,3.302180e-09,0.91962,4
365.013, 64.30750,      2.70846,     69.72000,50.00000,62.00000,3.298444e-09,0.91960,4
366.143, 64.53417,      2.70499,     68.99111,50.00000,62.00000,3.303304e-09,0.91960,4
367.274, 64.76083,      2.69776,     68.30711,50.00000,62.00000,3.300621e-09,0.91959,4
368.395, 64.98750,      2.69000,     67.58800,50.00000,62.00000,3.305438e-09,0.91958,4
369.535, 65.21417,      2.68887,     66.75867,50.00000,62.00000,3.302611e-09,0.91958,4
370.669, 65.44083,      2.68818,     65.96400,50.00000,62.00000,3.302943e-09,0.91957,4
371.8, 65.66750,      2.68418,     65.03378,50.00000,62.00000,3.305012e-09,0.91956,4
372.933, 65.89417,      2.67733,     64.18400,50.00000,62.00000,3.303825e-09,0.91955,4
374.054, 66.12083,      2.67799,     63.23867,50.00000,62.00000,3.303630e-09,0.91954,4
375.189, 66.34750,      2.66922,     62.22800,50.00000,62.00000,3.302148e-09,0.91954,4
376.325, 66.57417,      2.66279,     61.17733,50.00000,62.00000,3.302252e-09,0.91953,4
377.46, 66.80083,      2.65445,     60.12133,50.00000,62.00000,3.301697e-09,0.91952,4
378.591, 67.02750,      2.65510,     59.01022,50.00000,62.00000,3.298562e-09,0.91951,4
379.715, 67.25417,      2.64953,     57.77333,50.00000,62.00000,3.298982e-09,0.91950,4
380.84, 67.48083,      2.64585,     56.62178,50.00000,62.00000,3.300527e-09,0.91949,4
381.978, 67.70750,      2.63743,     55.32444,50.00000,62.00000,3.298569e-09,0.91948,4
383.1, 67.93417,      2.63322,     54.04222,50.00000,62.00000,3.297672e-09,0.91947,4
384.236, 68.16083,      2.62091,     52.70489,50.00000,62.00000,3.299024e-09,0.91946,4
385.366, 68.38750,      2.61333,     51.32711,50.00000,62.00000,3.303398e-09,0.91945,4
386.496, 68.61417,      2.60476,     49.82356,50.00000,62.00000,3.300237e-09,0.91943,4
387.629, 68.84083,      2.59714,     48.31511,50.00000,62.00000,3.299339e-09,0.91943,4
388.757, 69.06750,      2.58127,     46.79689,50.00000,62.00000,3.306520e-09,0.91943,4
389.887, 69.29417,      2.56247,     45.18267,50.00000,62.00000,3.301873e-09,0.91940,4
391.03, 69.52083,      2.54122,     43.56844,50.00000,62.00000,3.303041e-09,0.91939,4
392.153, 69.74750,      2.52178,     41.89422,50.00000,62.00000,3.301386e-09,0.91939,4
393.291, 69.97417,      2.49796,     40.21467,50.00000,62.00000,3.297798e-09,0.91937,4
394.427, 70.20083,      2.47163,     38.50000,50.00000,62.00000,3.297516e-09,0.91936,4
395.556, 70.42750,      2.43984,     36.71022,50.00000,62.00000,3.302104e-09,0.91934,4
396.68, 70.65417,      2.40744,     34.94044,50.00000,62.00000,3.303778e-09,0.91933,4
397.813, 70.88083,      2.37057,     33.18533,50.00000,62.00000,3.299376e-09,0.91932,4
398.947, 71.10750,      2.33262,     31.42044,50.00000,62.00000,3.298359e-09,0.91930,4
400.082, 71.33417,      2.29014,     29.57022,50.00000,62.00000,3.298975e-09,0.91929,4
401.209, 71.56083,      2.24800,     27.67956,50.00000,62.00000,3.298602e-09,0.91929,4
402.339, 71.78750,      2.20376,     25.97511,50.00000,62.00000,3.302339e-09,0.91927,4
403.472, 72.01417,      2.16039,     24.26044,50.00000,62.00000,3.304228e-09,0.91925,4
404.609, 72.24083,      2.11048,     22.50044,50.00000,62.00000,3.298568e-09,0.91923,4
405.743, 72.46750,      2.05054,     20.84133,50.00000,62.00000,3.302542e-09,0.91923,4
406.877, 72.69417,      1.98300,     19.09644,50.00000,62.00000,3.302264e-09,0.91921,4
407.996, 72.92083,      1.91670,     17.59822,50.00000,62.00000,3.302613e-09,0.91919,4
409.133, 73.14750,      1.84627,     16.06933,50.00000,62.00000,3.300528e-09,0.91918,4
410.268, 73.37417,      1.76619,     14.56622,50.00000,62.00000,3.298378e-09,0.91917,4
411.401, 73.60083,      1.68138,     13.09778,50.00000,62.00000,3.302803e-09,0.91915,4
412.538, 73.82750,      1.59084,     11.68978,50.00000,62.00000,3.292461e-09,0.91913,4
413.672, 74.05417,      1.49004,     10.34222,50.00000,62.00000,3.301900e-09,0.91911,4
414.801, 74.28083,      1.38043,      9.08533,50.00000,62.00000,3.304376e-09,0.91910,4
415.936, 74.50750,      1.26700,      7.84356,50.00000,62.00000,3.300572e-09,0.91909,4
417.069, 74.73417,      1.14920,      6.63156,50.00000,62.00000,3.301098e-09,0.91906,4
418.203, 74.96083,      1.03706,      5.64622,50.00000,62.00000,3.303102e-09,0.91905,4
419.331, 75.18750,      0.91553,      4.58533,50.00000,62.00000,3.302686e-09,0.91904,4
420.469, 75.41417,      0.80974,      3.58444,50.00000,62.00000,3.294014e-09,0.91901,4
421.6, 75.64083,      0.69706,      2.69956,50.00000,62.00000,3.299571e-09,0.91900,4
422.728, 75.86750,      0.59110,      1.89511,50.00000,62.00000,3.298929e-09,0.91897,4
423.867, 76.09417,      0.49393,      1.10044,50.00000,62.00000,3.304110e-09,0.91896,4
425.005, 76.32083,      0.40405,      0.43200,50.00000,62.00000,3.298503e-09,0.91895,4
426.122, 76.54750,      0.31085,     -0.16133,50.00000,62.00000,3.297373e-09,0.91892,4
427.255, 76.77417,      0.21940,     -0.71467,50.00000,62.00000,3.297232e-09,0.91891,4
428.387, 77.00083,      0.12665,     -1.22222,50.00000,62.00000,3.300545e-09,0.91889,4
429.525, 77.22750, 4.584758e-02,     -1.68978,50.00000,62.00000,3.306033e-09,0.91887,4
430.659, 77.45417,-2.755049e-02,     -2.07733,50.00000,62.00000,3.305791e-09,0.91885,4
431.784, 77.68083,     -0.10373,     -2.44933,50.00000,62.00000,3.297882e-09,0.91883,4
432.922, 77.90750,     -0.17860,     -2.71067,50.00000,62.00000,3.299112e-09,0.91881,4
434.058, 78.13417,     -0.24858,     -2.89156,50.00000,62.00000,3.301875e-09,0.91880,4
435.191, 78.36083,     -0.31876,     -3.14800,50.00000,62.00000,3.304341e-09,0.91877,4
436.325, 78.58750,     -0.38351,     -3.38933,50.00000,62.00000,3.295166e-09,0.91875,4
437.463, 78.81417,     -0.44125,     -3.45467,50.00000,62.00000,3.304215e-09,0.91874,4
438.586, 79.04083,     -0.50431,     -3.63067,50.00000,62.00000,3.299276e-09,0.91871,4
439.716, 79.26750,     -0.55672,     -3.70622,50.00000,62.00000,3.295153e-09,0.91869,4
440.845, 79.49417,     -0.60928,     -3.82711,50.00000,62.00000,3.300332e-09,0.91866,4
441.975, 79.72083,     -0.65890,     -3.88711,50.00000,62.00000,3.293366e-09,0.91865,4
443.103, 79.94750,     -0.70606,     -3.88711,50.00000,62.00000,3.300265e-09,0.91863,4
444.235, 80.17417,     -0.75442,     -3.94756,50.00000,62.00000,3.294449e-09,0.91860,4
445.363, 80.40083,     -0.79718,     -3.91733,50.00000,62.00000,3.301196e-09,0.91859,4
446.492, 80.62750,     -0.84112,     -3.91733,50.00000,62.00000,3.301126e-09,0.91857,4
447.625, 80.85417,     -0.88154,     -3.91733,50.00000,62.00000,3.295373e-09,0.91854,4
448.756, 81.08083,     -0.92260,     -3.91733,50.00000,62.00000,3.296011e-09,0.91853,4
449.893, 81.30750,     -0.95856,     -3.91733,50.00000,62.00000,3.297772e-09,0.91851,4
451.031, 81.53417,     -0.99724,     -3.85733,50.00000,62.00000,3.296252e-09,0.91847,4
452.163, 81.76083,     -1.03918,     -3.85733,50.00000,62.00000,3.298301e-09,0.91846,4
453.295, 81.98750,     -1.07967,     -3.84222,50.00000,62.00000,3.290041e-09,0.91842,4
454.417, 82.21417,     -1.12395,     -3.79689,50.00000,62.00000,3.298449e-09,0.91841,4
455.555, 82.44083,     -1.16891,     -3.85733,50.00000,62.00000,3.299248e-09,0.91839,4
456.686, 82.66750,     -1.20818,     -3.79689,50.00000,62.00000,3.296261e-09,0.91836,4
457.81, 82.89417,     -1.24543,     -3.79689,50.00000,62.00000,3.302542e-09,0.91834,4
458.943, 83.12083,     -1.28493,     -3.79689,50.00000,62.00000,3.292444e-09,0.91831,4
460.072, 83.34750,     -1.32188,     -3.67600,50.00000,62.00000,3.296507e-09,0.91829,4
461.215, 83.57417,     -1.36216,     -3.67600,50.00000,62.00000,3.291771e-09,0.91827,4
462.347, 83.80083,     -1.40253,     -3.69111,50.00000,62.00000,3.294806e-09,0.91824,4
463.479, 84.02750,     -1.44249,     -3.69111,50.00000,62.00000,3.298196e-09,0.91822,4
464.613, 84.25417,     -1.48523,     -3.70622,50.00000,62.00000,3.296831e-09,0.91820,4
465.747, 84.48083,     -1.52542,     -3.64578,50.00000,62.00000,3.289719e-09,0.91817,4
466.88, 84.70750,     -1.56787,     -3.69111,50.00000,62.00000,3.288551e-09,0.91815,4
468.016, 84.93417,     -1.61260,     -3.66089,50.00000,62.00000,3.299103e-09,0.91813,4
469.144, 85.16083,     -1.65045,     -3.61600,50.00000,62.00000,3.302291e-09,0.91810,4
470.279, 85.38750,     -1.69595,     -3.66089,50.00000,62.00000,3.292031e-09,0.91808,4
471.41, 85.61417,     -1.73566,     -3.61600,50.00000,62.00000,3.292858e-09,0.91804,4
472.545, 85.84083,     -1.77764,     -3.57067,50.00000,62.00000,3.301732e-09,0.91803,4
473.683, 86.06750,     -1.82083,     -3.61600,50.00000,62.00000,3.302709e-09,0.91801,4
474.805, 86.29417,     -1.86193,     -3.58578,50.00000,62.00000,3.301159e-09,0.91797,4
475.955, 86.52083,     -1.90810,     -3.55556,50.00000,62.00000,3.297185e-09,0.91795,4
477.077, 86.74750,     -1.95217,     -3.55556,50.00000,62.00000,3.294950e-09,0.91794,4
478.213, 86.97417,     -1.99693,     -3.52533,50.00000,62.00000,3.300883e-09,0.91790,4
479.354, 87.20083,     -2.04074,     -3.55556,50.00000,62.00000,3.299221e-09,0.91788,4
480.471, 87.42750,     -2.08680,     -3.49511,50.00000,62.00000,3.304435e-09,0.91785,4
481.614, 87.65417,     -2.13414,     -3.49511,50.00000,62.00000,3.297316e-09,0.91783,4
482.751, 87.88083,     -2.17723,     -3.54044,50.00000,62.00000,3.297830e-09,0.91781,4
483.884, 88.10750,     -2.21824,     -3.42978,50.00000,62.00000,3.297051e-09,0.91777,4
485.014, 88.33417,     -2.26757,     -3.49022,50.00000,62.00000,3.294144e-09,0.91775,4
486.14, 88.56083,     -2.30934,     -3.49022,50.00000,62.00000,3.292958e-09,0.91773,4
487.279, 88.78750,     -2.35842,     -3.42978,50.00000,62.00000,3.296992e-09,0.91769,4
488.413, 89.01417,     -2.40266,     -3.42978,50.00000,62.00000,3.296325e-09,0.91767,4
489.546, 89.24083,     -2.44647,     -3.36933,50.00000,62.00000,3.298831e-09,0.91763,4
490.681, 89.46750,     -2.49482,     -3.42978,50.00000,62.00000,3.299845e-09,0.91761,4
491.81, 89.69417,     -2.53499,     -3.36933,50.00000,62.00000,3.293584e-09,0.91760,4
492.944, 89.92083,     -2.57694,     -3.36933,50.00000,62.00000,3.309367e-09,0.91756,4
494.083, 90.14750,     -2.62735,     -3.36933,50.00000,62.00000,3.294628e-09,0.91754,4
495.224, 90.37417,     -2.67457,     -3.36933,50.00000,62.00000,3.299964e-09,0.91752,4
496.357, 90.60083,     -2.72300,     -3.36933,50.00000,62.00000,3.290484e-09,0.91748,4
497.486, 90.82750,     -2.76932,     -3.36933,50.00000,62.00000,3.301253e-09,0.91746,4
498.608, 91.05417,     -2.81853,     -3.36933,50.00000,62.00000,3.292048e-09,0.91742,4
499.737, 91.28083,     -2.86286,     -3.30889,50.00000,62.00000,3.289670e-09,0.91740,4
500.875, 91.50750,     -2.91015,     -3.30889,50.00000,62.00000,3.299046e-09,0.91737,4
502.005, 91.73417,     -2.95305,     -3.30889,50.00000,62.00000,3.301934e-09,0.91734,4
503.139, 91.96083,     -2.99495,     -3.30889,50.00000,62.00000,3.299085e-09,0.91732,4
504.276, 92.18750,     -3.03528,     -3.30400,50.00000,62.00000,3.299206e-09,0.91730,4
505.41, 92.41417,     -3.07684,     -3.30400,50.00000,62.00000,3.294115e-09,0.91726,4
506.546, 92.64083,     -3.12866,     -3.36444,50.00000,62.00000,3.298612e-09,0.91724,4
507.685, 92.86750,     -3.17499,     -3.30400,50.00000,62.00000,3.291719e-09,0.91720,4
508.815, 93.09417,     -3.22140,     -3.25867,50.00000,62.00000,3.295992e-09,0.91718,4
509.958, 93.32083,     -3.27251,     -3.31911,50.00000,62.00000,3.288991e-09,0.91716,4
511.088, 93.54750,     -3.32144,     -3.25867,50.00000,62.00000,3.302889e-09,0.91712,4
512.229, 93.77417,     -3.36940,     -3.25867,50.00000,62.00000,3.293963e-09,0.91710,4
513.364, 94.00083,     -3.41519,     -3.22844,50.00000,62.00000,3.301298e-09,0.91707,4
514.49, 94.22750,     -3.46789,     -3.22844,50.00000,62.00000,3.299215e-09,0.91703,4
515.62, 94.45417,     -3.51789,     -3.28889,50.00000,62.00000,3.289269e-09,0.91701,4
516.747, 94.68083,     -3.56230,     -3.28889,50.00000,62.00000,3.298960e-09,0.91697,4
517.893, 94.90750,     -3.60518,     -3.25867,50.00000,62.00000,3.290787e-09,0.91696,4
519.02, 95.13417,     -3.64981,     -3.25867,50.00000,62.00000,3.288552e-09,0.91694,4
520.154, 95.36083,     -3.69228,     -3.21333,50.00000,62.00000,3.300466e-09,0.91689,4
521.298, 95.58750,     -3.74295,     -3.21333,50.00000,62.00000,3.299645e-09,0.91687,4
522.415, 95.81417,     -3.78787,     -3.21333,50.00000,62.00000,3.301219e-09,0.91685,4
523.562, 96.04083,     -3.83650,     -3.19867,50.00000,62.00000,3.299861e-09,0.91681,4
524.707, 96.26750,     -3.87890,     -3.19867,50.00000,62.00000,3.299624e-09,0.91678,4
525.828, 96.49417,     -3.92822,     -3.19867,50.00000,62.00000,3.303080e-09,0.91674,4
526.964, 96.72083,     -3.97368,     -3.13822,50.00000,62.00000,3.289292e-09,0.91672,4
528.105, 96.94750,     -4.01696,     -3.13822,50.00000,62.00000,3.295011e-09,0.91669,4
529.244, 97.17417,     -4.06382,     -3.13822,50.00000,62.00000,3.305491e-09,0.91665,4
530.388, 97.40083,     -4.10500,     -3.18356,50.00000,62.00000,3.296665e-09,0.91663,4
531.519, 97.62750,     -4.15844,     -3.19867,50.00000,62.00000,3.298332e-09,0.91661,4
532.651, 97.85417,     -4.20561,     -3.12800,50.00000,62.00000,3.297501e-09,0.91657,4
533.791, 98.08083,     -4.25234,     -3.17333,50.00000,62.00000,3.301323e-09,0.91654,4
534.927, 98.30750,     -4.30852,     -3.17333,50.00000,62.00000,3.300547e-09,0.91652,4
536.066, 98.53417,     -4.35491,     -3.17333,50.00000,62.00000,3.299725e-09,0.91648,4
537.2, 98.76083,     -4.40255,     -3.05244,50.00000,62.00000,3.294991e-09,0.91646,4
538.326, 98.98750,     -4.44908,     -3.15822,50.00000,62.00000,3.298780e-09,0.91644,4
539.47, 99.21417,     -4.49054,     -3.15822,50.00000,62.00000,3.299485e-09,0.91639,4
540.614, 99.44083,     -4.53916,     -3.14311,50.00000,62.00000,3.304963e-09,0.91637,4
541.738, 99.66750,     -4.58836,     -3.14311,50.00000,62.00000,3.292539e-09,0.91632,4
542.873, 99.89417,     -4.63598,     -3.08267,50.00000,62.00000,3.293778e-09,0.91630,4
543.994,100.121,     -4.69071,     -3.14311,50.00000,62.00000,3.299326e-09,0.91628,4
545.131,100.347,     -4.73265,     -3.08267,50.00000,62.00000,3.296541e-09,0.91623,4
546.271,100.574,     -4.78241,     -3.08267,50.00000,62.00000,3.300056e-09,0.91621,4
547.399,100.801,     -4.82450,     -3.08267,50.00000,62.00000,3.302918e-09,0.91618,4
548.534,101.028,     -4.86435,     -3.08267,50.00000,62.00000,3.300022e-09,0.91614,4
549.674,101.254,     -4.90788,     -3.08267,50.00000,62.00000,3.295857e-09,0.91611,4
550.815,101.481,     -4.95509,     -3.02267,50.00000,62.00000,3.298474e-09,0.91607,4
551.951,101.707,     -4.99940,     -3.08267,50.00000,62.00000,3.297051e-09,0.91605,4
553.085,101.934,     -5.04916,     -3.02267,50.00000,62.00000,3.303163e-09,0.91602,4
554.23,102.161,     -5.09552,     -3.00756,50.00000,62.00000,3.300014e-09,0.91598,4
555.354,102.388,     -5.14246,     -3.06756,50.00000,62.00000,3.300538e-09,0.91595,4
556.488,102.614,     -5.18416,     -3.00756,50.00000,62.00000,3.290841e-09,0.91593,4
557.63,102.841,     -5.22780,     -3.06756,50.00000,62.00000,3.296023e-09,0.91588,4
558.764,103.067,     -5.27149,     -3.02267,50.00000,62.00000,3.298083e-09,0.91585,4
559.896,103.294,     -5.31466,     -3.02267,50.00000,62.00000,3.300257e-09,0.91581,4
561.032,103.521,     -5.36277,     -3.00756,50.00000,62.00000,3.292133e-09,0.91578,4
562.179,103.748,     -5.40984,     -2.97733,50.00000,62.00000,3.296771e-09,0.91576,4
563.311,103.974,     -5.45632,     -2.97733,50.00000,62.00000,3.290116e-09,0.91571,4
564.446,104.201,     -5.49687,     -3.03733,50.00000,62.00000,3.302102e-09,0.91568,4
565.575,104.427,     -5.54655,     -2.97733,50.00000,62.00000,3.295196e-09,0.91566,4
566.709,104.654,     -5.59030,     -3.03733,50.00000,62.00000,3.291196e-09,0.91561,4
567.847,104.881,     -5.63782,     -2.97733,50.00000,62.00000,3.295315e-09,0.91558,4
568.981,105.108,     -5.68115,     -2.97733,50.00000,62.00000,3.294353e-09,0.91556,4
570.117,105.334,     -5.72154,     -2.97733,50.00000,62.00000,3.290427e-09,0.91551,4
571.261,105.561,     -5.76633,     -2.97733,50.00000,62.00000,3.294907e-09,0.91548,4
572.395,105.787,     -5.80687,     -2.97733,50.00000,62.00000,3.296565e-09,0.91544,4
573.525,106.014,     -5.85603,     -2.97733,50.00000,62.00000,3.295119e-09,0.91541,4
574.67,106.241,     -5.89805,     -2.97733,50.00000,62.00000,3.289860e-09,0.91539,4
575.807,106.468,     -5.93826,     -2.97733,50.00000,62.00000,3.295863e-09,0.91534,4
576.933,106.694,     -5.98276,     -3.02267,50.00000,62.00000,3.296145e-09,0.91531,4
578.074,106.921,     -6.02869,     -2.96222,50.00000,62.00000,3.294053e-09,0.91528,4
579.206,107.147,     -6.06912,     -3.02267,50.00000,62.00000,3.299748e-09,0.91523,4
580.351,107.374,     -6.11279,     -2.96222,50.00000,62.00000,3.291718e-09,0.91521,4
581.487,107.601,     -6.15834,     -2.94711,50.00000,62.00000,3.300964e-09,0.91518,4
582.624,107.828,     -6.20522,     -2.94711,50.00000,62.00000,3.299170e-09,0.91513,4
583.761,108.054,     -6.24848,     -2.99244,50.00000,62.00000,3.295118e-09,0.91510,4
584.892,108.281,     -6.29055,     -2.96222,50.00000,62.00000,3.293136e-09,0.91505,4
586.039,108.507,     -6.33281,     -2.90178,50.00000,62.00000,3.290148e-09,0.91502,4
587.178,108.734,     -6.37820,     -2.96222,50.00000,62.00000,3.291958e-09,0.91500,4
588.312,108.961,     -6.42800,     -2.93200,50.00000,62.00000,3.297960e-09,0.91495,4
589.44,109.188,     -6.47287,     -2.93200,50.00000,62.00000,3.295445e-09,0.91492,4
590.584,109.414,     -6.51856,     -2.93200,50.00000,62.00000,3.301355e-09,0.91489,4
591.712,109.641,     -6.56174,     -2.94711,50.00000,62.00000,3.293740e-09,0.91483,4
592.859,109.868,     -6.60825,     -2.94711,50.00000,62.00000,3.292765e-09,0.91480,4
593.995,110.094,     -6.64539,     -2.94711,50.00000,62.00000,3.303075e-09,0.91477,4
595.133,110.321,     -6.69640,     -2.97733,50.00000,62.00000,3.300076e-09,0.91472,4
596.265,110.547,     -6.73805,     -2.97733,50.00000,62.00000,3.301416e-09,0.91470,4
597.405,110.774,     -6.78737,     -2.96222,50.00000,62.00000,3.302636e-09,0.91464,4
598.317,110.957,     -6.81935,     -2.90178,50.00000,62.00000,3.294927e-09,0.91461,5
598.765,111.043,     -6.82082,     -2.90178,50.00000,62.00000,3.294927e-09,0.91461,5
599.335,111.127,     -6.59967,     -2.85644,50.00000,62.00000,3.297659e-09,0.91458,5
600.113,111.213,     -6.04190,     -2.84133,50.00000,62.00000,3.297659e-09,0.91458,5
601.11,111.297,     -5.12044,     -2.75111,50.00000,62.00000,3.299658e-09,0.91455,5
602.358,111.382,     -3.91823,     -2.65556,50.00000,62.00000,3.299658e-09,0.91455,5
603.832,111.468,     -2.57607,     -2.51956,50.00000,62.00000,3.295149e-09,0.91452,5
605.489,111.552,     -1.20636,     -2.37867,50.00000,62.00000,3.295149e-09,0.91452,5
607.267,111.638, 4.191983e-02,     -2.25822,50.00000,62.00000,3.295155e-09,0.91449,5
609.121,111.722,      1.09528,     -2.19778,50.00000,62.00000,3.295155e-09,0.91449,5
611.018,111.808,      1.89149,     -2.13733,50.00000,62.00000,3.298191e-09,0.91447,5
612.908,111.892,      2.41037,     -2.07733,50.00000,62.00000,3.298191e-09,0.91447,5
614.749,111.978,      2.65587,     -2.01689,50.00000,62.00000,3.294068e-09,0.91444,5
616.521,112.062,      2.64421,     -2.01689,50.00000,62.00000,3.294068e-09,0.91444,5
618.237,112.147,      2.44981,     -2.01689,50.00000,62.00000,3.293993e-09,0.91441,5
619.889,112.233,      2.11546,     -2.07733,50.00000,62.00000,3.293993e-09,0.91441,5
621.464,112.317,      1.68951,     -2.01689,50.00000,62.00000,3.292434e-09,0.91438,5
622.98,112.403,      1.24397,     -1.95644,50.00000,62.00000,3.292434e-09,0.91438,5
624.464,112.487,      0.81378,     -2.01689,50.00000,62.00000,3.297804e-09,0.91435,5
625.909,112.573,      0.43213,     -2.01689,50.00000,62.00000,3.297804e-09,0.91435,5
627.36,112.657,      0.12263,     -2.01689,50.00000,62.00000,3.290102e-09,0.91432,5
628.812,112.743,     -0.10722,     -2.01689,50.00000,62.00000,3.290102e-09,0.91432,5
630.264,112.828,     -0.25316,     -1.95644,50.00000,62.00000,3.292874e-09,0.91430,5
631.752,112.912,     -0.32525,     -1.95644,50.00000,62.00000,3.292509e-09,0.91426,5
633.265,112.998,     -0.32707,     -1.91111,50.00000,62.00000,3.292509e-09,0.91426,5
634.806,113.082,     -0.28836,     -1.91111,50.00000,62.00000,3.298736e-09,0.91424,5
636.385,113.168,     -0.20761,     -1.91111,50.00000,62.00000,3.298736e-09,0.91424,5
637.974,113.252,     -0.11480,     -1.89600,50.00000,62.00000,3.291721e-09,0.91421,5
639.603,113.338,-1.839841e-02,     -1.83600,50.00000,62.00000,3.291721e-09,0.91421,5
641.246,113.422, 6.647672e-02,     -1.77556,50.00000,62.00000,3.301044e-09,0.91418,5
642.907,113.507,      0.13384,     -1.71511,50.00000,62.00000,3.301044e-09,0.91418,5
644.583,113.593,      0.16841,     -1.77556,50.00000,62.00000,3.298079e-09,0.91415,5
646.262,113.677,      0.19648,     -1.71022,50.00000,62.00000,3.298079e-09,0.91415,5
647.936,113.763,      0.19349,     -1.64978,50.00000,62.00000,3.292791e-09,0.91412,5
649.616,113.847,      0.16727,     -1.64978,50.00000,62.00000,3.292791e-09,0.91412,5
651.308,113.933,      0.12034,     -1.64978,50.00000,62.00000,3.299894e-09,0.91409,5
652.982,114.017, 6.726567e-02,     -1.58933,50.00000,62.00000,3.299894e-09,0.91409,5
654.675,114.103,-6.004060e-03,     -1.58933,50.00000,62.00000,3.301845e-09,0.91406,5
656.36,114.188,-7.818317e-02,     -1.52889,50.00000,62.00000,3.301845e-09,0.91406,5
658.052,114.272,     -0.15328,     -1.52889,50.00000,62.00000,3.292409e-09,0.91403,5
659.74,114.358,     -0.22997,     -1.52889,50.00000,62.00000,3.292409e-09,0.91403,5
661.429,114.442,     -0.31027,     -1.46889,50.00000,62.00000,3.299373e-09,0.91400,5
663.13,114.528,     -0.38411,     -1.52889,50.00000,62.00000,3.299373e-09,0.91400,5
664.824,114.612,     -0.45752,     -1.46889,50.00000,62.00000,3.294467e-09,0.91397,5
666.533,114.698,     -0.52510,     -1.46889,50.00000,62.00000,3.294467e-09,0.91397,5
668.244,114.782,     -0.58749,     -1.46889,50.00000,62.00000,3.291002e-09,0.91393,5
669.952,114.868,     -0.66160,     -1.40844,50.00000,62.00000,3.291002e-09,0.91393,5
671.656,114.953,     -0.72780,     -1.37822,50.00000,62.00000,3.292761e-09,0.91391,5
673.374,115.037,     -0.78812,     -1.34800,50.00000,62.00000,3.292761e-09,0.91391,5
675.101,115.123,     -0.86292,     -1.34800,50.00000,62.00000,3.289173e-09,0.91388,5
676.831,115.207,     -0.93525,     -1.34800,50.00000,62.00000,3.303207e-09,0.91384,5
678.562,115.293,     -1.00849,     -1.28756,50.00000,62.00000,3.303207e-09,0.91384,5
680.287,115.377,     -1.07854,     -1.24267,50.00000,62.00000,3.299659e-09,0.91382,5
682.003,115.463,     -1.16730,     -1.24267,50.00000,62.00000,3.299659e-09,0.91382,5
683.749,115.547,     -1.24883,     -1.22756,50.00000,62.00000,3.294153e-09,0.91378,5
685.479,115.632,     -1.33541,     -1.16711,50.00000,62.00000,3.294153e-09,0.91378,5
687.213,115.718,     -1.42434,     -1.22756,50.00000,62.00000,3.289359e-09,0.91375,5
688.943,115.802,     -1.51699,     -1.10667,50.00000,62.00000,3.289359e-09,0.91375,5
690.676,115.888,     -1.61270,     -1.10667,50.00000,62.00000,3.293646e-09,0.91372,5
692.409,115.972,     -1.70871,     -1.16711,50.00000,62.00000,3.293646e-09,0.91372,5
694.135,116.058,     -1.79323,     -1.16711,50.00000,62.00000,3.294024e-09,0.91369,5
695.879,116.142,     -1.89262,     -1.16711,50.00000,62.00000,3.294024e-09,0.91369,5
697.611,116.228,     -1.98743,     -1.10667,50.00000,62.00000,3.300475e-09,0.91366,5
699.348,116.312,     -2.08742,     -1.04133,50.00000,62.00000,3.300475e-09,0.91366,5
701.076,116.397,     -2.17933,     -0.98089,50.00000,62.00000,3.296813e-09,0.91363,5
702.811,116.483,     -2.27922,     -1.05644,50.00000,62.00000,3.296813e-09,0.91363,5
704.557,116.567,     -2.37245,     -1.04133,50.00000,62.00000,3.291400e-09,0.91360,5
706.299,116.653,     -2.46665,     -1.04133,50.00000,62.00000,3.291400e-09,0.91360,5
708.045,116.737,     -2.56677,     -1.04133,50.00000,62.00000,3.301336e-09,0.91356,5
709.775,116.823,     -2.66083,     -1.04133,50.00000,62.00000,3.301336e-09,0.91356,5
711.521,116.907,     -2.76718,     -0.98089,50.00000,62.00000,3.291306e-09,0.91353,5
713.254,116.993,     -2.86254,     -0.91556,50.00000,62.00000,3.291306e-09,0.91353,5
715.005,117.078,     -2.95117,     -0.91556,50.00000,62.00000,3.287451e-09,0.91350,5
716.747,117.162,     -3.06198,     -0.91556,50.00000,62.00000,3.287451e-09,0.91350,5
718.483,117.248,     -3.15256,     -0.91556,50.00000,62.00000,3.291410e-09,0.91346,5
720.232,117.332,     -3.26828,     -0.85511,50.00000,62.00000,3.291410e-09,0.91346,5
721.977,117.418,     -3.37653,     -0.85511,50.00000,62.00000,3.294350e-09,0.91343,5
723.72,117.502,     -3.49008,     -0.91556,50.00000,62.00000,3.294350e-09,0.91343,5
725.472,117.588,     -3.59472,     -0.78978,50.00000,62.00000,3.290721e-09,0.91340,5
727.207,117.672,     -3.71177,     -0.83511,50.00000,62.00000,3.290721e-09,0.91340,5
728.941,117.757,     -3.81200,     -0.83511,50.00000,62.00000,3.289762e-09,0.91337,5
730.687,117.843,     -3.92618,     -0.80489,50.00000,62.00000,3.294110e-09,0.91334,5
732.423,117.927,     -4.03636,     -0.77467,50.00000,62.00000,3.294110e-09,0.91334,5
734.168,118.013,     -4.15552,     -0.72978,50.00000,62.00000,3.293325e-09,0.91330,5
735.897,118.097,     -4.26778,     -0.77467,50.00000,62.00000,3.293325e-09,0.91330,5
737.641,118.183,     -4.37971,     -0.71467,50.00000,62.00000,3.297959e-09,0.91328,5
739.381,118.267,     -4.48979,     -0.71467,50.00000,62.00000,3.297959e-09,0.91328,5
741.113,118.353,     -4.60740,     -0.71467,50.00000,62.00000,3.289188e-09,0.91324,5
742.856,118.438,     -4.72685,     -0.71467,50.00000,62.00000,3.289188e-09,0.91324,5
744.591,118.522,     -4.83574,     -0.65422,50.00000,62.00000,3.289650e-09,0.91321,5
746.329,118.608,     -4.94859,     -0.65422,50.00000,62.00000,3.289650e-09,0.91321,5
748.06,118.692,     -5.06539,     -0.65422,50.00000,62.00000,3.290309e-09,0.91318,5
749.804,118.778,     -5.16801,     -0.58889,50.00000,62.00000,3.290309e-09,0.91318,5
751.536,118.862,     -5.29351,     -0.58889,50.00000,62.00000,3.292109e-09,0.91314,5
753.272,118.948,     -5.40770,     -0.58889,50.00000,62.00000,3.292109e-09,0.91314,5
755.004,119.032,     -5.51049,     -0.58889,50.00000,62.00000,3.295530e-09,0.91311,5
756.74,119.118,     -5.63780,     -0.58889,50.00000,62.00000,3.295530e-09,0.91311,5
758.483,119.203,     -5.75231,     -0.52844,50.00000,62.00000,3.293027e-09,0.91307,5
760.217,119.287,     -5.86417,     -0.52844,50.00000,62.00000,3.293027e-09,0.91307,5
761.951,119.373,     -5.98151,     -0.46800,50.00000,62.00000,3.290646e-09,0.91304,5
763.69,119.457,     -6.10440,     -0.46800,50.00000,62.00000,3.290646e-09,0.91304,5
765.414,119.543,     -6.22239,     -0.46800,50.00000,62.00000,3.297158e-09,0.91301,5
767.147,119.627,     -6.34300,     -0.51333,50.00000,62.00000,3.297158e-09,0.91301,5
768.883,119.713,     -6.46028,     -0.48311,50.00000,62.00000,3.289084e-09,0.91297,5
770.61,119.797,     -6.56821,     -0.42311,50.00000,62.00000,3.289084e-09,0.91297,5
772.346,119.882,     -6.71369,     -0.42311,50.00000,62.00000,3.291599e-09,0.91294,5
774.071,119.968,     -6.83198,     -0.42311,50.00000,62.00000,3.291599e-09,0.91294,5
775.808,120.052,     -6.95294,     -0.43778,50.00000,62.00000,3.299905e-09,0.91290,5
777.537,120.138,     -7.06375,     -0.43778,50.00000,62.00000,3.299905e-09,0.91290,5
779.27,120.222,     -7.17941,     -0.37778,50.00000,62.00000,3.295389e-09,0.91287,5
781,120.308,     -7.29914,     -0.37778,50.00000,62.00000,3.295389e-09,0.91287,5
782.73,120.392,     -7.41097,     -0.33244,50.00000,62.00000,3.290777e-09,0.91284,5
784.467,120.478,     -7.52619,     -0.33244,50.00000,62.00000,3.290777e-09,0.91284,5
786.179,120.562,     -7.64160,     -0.33244,50.00000,62.00000,3.298825e-09,0.91281,5
787.921,120.647,     -7.75831,     -0.33244,50.00000,62.00000,            ,0.44973,5
789.655,120.733,     -7.87985,     -0.33244,50.00000,62.00000,            ,0.44904,5
791.382,120.817,     -7.99188,     -0.31733,50.00000,62.00000,            ,0.44834,5
793.11,120.903,     -8.10956,     -0.25689,50.00000,62.00000,            ,0.44765,5
793.831,120.938,     -8.16104,     -0.19644,50.00000,62.00000,            ,0.44736,5