File: data/TGA/ps_scf3_flynn_ozawa_wall/ExpDat_2025_11_18_SL_PS_Tosoh_F1_2K_min.csv
#EXPORTTYPE:                 ,DATA ALL
#FILE:                       ,2025_11_18_SL_PS_Tosoh_F1_2K_min.ngb-ss5
#FORMAT:                     ,NETZSCH5
#FTYPE:                      ,ASCII
#IDENTITY:                   ,PS_Tosoh_F1
#DECIMAL:                    ,POINT
#SEPARATOR:                  ,COMMA
#MTYPE:                      ,DSC
#INSTRUMENT:                 ,NETZSCH STA 449F5
#PROJECT:                    ,
#DATE/TIME:                  ,11/18/2025 2:37:36 PM (UTC-5)
#CORR. FILE:                 ,
#TEMPCAL:                    ,05-05-2025 14:38
#SENSITIVITY:                ,28-06-2023 13:53
#LABORATORY:                 ,Tran
#OPERATOR:                   ,Stan
#REMARK:                     ,
#SAMPLE:                     ,PS_Tosoh_F1
#SAMPLE MASS /mg:            ,4.27
#MATERIAL:                   ,
#REFERENCE:                  ,
#REFERENCE MASS /mg:         ,0
#TYPE OF CRUCIBLE:           ,Al2O3 85 ‘l, open
#SAMPLE CRUCIBLE MASS /mg:   ,0
#REFERENCE CRUCIBLE MASS /mg:,0
#DSC RANGE /‘V:              ,5000
#TG RANGE /mg:               ,35000
#TAU-R:                      ,---
#CORR. CODE:                 ,000
#EXO:                        ,-1
#RANGE:                      ,20›C....800›C/0.0....20.0K/min
#SEGMENT:                    ,S1-5/5
#SEG. 1:                     ,20›C/5.0(K/min)/100›C
#SEG. 2:                     ,100›C/00:05/100›C
#SEG. 3:                     ,100›C/10.0(K/min)/200›C
#SEG. 4:                     ,200›C/2.0(K/min)/600›C
#SEG. 5:                     ,600›C/20.0(K/min)/800›C

##Temp./›C,Time/min,DSC/(mW/mg),Mass/%,Gas Flow(purge2)/(ml/min),Gas Flow(protective)/(ml/min),TIC(scan:1)/A,Sensit./(uV/mW),Segment
 27.70400,  0.00000,      2.12061,    100,50.00000,63.00000,            ,0.92311,1
 34.52000,  1.33333,      1.32064,     97.18080,50.00000,61.00000,3.393638e-09,0.92379,1
 37.41300,  2.66667,      0.62118,     85.31897,50.00000,60.00000,3.405942e-09,0.92418,1
 38.78600,  4.00000,      0.27779,     84.75995,50.00000,61.00000,3.410600e-09,0.92444,1
 40.11900,  5.33333,      0.31733,     84.60094,50.00000,61.00000,3.430984e-09,0.92462,1
 42.92300,  6.66667,      0.71419,     85.17330,50.00000,61.00000,3.438421e-09,0.92475,1
 47.48100,  8.00000,      1.16724,     85.97073,50.00000,61.00000,3.432239e-09,0.92484,1
 53.61000,  9.33333,      1.61250,     86.81593,50.00000,61.00000,3.434430e-09,0.92490,1
 61.03800, 10.66667,      1.98702,     87.55246,50.00000,61.00000,3.437807e-09,0.92496,1
 69.21900, 12.00000,      2.26599,     88.14075,50.00000,61.00000,3.446016e-09,0.92501,1
 77.75200, 13.33333,      2.44964,     88.56206,50.00000,61.00000,3.442076e-09,0.92509,1
 86.35900, 14.66667,      2.55423,     88.81897,50.00000,61.00000,3.461223e-09,0.92520,1
 94.84200, 15.99917,      2.60196,     88.94614,50.00000,61.00000,3.450766e-09,0.92533,1
100.342, 16.99917,      2.34212,     88.45855,50.00000,61.00000,3.445661e-09,0.92544,2
103.753, 17.99917,      1.59029,     87.65316,50.00000,61.00000,3.440806e-09,0.92556,2
106.075, 18.99917,      1.11586,     87.11803,50.00000,61.00000,3.455797e-09,0.92570,2
107.475, 19.99917,      0.70962,     86.47424,50.00000,61.00000,3.448485e-09,0.92582,2
107.998, 20.99917,      0.33659,     85.99461,50.00000,61.00000,3.454875e-09,0.92593,2
108.015, 21.19917,      0.27573,     85.82763,50.00000,61.00000,3.451365e-09,0.92594,3
108.099, 21.39917,      0.25026,     85.85948,50.00000,61.00000,3.449911e-09,0.92596,3
108.259, 21.59917,      0.29462,     85.99719,50.00000,61.00000,3.460305e-09,0.92598,3
108.565, 21.79917,      0.41600,     86.24098,50.00000,61.00000,3.444254e-09,0.92599,3
109.045, 21.99917,      0.60727,     86.56698,50.00000,61.00000,3.445802e-09,0.92602,3
109.688, 22.19917,      0.84904,     86.90609,50.00000,61.00000,3.455741e-09,0.92604,3
110.484, 22.39917,      1.11451,     87.27963,50.00000,61.00000,3.443961e-09,0.92605,3
111.39, 22.59917,      1.38368,     87.54192,50.00000,61.00000,3.456219e-09,0.92607,3
112.386, 22.79917,      1.63127,     87.81475,50.00000,61.00000,3.454213e-09,0.92609,3
113.426, 22.99917,      1.85899,     87.98431,50.00000,61.00000,3.455988e-09,0.92611,3
114.547, 23.19917,      2.05227,     88.15386,50.00000,61.00000,3.455677e-09,0.92612,3
115.687, 23.39917,      2.21922,     88.33138,50.00000,61.00000,3.454634e-09,0.92613,3
116.883, 23.59917,      2.37096,     88.50375,50.00000,61.00000,3.449898e-09,0.92614,3
118.138, 23.79917,      2.51316,     88.68126,50.00000,61.00000,3.450319e-09,0.92616,3
119.433, 23.99917,      2.65576,     88.80843,50.00000,61.00000,3.450727e-09,0.92616,3
120.815, 24.19917,      2.80252,     89.02834,50.00000,61.00000,3.448002e-09,0.92617,3
122.271, 24.39917,      2.96051,     89.18735,50.00000,61.00000,3.458595e-09,0.92618,3
123.781, 24.59917,      3.13170,     89.43372,50.00000,61.00000,3.450591e-09,0.92618,3
125.4, 24.79917,      3.31112,     89.62436,50.00000,61.00000,3.460969e-09,0.92619,3
127.095, 24.99917,      3.49467,     89.85761,50.00000,61.00000,3.459715e-09,0.92620,3
128.86, 25.19917,      3.68356,     90.03255,50.00000,61.00000,3.455874e-09,0.92620,3
130.704, 25.39917,      3.87079,     90.21265,50.00000,61.00000,3.451536e-09,0.92620,3
132.606, 25.59917,      4.05105,     90.42201,50.00000,61.00000,3.449702e-09,0.92620,3
134.589, 25.79917,      4.22303,     90.56768,50.00000,61.00000,3.452054e-09,0.92620,3
136.584, 25.99917,      4.38680,     90.71335,50.00000,61.00000,3.450270e-09,0.92620,3
138.638, 26.19917,      4.53910,     90.83536,50.00000,61.00000,3.444695e-09,0.92619,3
140.734, 26.39917,      4.68384,     91.00492,50.00000,61.00000,3.452392e-09,0.92619,3
142.879, 26.59917,      4.81807,     91.11874,50.00000,61.00000,3.456256e-09,0.92618,3
145.045, 26.79917,      4.94369,     91.24848,50.00000,61.00000,3.459690e-09,0.92617,3
147.244, 26.99917,      5.06407,     91.37845,50.00000,61.00000,3.459678e-09,0.92616,3
149.477, 27.19917,      5.17547,     91.45785,50.00000,61.00000,3.448598e-09,0.92616,3
151.735, 27.39917,      5.28220,     91.57190,50.00000,61.00000,3.450524e-09,0.92614,3
154.02, 27.59917,      5.38227,     91.66721,50.00000,61.00000,3.453197e-09,0.92612,3
156.312, 27.79917,      5.47444,     91.76534,50.00000,61.00000,3.450419e-09,0.92611,3
158.631, 27.99917,      5.55952,     91.80773,50.00000,61.00000,3.461212e-09,0.92609,3
160.974, 28.19917,      5.63690,     91.90304,50.00000,61.00000,3.450020e-09,0.92608,3
163.292, 28.39917,      5.70638,     91.96651,50.00000,61.00000,3.454884e-09,0.92606,3
165.65, 28.59917,      5.76897,     92.03021,50.00000,61.00000,3.452243e-09,0.92602,3
168.006, 28.79917,      5.82308,     92.09368,50.00000,61.00000,3.463829e-09,0.92601,3
170.361, 28.99917,      5.86889,     92.15738,50.00000,61.00000,3.453126e-09,0.92598,3
172.731, 29.19917,      5.90842,     92.20515,50.00000,61.00000,3.460128e-09,0.92596,3
175.082, 29.39917,      5.93790,     92.25269,50.00000,61.00000,3.464075e-09,0.92591,3
177.433, 29.59917,      5.96238,     92.28454,50.00000,61.00000,3.453307e-09,0.92589,3
179.807, 29.79917,      5.98053,     92.34824,50.00000,61.00000,3.465298e-09,0.92586,3
182.146, 29.99917,      5.99368,     92.37190,50.00000,61.00000,3.464958e-09,0.92583,3
184.499, 30.19917,      6.00243,     92.40375,50.00000,61.00000,3.459415e-09,0.92581,3
186.842, 30.39917,      6.00684,     92.41171,50.00000,61.00000,3.454430e-09,0.92574,3
189.189, 30.59917,      6.00553,     92.44356,50.00000,61.00000,3.461792e-09,0.92571,3
191.515, 30.79917,      6.00060,     92.47541,50.00000,61.00000,3.457283e-09,0.92568,3
193.827, 30.99917,      5.99245,     92.50703,50.00000,61.00000,3.454138e-09,0.92564,3
199.259, 31.49917,      5.75250,     92.34028,50.00000,61.00000,3.457989e-09,0.92553,4
203.285, 31.99917,      4.80745,     91.76534,50.00000,61.00000,3.462288e-09,0.92541,4
206.073, 32.49917,      3.67840,     91.29368,50.00000,61.00000,3.452194e-09,0.92528,4
208.36, 32.99917,      2.91762,     91.02061,50.00000,61.00000,3.459115e-09,0.92509,4
210.516, 33.49917,      2.53390,     90.92272,50.00000,61.00000,3.453005e-09,0.92493,4
212.483, 33.99917,      2.25600,     90.79555,50.00000,61.00000,3.463466e-09,0.92477,4
214.083, 34.49917,      1.91469,     90.59953,50.00000,61.00000,3.451450e-09,0.92459,4
215.284, 34.99917,      1.53595,     90.38220,50.00000,61.00000,3.452766e-09,0.92440,4
216.224, 35.49917,      1.21851,     90.27354,50.00000,61.00000,3.455914e-09,0.92421,4
217.001, 35.99917,      0.99321,     90.11194,50.00000,61.00000,3.449644e-09,0.92400,4
217.694, 36.49917,      0.84331,     90.01663,50.00000,61.00000,3.453665e-09,0.92379,4
218.304, 36.99917,      0.73359,     89.91850,50.00000,61.00000,3.467434e-09,0.92356,4
218.853, 37.49917,      0.64518,     89.85504,50.00000,61.00000,3.460047e-09,0.92333,4
219.344, 37.99917,      0.57937,     89.77541,50.00000,61.00000,3.452129e-09,0.92309,4
219.826, 38.49917,      0.54021,     89.71991,50.00000,61.00000,3.447381e-09,0.92284,4
220.302, 38.99917,      0.52521,     89.65621,50.00000,61.00000,3.447207e-09,0.92258,4
220.802, 39.49917,      0.52398,     89.62436,50.00000,61.00000,3.457898e-09,0.92232,4
221.312, 39.99917,      0.53738,     89.56089,50.00000,61.00000,3.453656e-09,0.92209,4
221.867, 40.49917,      0.55479,     89.54496,50.00000,61.00000,3.453581e-09,0.92188,4
222.446, 40.99917,      0.58038,     89.51311,50.00000,61.00000,3.456816e-09,0.92168,4
223.049, 41.49917,      0.60789,     89.48923,50.00000,61.00000,3.452271e-09,0.92148,4
223.693, 41.99917,      0.64007,     89.52904,50.00000,61.00000,3.448428e-09,0.92129,4
224.366, 42.49917,      0.67712,     89.49719,50.00000,61.00000,3.454544e-09,0.92111,4
225.081, 42.99917,      0.70963,     89.44965,50.00000,61.00000,3.452082e-09,0.92094,4
225.826, 43.49917,      0.73948,     89.44965,50.00000,61.00000,3.450575e-09,0.92078,4
226.599, 43.99917,      0.76625,     89.44965,50.00000,61.00000,3.452790e-09,0.92064,4
227.4, 44.49917,      0.79161,     89.44965,50.00000,61.00000,3.456238e-09,0.92051,4
228.222, 44.99917,      0.81387,     89.38337,50.00000,61.00000,3.459028e-09,0.92037,4
229.049, 45.49917,      0.83659,     89.38080,50.00000,61.00000,3.452132e-09,0.92022,4
229.91, 45.99917,      0.85811,     89.38080,50.00000,61.00000,3.460769e-09,0.92010,4
230.788, 46.49917,      0.87673,     89.38080,50.00000,61.00000,3.451800e-09,0.92000,4
231.689, 46.99917,      0.89393,     89.34895,50.00000,61.00000,3.454851e-09,0.91989,4
232.609, 47.49917,      0.90801,     89.37283,50.00000,61.00000,3.461095e-09,0.91978,4
233.533, 47.99917,      0.92065,     89.36487,50.00000,61.00000,3.451577e-09,0.91969,4
234.474, 48.49917,      0.93269,     89.33044,50.00000,61.00000,3.458764e-09,0.91959,4
235.42, 48.99917,      0.94180,     89.29063,50.00000,61.00000,3.463451e-09,0.91951,4
236.384, 49.49917,      0.94840,     89.32248,50.00000,61.00000,3.466148e-09,0.91942,4
237.351, 49.99917,      0.95459,     89.29063,50.00000,61.00000,3.456450e-09,0.91934,4
238.323, 50.49917,      0.96102,     89.27471,50.00000,61.00000,3.462907e-09,0.91927,4
239.29, 50.99917,      0.96512,     89.25082,50.00000,61.00000,3.450708e-09,0.91921,4
240.272, 51.49917,      0.96711,     89.25082,50.00000,61.00000,3.458586e-09,0.91915,4
241.264, 51.99917,      0.96636,     89.23489,50.00000,61.00000,3.455732e-09,0.91910,4
242.252, 52.49917,      0.96965,     89.20328,50.00000,61.00000,3.465483e-09,0.91905,4
243.244, 52.99917,      0.97210,     89.20328,50.00000,61.00000,3.461402e-09,0.91901,4
244.235, 53.49917,      0.97264,     89.20328,50.00000,61.00000,3.452679e-09,0.91898,4
245.239, 53.99917,      0.97362,     89.17143,50.00000,61.00000,3.455905e-09,0.91895,4
246.233, 54.49917,      0.97203,     89.14754,50.00000,61.00000,3.459171e-09,0.91892,4
247.223, 54.99917,      0.96958,     89.13958,50.00000,61.00000,3.457978e-09,0.91890,4
248.219, 55.49917,      0.96756,     89.10773,50.00000,61.00000,3.447484e-09,0.91889,4
249.215, 55.99917,      0.96918,     89.10773,50.00000,61.00000,3.451283e-09,0.91888,4
250.211, 56.49917,      0.96802,     89.09977,50.00000,61.00000,3.455650e-09,0.91887,4
251.221, 56.99917,      0.96666,     89.03630,50.00000,61.00000,3.459232e-09,0.91888,4
252.207, 57.49917,      0.96894,     89.08384,50.00000,61.00000,3.455750e-09,0.91887,4
253.225, 57.99917,      0.96910,     89.05222,50.00000,61.00000,3.456343e-09,0.91887,4
254.212, 58.49917,      0.96405,     89.02037,50.00000,61.00000,3.456453e-09,0.91887,4
255.2, 58.99917,      0.96116,     88.98852,50.00000,61.00000,3.455586e-09,0.91887,4
256.215, 59.49917,      0.96434,     88.98852,50.00000,61.00000,3.457926e-09,0.91887,4
257.214, 59.99917,      0.96340,     88.95667,50.00000,61.00000,3.451852e-09,0.91887,4
258.218, 60.49917,      0.96074,     88.93302,50.00000,61.00000,3.451102e-09,0.91887,4
259.216, 60.99917,      0.95958,     88.89321,50.00000,61.00000,3.442257e-09,0.91886,4
260.213, 61.49917,      0.96103,     88.86932,50.00000,61.00000,3.456988e-09,0.91886,4
261.217, 61.99917,      0.95749,     88.83747,50.00000,61.00000,3.462959e-09,0.91886,4
262.213, 62.49917,      0.95829,     88.81358,50.00000,61.00000,3.460249e-09,0.91885,4
263.227, 62.99917,      0.95411,     88.75808,50.00000,61.00000,3.456067e-09,0.91885,4
264.212, 63.49917,      0.95032,     88.72623,50.00000,61.00000,3.450280e-09,0.91884,4
265.215, 63.99917,      0.94808,     88.69438,50.00000,61.00000,3.452822e-09,0.91883,4
266.203, 64.49917,      0.94821,     88.66276,50.00000,61.00000,3.455199e-09,0.91883,4
267.216, 64.99917,      0.94685,     88.63091,50.00000,61.00000,3.452713e-09,0.91882,4
268.218, 65.49917,      0.94394,     88.62295,50.00000,61.00000,3.449863e-09,0.91881,4
269.21, 65.99917,      0.94277,     88.59110,50.00000,61.00000,3.453718e-09,0.91880,4
270.209, 66.49917,      0.94205,     88.55667,50.00000,61.00000,3.457732e-09,0.91879,4
271.214, 66.99917,      0.93825,     88.49321,50.00000,61.00000,3.457020e-09,0.91878,4
272.211, 67.49917,      0.93335,     88.46393,50.00000,61.00000,3.455410e-09,0.91877,4
273.203, 67.99917,      0.92931,     88.40047,50.00000,61.00000,3.451845e-09,0.91875,4
274.205, 68.49917,      0.92725,     88.33677,50.00000,61.00000,3.445701e-09,0.91874,4
275.207, 68.99917,      0.92762,     88.29977,50.00000,61.00000,3.448352e-09,0.91872,4
276.206, 69.49917,      0.92821,     88.26792,50.00000,61.00000,3.459960e-09,0.91871,4
277.197, 69.99917,      0.92482,     88.22810,50.00000,61.00000,3.456209e-09,0.91868,4
278.196, 70.49917,      0.92519,     88.15667,50.00000,61.00000,3.454945e-09,0.91867,4
279.205, 70.99917,      0.92557,     88.12482,50.00000,61.00000,3.454109e-09,0.91865,4
280.198, 71.49917,      0.92172,     88.09297,50.00000,61.00000,3.448548e-09,0.91862,4
281.201, 71.99917,      0.92055,     88.04801,50.00000,61.00000,3.446502e-09,0.91860,4
282.198, 72.49917,      0.91781,     88.00023,50.00000,61.00000,3.451715e-09,0.91857,4
283.2, 72.99917,      0.91907,     87.96066,50.00000,61.00000,3.465605e-09,0.91855,4
284.199, 73.49917,      0.92034,     87.88899,50.00000,61.00000,3.444578e-09,0.91852,4
285.194, 73.99917,      0.92027,     87.82810,50.00000,61.00000,3.456039e-09,0.91849,4
286.201, 74.49917,      0.91932,     87.77237,50.00000,61.00000,3.448402e-09,0.91846,4
287.203, 74.99917,      0.91792,     87.73794,50.00000,61.00000,3.457289e-09,0.91843,4
288.201, 75.49917,      0.91741,     87.67166,50.00000,61.00000,3.460624e-09,0.91839,4
289.192, 75.99917,      0.91263,     87.60820,50.00000,61.00000,3.448482e-09,0.91836,4
290.189, 76.49917,      0.91727,     87.57635,50.00000,61.00000,3.454830e-09,0.91833,4
291.177, 76.99917,      0.91473,     87.48103,50.00000,61.00000,3.454647e-09,0.91829,4
292.189, 77.49917,      0.91603,     87.44918,50.00000,61.00000,3.462124e-09,0.91826,4
293.192, 77.99917,      0.91529,     87.33794,50.00000,61.00000,3.456707e-09,0.91822,4
294.193, 78.49917,      0.91163,     87.32201,50.00000,61.00000,3.454519e-09,0.91818,4
295.194, 78.99917,      0.91202,     87.25831,50.00000,61.00000,3.444014e-09,0.91814,4
296.18, 79.49917,      0.91127,     87.16300,50.00000,61.00000,3.459860e-09,0.91811,4
297.19, 79.99917,      0.91235,     87.09953,50.00000,61.00000,3.449225e-09,0.91807,4
298.184, 80.49917,      0.91591,     87.03326,50.00000,61.00000,3.454692e-09,0.91803,4
299.189, 80.99917,      0.91156,     86.96159,50.00000,61.00000,3.453816e-09,0.91799,4
300.192, 81.49917,      0.91264,     86.87424,50.00000,61.00000,3.458292e-09,0.91794,4
301.178, 81.99917,      0.91234,     86.81077,50.00000,61.00000,3.461645e-09,0.91790,4
302.185, 82.49917,      0.91321,     86.76300,50.00000,61.00000,3.446782e-09,0.91785,4
303.189, 82.99917,      0.91453,     86.63583,50.00000,61.00000,3.448724e-09,0.91781,4
304.199, 83.49917,      0.90993,     86.57213,50.00000,61.00000,3.454751e-09,0.91777,4
305.172, 83.99917,      0.90848,     86.47681,50.00000,61.00000,3.458166e-09,0.91772,4
306.187, 84.49917,      0.91736,     86.38150,50.00000,61.00000,3.454143e-09,0.91768,4
307.182, 84.99917,      0.91411,     86.28595,50.00000,61.00000,3.456713e-09,0.91762,4
308.172, 85.49917,      0.91405,     86.22248,50.00000,61.00000,3.450370e-09,0.91758,4
309.161, 85.99917,      0.90367,     86.09532,50.00000,61.00000,3.450862e-09,0.91752,4
310.167, 86.49917,      0.89741,     86.02904,50.00000,61.00000,3.454021e-09,0.91748,4
311.162, 86.99917,      0.89436,     85.90187,50.00000,61.00000,3.452280e-09,0.91743,4
312.173, 87.49917,      0.89062,     85.77471,50.00000,61.00000,3.455134e-09,0.91738,4
313.172, 87.99917,      0.89378,     85.67939,50.00000,61.00000,3.453884e-09,0.91733,4
314.185, 88.49917,      0.89488,     85.54941,50.00000,61.00000,3.453415e-09,0.91728,4
315.195, 88.99917,      0.89021,     85.45410,50.00000,61.00000,3.447102e-09,0.91722,4
316.182, 89.49917,      0.88573,     85.31101,50.00000,61.00000,3.460565e-09,0.91717,4
317.183, 89.99917,      0.88612,     85.19977,50.00000,61.00000,3.453350e-09,0.91712,4
318.186, 90.49917,      0.88628,     85.04075,50.00000,61.00000,3.456164e-09,0.91705,4
319.185, 90.99917,      0.88853,     84.91358,50.00000,61.00000,3.451258e-09,0.91699,4
320.182, 91.49917,      0.88660,     84.75457,50.00000,61.00000,3.454185e-09,0.91694,4
321.186, 91.99917,      0.88491,     84.61944,50.00000,61.00000,3.456195e-09,0.91689,4
322.181, 92.49917,      0.88460,     84.45785,50.00000,61.00000,3.463097e-09,0.91683,4
323.193, 92.99917,      0.88431,     84.29087,50.00000,61.00000,3.452986e-09,0.91677,4
324.19, 93.49917,      0.88213,     84.10281,50.00000,61.00000,3.452911e-09,0.91672,4
325.201, 93.99917,      0.86990,     83.91218,50.00000,61.00000,3.454087e-09,0.91666,4
326.185, 94.49917,      0.86277,     83.71874,50.00000,61.00000,3.463404e-09,0.91660,4
327.194, 94.99917,      0.86292,     83.52787,50.00000,61.00000,3.458358e-09,0.91655,4
328.19, 95.49917,      0.86000,     83.30539,50.00000,61.00000,3.449868e-09,0.91649,4
329.189, 95.99917,      0.86272,     83.09087,50.00000,61.00000,3.450413e-09,0.91643,4
330.194, 96.49917,      0.86428,     82.88946,50.00000,61.00000,3.453264e-09,0.91637,4
331.202, 96.99917,      0.86019,     82.66417,50.00000,61.00000,3.450911e-09,0.91631,4
332.193, 97.49917,      0.85725,     82.40984,50.00000,61.00000,3.453723e-09,0.91625,4
333.182, 97.99917,      0.85973,     82.18735,50.00000,61.00000,3.463572e-09,0.91619,4
334.191, 98.49917,      0.85988,     81.91429,50.00000,61.00000,3.449439e-09,0.91613,4
335.195, 98.99917,      0.86168,     81.65199,50.00000,61.00000,3.453405e-09,0.91607,4
336.188, 99.49917,      0.86158,     81.37658,50.00000,61.00000,3.451863e-09,0.91601,4
337.187, 99.99917,      0.85911,     81.09836,50.00000,61.00000,3.454103e-09,0.91594,4
338.182,100.499,      0.86257,     80.78571,50.00000,61.00000,3.451038e-09,0.91588,4
339.182,100.999,      0.86415,     80.43864,50.00000,61.00000,3.454194e-09,0.91581,4
340.185,101.499,      0.86811,     80.11007,50.00000,61.00000,3.458177e-09,0.91575,4
341.195,101.999,      0.86684,     79.78689,50.00000,61.00000,3.442590e-09,0.91568,4
342.175,102.499,      0.85406,     79.41335,50.00000,61.00000,3.457135e-09,0.91562,4
343.173,102.999,      0.85132,     79.02365,50.00000,61.00000,3.446728e-09,0.91555,4
344.161,103.499,      0.85000,     78.63419,50.00000,61.00000,3.454067e-09,0.91548,4
345.174,103.999,      0.85014,     78.22365,50.00000,61.00000,3.453501e-09,0.91542,4
346.166,104.499,      0.84498,     77.81288,50.00000,61.00000,3.458085e-09,0.91535,4
347.178,104.999,      0.84656,     77.34918,50.00000,61.00000,3.449775e-09,0.91528,4
348.168,105.499,      0.85125,     76.90422,50.00000,61.00000,3.458362e-09,0.91521,4
349.177,105.999,      0.85284,     76.40351,50.00000,61.00000,3.455487e-09,0.91514,4
350.178,106.499,      0.85467,     75.91850,50.00000,61.00000,3.450422e-09,0.91506,4
351.173,106.999,      0.85770,     75.38852,50.00000,61.00000,3.450118e-09,0.91499,4
352.179,107.499,      0.86124,     74.83489,50.00000,61.00000,3.452411e-09,0.91492,4
353.178,107.999,      0.86308,     74.29180,50.00000,61.00000,3.454079e-09,0.91484,4
354.193,108.499,      0.86568,     73.68244,50.00000,61.00000,3.454087e-09,0.91477,4
355.177,108.999,      0.86751,     73.07822,50.00000,61.00000,3.459290e-09,0.91467,4
356.177,109.499,      0.87034,     72.41593,50.00000,61.00000,3.455216e-09,0.91459,4
357.164,109.999,      0.87195,     71.76674,50.00000,61.00000,3.451852e-09,0.91451,4
358.173,110.499,      0.86772,     71.05129,50.00000,61.00000,3.451623e-09,0.91443,4
359.171,110.999,      0.85541,     70.32014,50.00000,61.00000,3.451932e-09,0.91435,4
360.172,111.499,      0.85041,     69.50937,50.00000,61.00000,3.451854e-09,0.91427,4
361.171,111.999,      0.84932,     68.71194,50.00000,61.00000,3.455841e-09,0.91419,4
362.171,112.499,      0.85141,     67.87986,50.00000,61.00000,3.460872e-09,0.91411,4
363.17,112.999,      0.85498,     66.98970,50.00000,61.00000,3.451012e-09,0.91403,4
364.167,113.499,      0.85831,     66.11007,50.00000,61.00000,3.454696e-09,0.91394,4
365.176,113.999,      0.86117,     65.13770,50.00000,61.00000,3.452592e-09,0.91386,4
366.174,114.499,      0.86698,     64.16534,50.00000,61.00000,3.465048e-09,0.91377,4
367.172,114.999,      0.86960,     63.12155,50.00000,61.00000,3.456241e-09,0.91369,4
368.164,115.499,      0.87247,     62.06159,50.00000,61.00000,3.457357e-09,0.91360,4
369.165,115.999,      0.87535,     60.93021,50.00000,61.00000,3.455786e-09,0.91351,4
370.159,116.499,      0.88195,     59.71405,50.00000,61.00000,3.451174e-09,0.91342,4
371.168,116.999,      0.86451,     58.44778,50.00000,61.00000,3.451682e-09,0.91333,4
372.167,117.499,      0.85321,     57.17073,50.00000,61.00000,3.456730e-09,0.91323,4
373.168,117.999,      0.84787,     55.84052,50.00000,61.00000,3.449546e-09,0.91314,4
374.169,118.499,      0.84475,     54.49461,50.00000,61.00000,3.453145e-09,0.91304,4
375.154,118.999,      0.84211,     52.96862,50.00000,61.00000,3.455947e-09,0.91295,4
376.149,119.499,      0.84722,     51.43185,50.00000,61.00000,3.452347e-09,0.91286,4
377.172,119.999,      0.85688,     49.86862,50.00000,61.00000,3.451631e-09,0.91276,4
378.167,120.499,      0.85475,     48.23911,50.00000,61.00000,3.451193e-09,0.91266,4
379.167,120.999,      0.84861,     46.55667,50.00000,61.00000,3.446253e-09,0.91256,4
380.155,121.499,      0.84444,     44.86909,50.00000,62.00000,3.442387e-09,0.91246,4
381.167,121.999,      0.83979,     43.05948,50.00000,62.00000,3.443688e-09,0.91236,4
382.168,122.499,      0.83562,     41.24707,50.00000,61.00000,3.449049e-09,0.91226,4
383.164,122.999,      0.82891,     39.43208,50.00000,62.00000,3.453270e-09,0.91215,4
384.163,123.499,      0.81637,     37.39742,50.00000,62.00000,3.449583e-09,0.91205,4
385.163,123.999,      0.79393,     35.46862,50.00000,61.00000,3.443580e-09,0.91190,4
386.153,124.499,      0.77624,     33.48665,50.00000,61.00000,3.442769e-09,0.91183,4
387.166,124.999,      0.76182,     31.47049,50.00000,61.00000,3.447957e-09,0.91169,4
388.161,125.499,      0.74048,     29.42763,50.00000,61.00000,3.439873e-09,0.91158,4
389.156,125.999,      0.71629,     27.37166,50.00000,62.00000,3.447866e-09,0.91147,4
390.158,126.499,      0.69179,     25.35808,50.00000,62.00000,3.450482e-09,0.91137,4
391.152,126.999,      0.66237,     23.31780,50.00000,62.00000,3.450679e-09,0.91125,4
392.166,127.499,      0.63365,     21.30422,50.00000,62.00000,3.448786e-09,0.91114,4
393.167,127.999,      0.59309,     19.29602,50.00000,62.00000,3.447450e-09,0.91102,4
394.169,128.499,      0.55395,     17.34333,50.00000,62.00000,3.442784e-09,0.91091,4
395.168,128.999,      0.50496,     15.37471,50.00000,62.00000,3.452137e-09,0.91079,4
396.161,129.499,      0.45481,     13.53068,50.00000,62.00000,3.449665e-09,0.91067,4
397.163,129.999,      0.40017,     11.72904,50.00000,62.00000,3.445036e-09,0.91055,4
398.17,130.499,      0.33559,      9.99883,50.00000,62.00000,3.455766e-09,0.91044,4
399.164,130.999,      0.27136,      8.36932,50.00000,62.00000,3.453551e-09,0.91031,4
400.155,131.499,      0.21598,      6.81148,50.00000,62.00000,3.448950e-09,0.91020,4
401.162,131.999,      0.15013,      5.40984,50.00000,62.00000,3.435991e-09,0.91008,4
402.16,132.499, 6.287323e-02,      4.09578,50.00000,62.00000,3.451039e-09,0.90996,4
403.161,132.999,-3.212656e-02,      2.85316,50.00000,62.00000,3.446261e-09,0.90983,4
404.168,133.499,     -0.10585,      1.73513,50.00000,62.00000,3.452887e-09,0.90970,4
405.174,133.999,     -0.19042,      0.72037,50.00000,62.00000,3.450741e-09,0.90958,4
406.161,134.499,     -0.27782,     -0.17518,50.00000,62.00000,3.443732e-09,0.90945,4
407.157,134.999,     -0.34826,     -1.02037,50.00000,62.00000,3.457895e-09,0.90932,4
408.171,135.499,     -0.41133,     -1.71991,50.00000,62.00000,3.448987e-09,0.90919,4
409.163,135.999,     -0.46908,     -2.39555,50.00000,62.00000,3.450941e-09,0.90907,4
410.156,136.499,     -0.52620,     -2.97845,50.00000,62.00000,3.444309e-09,0.90893,4
411.166,136.999,     -0.57562,     -3.47400,50.00000,62.00000,3.453578e-09,0.90880,4
412.155,137.499,     -0.62779,     -3.92693,50.00000,62.00000,3.443060e-09,0.90867,4
413.149,137.999,     -0.67274,     -4.30047,50.00000,62.00000,3.452418e-09,0.90854,4
414.147,138.499,     -0.71860,     -4.67143,50.00000,62.00000,3.451383e-09,0.90840,4
415.154,138.999,     -0.76539,     -4.97611,50.00000,62.00000,3.445827e-09,0.90827,4
416.147,139.499,     -0.80833,     -5.27564,50.00000,62.00000,3.447667e-09,0.90809,4
417.146,139.999,     -0.84532,     -5.53794,50.00000,62.00000,3.453756e-09,0.90795,4
418.154,140.499,     -0.87502,     -5.77096,50.00000,62.00000,3.453390e-09,0.90782,4
419.151,140.999,     -0.90928,     -5.99368,50.00000,62.00000,3.447487e-09,0.90768,4
420.147,141.499,     -0.94363,     -6.21874,50.00000,62.00000,3.438722e-09,0.90754,4
421.15,141.999,     -0.97729,     -6.35667,50.00000,62.00000,3.454597e-09,0.90740,4
422.147,142.499,     -1.00810,     -6.51030,50.00000,62.00000,3.450086e-09,0.90725,4
423.168,142.999,     -1.03690,     -6.64801,50.00000,62.00000,3.458517e-09,0.90711,4
424.162,143.499,     -1.06627,     -6.77518,50.00000,62.00000,3.459240e-09,0.90697,4
425.153,143.999,     -1.09357,     -6.90234,50.00000,62.00000,3.451305e-09,0.90682,4
426.149,144.499,     -1.12096,     -6.98173,50.00000,62.00000,3.443376e-09,0.90668,4
427.154,144.999,     -1.14789,     -7.08244,50.00000,62.00000,3.449346e-09,0.90653,4
428.154,145.499,     -1.17168,     -7.14614,50.00000,62.00000,3.442797e-09,0.90639,4
429.156,145.999,     -1.19311,     -7.20960,50.00000,62.00000,3.462344e-09,0.90624,4
430.146,146.499,     -1.21995,     -7.27330,50.00000,62.00000,3.450344e-09,0.90609,4
431.155,146.999,     -1.24259,     -7.30515,50.00000,62.00000,3.456066e-09,0.90594,4
432.159,147.499,     -1.26285,     -7.33677,50.00000,62.00000,3.456315e-09,0.90578,4
433.153,147.999,     -1.28369,     -7.37658,50.00000,62.00000,3.451229e-09,0.90564,4
434.147,148.499,     -1.30620,     -7.37658,50.00000,62.00000,3.449959e-09,0.90549,4
435.15,148.999,     -1.32879,     -7.40843,50.00000,62.00000,3.459356e-09,0.90534,4
436.144,149.499,     -1.34925,     -7.40585,50.00000,62.00000,3.453413e-09,0.90518,4
437.15,149.999,     -1.36789,     -7.40585,50.00000,62.00000,3.450616e-09,0.90502,4
438.148,150.499,     -1.38791,     -7.40304,50.00000,62.00000,3.453906e-09,0.90487,4
439.141,150.999,     -1.40798,     -7.40304,50.00000,62.00000,3.454129e-09,0.90471,4
440.14,151.499,     -1.42158,     -7.37143,50.00000,62.00000,3.454889e-09,0.90455,4
441.139,151.999,     -1.43711,     -7.37143,50.00000,62.00000,3.458980e-09,0.90440,4
442.133,152.499,     -1.45350,     -7.37143,50.00000,62.00000,3.449853e-09,0.90424,4
443.134,152.999,     -1.47294,     -7.33958,50.00000,62.00000,3.450367e-09,0.90408,4
444.159,153.499,     -1.48838,     -7.33958,50.00000,62.00000,3.451476e-09,0.90392,4
445.148,153.999,     -1.50817,     -7.31569,50.00000,62.00000,3.453355e-09,0.90376,4
446.156,154.499,     -1.52887,     -7.34754,50.00000,62.00000,3.448244e-09,0.90360,4
447.151,154.999,     -1.54547,     -7.31569,50.00000,62.00000,3.447148e-09,0.90343,4
448.158,155.499,     -1.56324,     -7.31569,50.00000,62.00000,3.448813e-09,0.90321,4
449.155,155.999,     -1.58076,     -7.31569,50.00000,62.00000,3.460847e-09,0.90305,4
450.149,156.499,     -1.60162,     -7.28384,50.00000,62.00000,3.458848e-09,0.90288,4
451.15,156.999,     -1.61896,     -7.28384,50.00000,62.00000,3.454117e-09,0.90271,4
452.153,157.499,     -1.63248,     -7.25199,50.00000,62.00000,3.450662e-09,0.90255,4
453.161,157.999,     -1.65462,     -7.25995,50.00000,62.00000,3.454972e-09,0.90238,4
454.16,158.499,     -1.67542,     -7.25199,50.00000,62.00000,3.451982e-09,0.90222,4
455.161,158.999,     -1.69126,     -7.25199,50.00000,62.00000,3.448022e-09,0.90204,4
456.144,159.499,     -1.70683,     -7.25199,50.00000,62.00000,3.451762e-09,0.90187,4
457.154,159.999,     -1.72389,     -7.22037,50.00000,62.00000,3.454010e-09,0.90169,4
458.155,160.499,     -1.74766,     -7.25199,50.00000,62.00000,3.453070e-09,0.90152,4
459.154,160.999,     -1.76674,     -7.18852,50.00000,62.00000,3.451593e-09,0.90135,4
460.16,161.499,     -1.78169,     -7.21241,50.00000,62.00000,3.450631e-09,0.90117,4
461.15,161.999,     -1.80140,     -7.19649,50.00000,62.00000,3.452857e-09,0.90100,4
462.165,162.499,     -1.82233,     -7.22037,50.00000,62.00000,3.453250e-09,0.90082,4
463.153,162.999,     -1.84129,     -7.18852,50.00000,62.00000,3.455341e-09,0.90065,4
464.148,163.499,     -1.85918,     -7.18852,50.00000,62.00000,3.456736e-09,0.90047,4
465.15,163.999,     -1.87573,     -7.18852,50.00000,62.00000,3.451444e-09,0.90030,4
466.156,164.499,     -1.89373,     -7.15667,50.00000,62.00000,3.453940e-09,0.90012,4
467.16,164.999,     -1.91149,     -7.15667,50.00000,62.00000,3.450462e-09,0.89993,4
468.152,165.499,     -1.93294,     -7.14075,50.00000,62.00000,3.444402e-09,0.89975,4
469.163,165.999,     -1.94741,     -7.10913,50.00000,62.00000,3.448014e-09,0.89957,4
470.163,166.499,     -1.97038,     -7.10913,50.00000,62.00000,3.451546e-09,0.89939,4
471.151,166.999,     -1.99253,     -7.10913,50.00000,62.00000,3.453990e-09,0.89921,4
472.155,167.499,     -2.00455,     -7.10913,50.00000,62.00000,3.451348e-09,0.89902,4
473.149,167.999,     -2.02510,     -7.10117,50.00000,62.00000,3.457030e-09,0.89883,4
474.152,168.499,     -2.04743,     -7.10117,50.00000,62.00000,3.452251e-09,0.89866,4
475.163,168.999,     -2.06841,     -7.12482,50.00000,62.00000,3.452248e-09,0.89846,4
476.156,169.499,     -2.08654,     -7.12482,50.00000,62.00000,3.448200e-09,0.89829,4
477.156,169.999,     -2.10272,     -7.09321,50.00000,62.00000,3.449523e-09,0.89810,4
478.147,170.499,     -2.12063,     -7.09321,50.00000,62.00000,3.446631e-09,0.89790,4
479.146,170.999,     -2.14062,     -7.10117,50.00000,62.00000,3.450982e-09,0.89766,4
480.165,171.499,     -2.15726,     -7.10117,50.00000,62.00000,3.451800e-09,0.89747,4
481.161,171.999,     -2.17991,     -7.10117,50.00000,62.00000,3.454017e-09,0.89727,4
482.159,172.499,     -2.20061,     -7.06932,50.00000,62.00000,3.454105e-09,0.89709,4
483.157,172.999,     -2.21818,     -7.10117,50.00000,62.00000,3.449999e-09,0.89689,4
484.159,173.499,     -2.23638,     -7.05340,50.00000,62.00000,3.454364e-09,0.89669,4
485.158,173.999,     -2.25259,     -7.08525,50.00000,62.00000,3.449381e-09,0.89651,4
486.178,174.499,     -2.27266,     -7.05340,50.00000,62.00000,3.451039e-09,0.89631,4
487.173,174.999,     -2.29386,     -7.02155,50.00000,62.00000,3.452906e-09,0.89612,4
488.158,175.499,     -2.31624,     -7.08525,50.00000,62.00000,3.453610e-09,0.89592,4
489.166,175.999,     -2.33700,     -7.08525,50.00000,62.00000,3.454278e-09,0.89573,4
490.166,176.499,     -2.35487,     -7.03747,50.00000,62.00000,3.453976e-09,0.89553,4
491.169,176.999,     -2.37512,     -7.06136,50.00000,62.00000,3.454610e-09,0.89533,4
492.174,177.499,     -2.39426,     -7.03747,50.00000,62.00000,3.444606e-09,0.89514,4
493.179,177.999,     -2.41431,     -7.03747,50.00000,62.00000,3.450169e-09,0.89493,4
494.159,178.499,     -2.43433,     -7.03747,50.00000,62.00000,3.454381e-09,0.89474,4
495.168,178.999,     -2.45595,     -7.02951,50.00000,62.00000,3.448111e-09,0.89454,4
496.174,179.499,     -2.47438,     -6.98173,50.00000,62.00000,3.449409e-09,0.89434,4
497.168,179.999,     -2.48988,     -7.01358,50.00000,62.00000,3.447123e-09,0.89414,4
498.173,180.499,     -2.51162,     -7.00562,50.00000,62.00000,3.445050e-09,0.89394,4
499.178,180.999,     -2.53253,     -7.02155,50.00000,62.00000,3.452458e-09,0.89373,4
500.162,181.499,     -2.55577,     -6.98970,50.00000,62.00000,3.455777e-09,0.89353,4
501.164,181.999,     -2.57529,     -6.99251,50.00000,62.00000,3.457659e-09,0.89332,4
502.17,182.499,     -2.58954,     -6.99251,50.00000,62.00000,3.440398e-09,0.89312,4
503.176,182.999,     -2.60856,     -6.99251,50.00000,62.00000,3.454975e-09,0.89292,4
504.175,183.499,     -2.62848,     -6.96066,50.00000,62.00000,3.452682e-09,0.89271,4
505.175,183.999,     -2.64993,     -6.96066,50.00000,62.00000,3.454480e-09,0.89251,4
506.175,184.499,     -2.67202,     -6.96862,50.00000,62.00000,3.450217e-09,0.89230,4
507.176,184.999,     -2.68970,     -6.95269,50.00000,62.00000,3.451966e-09,0.89210,4
508.174,185.499,     -2.70890,     -6.94215,50.00000,62.00000,3.451265e-09,0.89188,4
509.179,185.999,     -2.72637,     -6.92623,50.00000,62.00000,3.451884e-09,0.89168,4
510.178,186.499,     -2.74326,     -6.94215,50.00000,62.00000,3.454045e-09,0.89147,4
511.176,186.999,     -2.76526,     -6.96604,50.00000,62.00000,3.452838e-09,0.89126,4
512.171,187.499,     -2.78820,     -6.91030,50.00000,62.00000,3.455498e-09,0.89104,4
513.163,187.999,     -2.80548,     -6.94215,50.00000,62.00000,3.448187e-09,0.89084,4
514.177,188.499,     -2.81898,     -6.91827,50.00000,62.00000,3.454545e-09,0.89056,4
515.178,188.999,     -2.84026,     -6.94215,50.00000,62.00000,3.451054e-09,0.89035,4
516.183,189.499,     -2.86100,     -6.87845,50.00000,62.00000,3.462539e-09,0.89013,4
517.181,189.999,     -2.88086,     -6.91030,50.00000,62.00000,3.453394e-09,0.88993,4
518.173,190.499,     -2.89832,     -6.91030,50.00000,62.00000,3.453211e-09,0.88971,4
519.188,190.999,     -2.91499,     -6.91030,50.00000,62.00000,3.451168e-09,0.88949,4
520.19,191.499,     -2.93649,     -6.94215,50.00000,62.00000,3.454377e-09,0.88928,4
521.196,191.999,     -2.95684,     -6.91030,50.00000,62.00000,3.460753e-09,0.88906,4
522.19,192.499,     -2.97566,     -6.92623,50.00000,62.00000,3.450505e-09,0.88885,4
523.179,192.999,     -2.99360,     -6.88642,50.00000,62.00000,3.446627e-09,0.88864,4
524.193,193.499,     -3.01106,     -6.91827,50.00000,62.00000,3.452835e-09,0.88842,4
525.198,193.999,     -3.03125,     -6.91030,50.00000,62.00000,3.454493e-09,0.88820,4
526.195,194.499,     -3.04932,     -6.91030,50.00000,62.00000,3.451665e-09,0.88798,4
527.197,194.999,     -3.06623,     -6.89438,50.00000,62.00000,3.453037e-09,0.88776,4
528.205,195.499,     -3.08807,     -6.87845,50.00000,62.00000,3.451789e-09,0.88754,4
529.205,195.999,     -3.10688,     -6.87588,50.00000,62.00000,3.451387e-09,0.88733,4
530.191,196.499,     -3.12658,     -6.87588,50.00000,62.00000,3.452702e-09,0.88710,4
531.19,196.999,     -3.14760,     -6.87588,50.00000,62.00000,3.447698e-09,0.88689,4
532.195,197.499,     -3.16347,     -6.84145,50.00000,62.00000,3.451798e-09,0.88667,4
533.196,197.999,     -3.18057,     -6.87330,50.00000,62.00000,3.454918e-09,0.88645,4
534.2,198.499,     -3.19865,     -6.87330,50.00000,62.00000,3.452471e-09,0.88622,4
535.186,198.999,     -3.22007,     -6.87330,50.00000,62.00000,3.450708e-09,0.88601,4
536.19,199.499,     -3.23637,     -6.87330,50.00000,62.00000,3.452214e-09,0.88578,4
537.2,199.999,     -3.25395,     -6.84684,50.00000,62.00000,3.447867e-09,0.88556,4
538.184,200.499,     -3.27270,     -6.86253,50.00000,62.00000,3.445644e-09,0.88534,4
539.201,200.999,     -3.28419,     -6.83091,50.00000,62.00000,3.452910e-09,0.88511,4
540.199,201.499,     -3.29810,     -6.86253,50.00000,62.00000,3.452813e-09,0.88489,4
541.202,201.999,     -3.31329,     -6.86253,50.00000,62.00000,3.451869e-09,0.88466,4
542.214,202.499,     -3.32824,     -6.81499,50.00000,62.00000,3.454424e-09,0.88444,4
543.207,202.999,     -3.35277,     -6.81499,50.00000,62.00000,3.450323e-09,0.88422,4
544.207,203.499,     -3.37738,     -6.81499,50.00000,62.00000,3.445384e-09,0.88399,4
545.198,203.999,     -3.39202,     -6.82295,50.00000,62.00000,3.446426e-09,0.88376,4
546.202,204.499,     -3.40394,     -6.81499,50.00000,62.00000,3.451230e-09,0.88353,4
547.203,204.999,     -3.42242,     -6.82295,50.00000,62.00000,3.447239e-09,0.88331,4
548.2,205.499,     -3.43935,     -6.82295,50.00000,62.00000,3.446668e-09,0.88308,4
549.199,205.999,     -3.45100,     -6.79906,50.00000,62.00000,3.447286e-09,0.88285,4
550.212,206.499,     -3.46899,     -6.80164,50.00000,62.00000,3.448955e-09,0.88255,4
551.213,206.999,     -3.48696,     -6.76979,50.00000,62.00000,3.454057e-09,0.88231,4
552.218,207.499,     -3.50593,     -6.80164,50.00000,62.00000,3.444853e-09,0.88209,4
553.222,207.999,     -3.52020,     -6.80164,50.00000,62.00000,3.451089e-09,0.88187,4
554.223,208.499,     -3.53984,     -6.80164,50.00000,62.00000,3.450999e-09,0.88163,4
555.214,208.999,     -3.55821,     -6.80164,50.00000,62.00000,3.443481e-09,0.88140,4
556.227,209.499,     -3.57607,     -6.77775,50.00000,62.00000,3.450721e-09,0.88117,4
557.221,209.999,     -3.59294,     -6.80164,50.00000,62.00000,3.444283e-09,0.88093,4
558.221,210.499,     -3.60542,     -6.78571,50.00000,62.00000,3.458928e-09,0.88070,4
559.216,210.999,     -3.62203,     -6.78571,50.00000,62.00000,3.448621e-09,0.88047,4
560.221,211.499,     -3.63902,     -6.75410,50.00000,62.00000,3.441771e-09,0.88023,4
561.229,211.999,     -3.65064,     -6.76979,50.00000,62.00000,3.451221e-09,0.88000,4
562.227,212.499,     -3.67115,     -6.76183,50.00000,62.00000,3.449146e-09,0.87977,4
563.227,212.999,     -3.68693,     -6.73021,50.00000,62.00000,3.448050e-09,0.87954,4
564.216,213.499,     -3.70778,     -6.76979,50.00000,62.00000,3.454126e-09,0.87931,4
565.221,213.999,     -3.71852,     -6.76183,50.00000,62.00000,3.453595e-09,0.87908,4
566.221,214.499,     -3.73341,     -6.73021,50.00000,62.00000,3.447739e-09,0.87883,4
567.223,214.999,     -3.75345,     -6.73021,50.00000,62.00000,3.454005e-09,0.87860,4
568.22,215.499,     -3.76678,     -6.76183,50.00000,62.00000,3.452783e-09,0.87837,4
569.226,215.999,     -3.78176,     -6.72225,50.00000,62.00000,3.445256e-09,0.87813,4
570.229,216.499,     -3.80254,     -6.74614,50.00000,62.00000,3.449099e-09,0.87790,4
571.228,216.999,     -3.81304,     -6.74614,50.00000,62.00000,3.450278e-09,0.87766,4
572.227,217.499,     -3.82967,     -6.73817,50.00000,62.00000,3.452653e-09,0.87742,4
573.232,217.999,     -3.85345,     -6.73817,50.00000,62.00000,3.446374e-09,0.87719,4
574.232,218.499,     -3.86756,     -6.73817,50.00000,62.00000,3.444180e-09,0.87695,4
575.226,218.999,     -3.88135,     -6.72225,50.00000,62.00000,3.440598e-09,0.87671,4
576.242,219.499,     -3.89654,     -6.72225,50.00000,62.00000,3.451890e-09,0.87647,4
577.234,219.999,     -3.91294,     -6.73021,50.00000,62.00000,3.448254e-09,0.87624,4
578.237,220.499,     -3.92910,     -6.69836,50.00000,62.00000,3.448235e-09,0.87600,4
579.24,220.999,     -3.94592,     -6.71429,50.00000,62.00000,3.446333e-09,0.87576,4
580.249,221.499,     -3.96150,     -6.69836,50.00000,62.00000,3.446093e-09,0.87528,4
581.245,221.999,     -3.97802,     -6.69836,50.00000,62.00000,3.447963e-09,0.87469,4
582.256,222.499,     -3.99919,     -6.71429,50.00000,62.00000,3.448630e-09,0.87410,4
583.244,222.999,     -4.00986,     -6.69040,50.00000,62.00000,3.440527e-09,0.87352,4
584.253,223.499,     -4.02455,     -6.68244,50.00000,62.00000,3.445982e-09,0.87296,4
585.265,223.999,     -4.03993,     -6.68244,50.00000,62.00000,3.440974e-09,0.87241,4
586.26,224.499,     -4.06048,     -6.69040,50.00000,62.00000,3.437751e-09,0.87189,4
587.248,224.999,     -4.07547,     -6.65855,50.00000,62.00000,3.443344e-09,0.87140,4
588.253,225.499,     -4.08564,     -6.68244,50.00000,62.00000,3.444178e-09,0.87092,4
589.261,225.999,     -4.10437,     -6.65059,50.00000,62.00000,3.453137e-09,0.87046,4
590.257,226.499,     -4.12372,     -6.68244,50.00000,62.00000,3.447455e-09,0.86990,4
591.261,226.999,     -4.13426,     -6.67447,50.00000,62.00000,3.444621e-09,0.86952,4
592.264,227.499,     -4.15403,     -6.67447,50.00000,62.00000,3.445427e-09,0.86914,4
593.261,227.999,     -4.17808,     -6.68244,50.00000,62.00000,3.444845e-09,0.86879,4
594.261,228.499,     -4.18635,     -6.65059,50.00000,62.00000,3.442274e-09,0.86845,4
595.269,228.999,     -4.20193,     -6.68244,50.00000,62.00000,3.441459e-09,0.86813,4
596.265,229.499,     -4.22078,     -6.66651,50.00000,62.00000,3.448435e-09,0.86783,4
597.269,229.999,     -4.23903,     -6.65059,50.00000,62.00000,3.447194e-09,0.86754,4
598.267,230.499,     -4.25065,     -6.65059,50.00000,62.00000,3.443296e-09,0.86727,4
599.273,230.999,     -4.26863,     -6.64262,50.00000,62.00000,3.442423e-09,0.86700,4
599.499,231.102,     -4.27367,     -6.64262,50.00000,62.00000,3.442423e-09,0.86700,5
599.891,231.202,     -4.10453,     -6.65855,50.00000,62.00000,3.440408e-09,0.86690,5
600.63,231.303,     -3.56692,     -6.58173,50.00000,62.00000,3.446693e-09,0.86682,5
601.75,231.403,     -2.64179,     -6.51827,50.00000,62.00000,3.446693e-09,0.86682,5
603.266,231.502,     -1.44288,     -6.41218,50.00000,62.00000,3.438093e-09,0.86673,5
605.114,231.602,     -0.13222,     -6.32201,50.00000,62.00000,3.438093e-09,0.86673,5
607.191,231.702,      1.13012,     -6.23466,50.00000,62.00000,3.444902e-09,0.86664,5
609.402,231.803,      2.21600,     -6.15246,50.00000,62.00000,3.446864e-09,0.86655,5
611.667,231.903,      3.03989,     -6.13677,50.00000,62.00000,3.446864e-09,0.86655,5
613.891,232.002,      3.56253,     -6.08103,50.00000,62.00000,3.446975e-09,0.86647,5
616.042,232.102,      3.78288,     -6.04122,50.00000,62.00000,3.446975e-09,0.86647,5
618.081,232.202,      3.76061,     -6.04122,50.00000,62.00000,3.452300e-09,0.86638,5
619.988,232.303,      3.55922,     -6.04122,50.00000,62.00000,3.449963e-09,0.86630,5
621.805,232.403,      3.23939,     -6.07307,50.00000,62.00000,3.449963e-09,0.86630,5
623.517,232.502,      2.87269,     -6.04122,50.00000,62.00000,3.444937e-09,0.86622,5
625.182,232.602,      2.51509,     -6.07307,50.00000,62.00000,3.447928e-09,0.86614,5
626.82,232.702,      2.20947,     -6.07307,50.00000,62.00000,3.447928e-09,0.86614,5
628.459,232.803,      1.98494,     -6.03864,50.00000,62.00000,3.438495e-09,0.86606,5
630.127,232.903,      1.84986,     -6.03864,50.00000,62.00000,3.438495e-09,0.86606,5
631.826,233.002,      1.79438,     -6.03864,50.00000,62.00000,3.442772e-09,0.86598,5
633.575,233.102,      1.80932,     -6.00679,50.00000,62.00000,3.448987e-09,0.86588,5
635.366,233.202,      1.87505,     -5.94333,50.00000,62.00000,3.448987e-09,0.86588,5
637.201,233.303,      1.97357,     -5.94333,50.00000,62.00000,3.452528e-09,0.86580,5
639.084,233.403,      2.08707,     -5.91148,50.00000,62.00000,3.452528e-09,0.86580,5
641.002,233.502,      2.19343,     -5.91148,50.00000,62.00000,3.448418e-09,0.86572,5
642.939,233.602,      2.28182,     -5.84778,50.00000,62.00000,3.445682e-09,0.86564,5
644.897,233.702,      2.34900,     -5.84778,50.00000,62.00000,3.445682e-09,0.86564,5
646.863,233.803,      2.38924,     -5.83981,50.00000,62.00000,3.443981e-09,0.86556,5
648.844,233.903,      2.40727,     -5.78431,50.00000,62.00000,3.443981e-09,0.86556,5
650.818,234.002,      2.39802,     -5.78431,50.00000,62.00000,3.448746e-09,0.86547,5
652.789,234.102,      2.37502,     -5.75246,50.00000,62.00000,3.450109e-09,0.86539,5
654.771,234.202,      2.34138,     -5.78431,50.00000,62.00000,3.450109e-09,0.86539,5
656.746,234.303,      2.29982,     -5.75246,50.00000,62.00000,3.450852e-09,0.86532,5
658.728,234.403,      2.25209,     -5.72061,50.00000,62.00000,3.450852e-09,0.86532,5
660.716,234.502,      2.20204,     -5.68899,50.00000,62.00000,3.436319e-09,0.86523,5
662.705,234.602,      2.15496,     -5.68103,50.00000,62.00000,3.445193e-09,0.86516,5
664.696,234.702,      2.10662,     -5.65714,50.00000,62.00000,3.445193e-09,0.86516,5
666.701,234.803,      2.06342,     -5.65714,50.00000,62.00000,3.448125e-09,0.86507,5
668.72,234.903,      2.02363,     -5.62529,50.00000,62.00000,3.448125e-09,0.86507,5
670.73,235.002,      1.97544,     -5.62529,50.00000,62.00000,3.445373e-09,0.86499,5
672.748,235.102,      1.92884,     -5.60937,50.00000,62.00000,3.449764e-09,0.86491,5
674.769,235.202,      1.88527,     -5.59344,50.00000,62.00000,3.449764e-09,0.86491,5
676.801,235.303,      1.83435,     -5.56183,50.00000,62.00000,3.448613e-09,0.86483,5
678.841,235.403,      1.77962,     -5.53794,50.00000,62.00000,3.445577e-09,0.86474,5
680.873,235.502,      1.72790,     -5.53794,50.00000,62.00000,3.445577e-09,0.86474,5
682.904,235.602,      1.66693,     -5.53794,50.00000,62.00000,3.444352e-09,0.86467,5
684.941,235.702,      1.60644,     -5.49813,50.00000,62.00000,3.444352e-09,0.86467,5
686.993,235.803,      1.54282,     -5.46628,50.00000,62.00000,3.448506e-09,0.86459,5
689.042,235.903,      1.47458,     -5.46628,50.00000,62.00000,3.446825e-09,0.86450,5
691.086,236.002,      1.40496,     -5.46628,50.00000,62.00000,3.446825e-09,0.86450,5
693.13,236.102,      1.33360,     -5.45035,50.00000,62.00000,3.447336e-09,0.86443,5
695.188,236.202,      1.25832,     -5.40796,50.00000,62.00000,3.447336e-09,0.86443,5
697.231,236.303,      1.18272,     -5.43185,50.00000,62.00000,3.447022e-09,0.86435,5
699.277,236.403,      1.10573,     -5.40000,50.00000,62.00000,3.439169e-09,0.86427,5
701.331,236.502,      1.02844,     -5.40000,50.00000,62.00000,3.439169e-09,0.86427,5
703.384,236.602,      0.95048,     -5.36838,50.00000,62.00000,3.447419e-09,0.86419,5
705.427,236.702,      0.87405,     -5.39204,50.00000,62.00000,3.447419e-09,0.86419,5
707.483,236.803,      0.79401,     -5.36042,50.00000,62.00000,3.435969e-09,0.86411,5
709.547,236.903,      0.71552,     -5.36042,50.00000,62.00000,3.445209e-09,0.86403,5
711.606,237.002,      0.63487,     -5.32857,50.00000,62.00000,3.445209e-09,0.86403,5
713.652,237.102,      0.55353,     -5.29672,50.00000,62.00000,3.445477e-09,0.86395,5
715.706,237.202,      0.46928,     -5.29672,50.00000,62.00000,3.445477e-09,0.86395,5
717.767,237.303,      0.38583,     -5.26487,50.00000,62.00000,3.447780e-09,0.86388,5
719.821,237.403,      0.30617,     -5.26487,50.00000,62.00000,3.446020e-09,0.86379,5
721.876,237.502,      0.22172,     -5.23326,50.00000,62.00000,3.446020e-09,0.86379,5
723.932,237.602,      0.13471,     -5.23326,50.00000,62.00000,3.443536e-09,0.86372,5
725.979,237.702, 4.285556e-02,     -5.23326,50.00000,62.00000,3.443536e-09,0.86372,5
728.045,237.803,-4.594848e-02,     -5.23326,50.00000,62.00000,3.445045e-09,0.86363,5
730.086,237.903,     -0.13055,     -5.20141,50.00000,62.00000,3.442695e-09,0.86356,5
732.146,238.002,     -0.22379,     -5.17752,50.00000,62.00000,3.442695e-09,0.86356,5
734.196,238.102,     -0.31774,     -5.17752,50.00000,62.00000,3.444315e-09,0.86349,5
736.248,238.202,     -0.40825,     -5.16956,50.00000,62.00000,3.454724e-09,0.86341,5
738.301,238.303,     -0.49833,     -5.13770,50.00000,62.00000,3.454724e-09,0.86341,5
740.362,238.403,     -0.59445,     -5.13770,50.00000,62.00000,3.440701e-09,0.86332,5
742.414,238.502,     -0.68596,     -5.10609,50.00000,62.00000,3.440701e-09,0.86332,5
744.457,238.602,     -0.78276,     -5.10609,50.00000,62.00000,3.449105e-09,0.86325,5
746.503,238.702,     -0.87571,     -5.07424,50.00000,62.00000,3.441974e-09,0.86317,5
748.55,238.803,     -0.96822,     -5.04239,50.00000,62.00000,3.441974e-09,0.86317,5
750.603,238.903,     -1.06415,     -5.04239,50.00000,62.00000,3.444136e-09,0.86309,5
752.653,239.002,     -1.15927,     -5.07424,50.00000,62.00000,3.444136e-09,0.86309,5
754.708,239.102,     -1.25010,     -5.04239,50.00000,62.00000,3.442090e-09,0.86303,5
756.753,239.202,     -1.34512,     -5.04239,50.00000,62.00000,3.449522e-09,0.86295,5
758.806,239.303,     -1.43584,     -5.01054,50.00000,62.00000,3.449522e-09,0.86295,5
760.856,239.403,     -1.53386,     -4.97892,50.00000,62.00000,3.440860e-09,0.86287,5
762.903,239.502,     -1.63612,     -4.95504,50.00000,62.00000,3.440860e-09,0.86287,5
764.944,239.602,     -1.73290,     -4.97892,50.00000,62.00000,3.447217e-09,0.86280,5
766.99,239.702,     -1.82691,     -4.97892,50.00000,62.00000,3.443868e-09,0.86273,5
769.036,239.803,     -1.92243,     -4.94707,50.00000,62.00000,3.443868e-09,0.86273,5
771.08,239.903,     -2.01790,     -4.94707,50.00000,62.00000,3.446179e-09,0.86266,5
773.118,240.002,     -2.12272,     -4.94707,50.00000,62.00000,3.446179e-09,0.86266,5
775.162,240.102,     -2.21810,     -4.94707,50.00000,62.00000,3.439814e-09,0.86259,5
777.198,240.202,     -2.31932,     -4.91522,50.00000,62.00000,3.443517e-09,0.86252,5
779.242,240.303,     -2.41580,     -4.89133,50.00000,62.00000,3.443517e-09,0.86252,5
781.287,240.403,     -2.51341,     -4.89133,50.00000,62.00000,3.449351e-09,0.86245,5
783.32,240.502,     -2.60739,     -4.88337,50.00000,62.00000,3.449351e-09,0.86245,5
785.37,240.602,     -2.70691,     -4.85176,50.00000,62.00000,3.436579e-09,0.86238,5
787.411,240.702,     -2.79961,     -4.85176,50.00000,62.00000,3.443853e-09,0.86231,5
789.444,240.803,     -2.89621,     -4.85176,50.00000,62.00000,            ,0.44912,5
791.483,240.903,     -2.99396,     -4.85176,50.00000,62.00000,            ,0.44830,5
793.533,241.002,     -3.09131,     -4.84379,50.00000,62.00000,            ,0.44748,5
793.635,241.007,     -3.09599,     -4.83583,50.00000,62.00000,            ,0.44744,5