File: data/TGA/ps_scf3_flynn_ozawa_wall/ExpDat_2025_11_18_SL_PS_Tosoh_F1_10K_min.csv
#EXPORTTYPE:                 ,DATA ALL
#FILE:                       ,2025_11_18_SL_PS_Tosoh_F1_10K_min.ngb-ss5
#FORMAT:                     ,NETZSCH5
#FTYPE:                      ,ASCII
#IDENTITY:                   ,PS_Tosoh_F1
#DECIMAL:                    ,POINT
#SEPARATOR:                  ,COMMA
#MTYPE:                      ,DSC
#INSTRUMENT:                 ,NETZSCH STA 449F5
#PROJECT:                    ,
#DATE/TIME:                  ,11/18/2025 8:56:01 AM (UTC-5)
#CORR. FILE:                 ,
#TEMPCAL:                    ,05-05-2025 14:38
#SENSITIVITY:                ,28-06-2023 13:53
#LABORATORY:                 ,Tran
#OPERATOR:                   ,Stan
#REMARK:                     ,
#SAMPLE:                     ,PS_Tosoh_F1
#SAMPLE MASS /mg:            ,4.65
#MATERIAL:                   ,
#REFERENCE:                  ,
#REFERENCE MASS /mg:         ,0
#TYPE OF CRUCIBLE:           ,Al2O3 85 ‘l, open
#SAMPLE CRUCIBLE MASS /mg:   ,0
#REFERENCE CRUCIBLE MASS /mg:,0
#DSC RANGE /‘V:              ,5000
#TG RANGE /mg:               ,35000
#TAU-R:                      ,---
#CORR. CODE:                 ,000
#EXO:                        ,-1
#RANGE:                      ,20›C....800›C/0.0....20.0K/min
#SEGMENT:                    ,S1-5/5
#SEG. 1:                     ,20›C/5.0(K/min)/100›C
#SEG. 2:                     ,100›C/00:05/100›C
#SEG. 3:                     ,100›C/10.0(K/min)/200›C
#SEG. 4:                     ,200›C/10.0(K/min)/600›C
#SEG. 5:                     ,600›C/20.0(K/min)/800›C

##Temp./›C,Time/min,DSC/(mW/mg),Mass/%,Gas Flow(purge2)/(ml/min),Gas Flow(protective)/(ml/min),TIC(scan:1)/A,Sensit./(uV/mW),Segment
 31.42500, 0.00000,      0.19465,100,50.00000,60.00000,            ,0.92381,1
 32.25600, 0.80000,      0.15414, 99.89290,50.00000,60.00000,3.419593e-09,0.92387,1
 33.07900, 1.60000,      0.14612, 99.52559,50.00000,60.00000,3.416235e-09,0.92393,1
 33.79000, 2.40000,      0.11664, 99.14129,50.00000,60.00000,3.427017e-09,0.92399,1
 34.49300, 3.20000,      0.13082, 98.93441,50.00000,60.00000,3.424335e-09,0.92404,1
 35.61400, 4.00000,      0.21865, 99.08280,50.00000,60.00000,3.412058e-09,0.92409,1
 37.24100, 4.80000,      0.35858, 99.39419,50.00000,60.00000,3.417013e-09,0.92415,1
 39.46900, 5.60000,      0.51474, 99.60581,50.00000,60.00000,3.420323e-09,0.92419,1
 42.26500, 6.40000,      0.67201,100.071,50.00000,60.00000,3.421276e-09,0.92423,1
 45.58000, 7.20000,      0.82582,100.528,50.00000,60.00000,3.410384e-09,0.92427,1
 49.34800, 8.00000,      0.96609,100.971,50.00000,60.00000,3.416668e-09,0.92432,1
 53.54400, 8.80000,      1.09540,101.355,50.00000,60.00000,3.420515e-09,0.92438,1
 58.07900, 9.60000,      1.20530,101.684,50.00000,60.00000,3.422576e-09,0.92446,1
 62.81100,10.40000,      1.29536,101.978,50.00000,60.00000,3.421544e-09,0.92454,1
 67.67900,11.20000,      1.37165,102.156,50.00000,60.00000,3.416525e-09,0.92464,1
 72.61400,12.00000,      1.42889,102.333,50.00000,60.00000,3.417445e-09,0.92475,1
 77.56100,12.80000,      1.47329,102.45,50.00000,60.00000,3.421836e-09,0.92484,1
 82.46700,13.60000,      1.50377,102.538,50.00000,60.00000,3.421457e-09,0.92496,1
 87.35000,14.40000,      1.52635,102.625,50.00000,60.00000,3.420896e-09,0.92509,1
 92.16400,15.20000,      1.54047,102.691,50.00000,60.00000,3.424549e-09,0.92523,1
 96.77900,15.98417,      1.57328,102.72,50.00000,60.00000,3.420004e-09,0.92536,2
100.067,16.58417,      1.53275,102.521,50.00000,60.00000,3.427882e-09,0.92547,2
102.53,17.18417,      1.25160,101.973,50.00000,60.00000,3.422407e-09,0.92555,2
104.28,17.78417,      0.94867,101.489,50.00000,60.00000,3.418123e-09,0.92565,2
105.606,18.38417,      0.73476,101.126,50.00000,60.00000,3.422662e-09,0.92575,2
106.666,18.98417,      0.58454,100.842,50.00000,60.00000,3.419737e-09,0.92581,2
107.408,19.58417,      0.44596,100.533,50.00000,60.00000,3.418963e-09,0.92590,2
107.841,20.18417,      0.30425,100.197,50.00000,60.00000,3.421259e-09,0.92596,2
107.998,20.78417,      0.17231, 99.86387,50.00000,60.00000,3.428651e-09,0.92603,2
107.983,21.02417,      0.12624, 99.74710,50.00000,60.00000,3.419860e-09,0.92606,3
107.97,21.14417,      0.10713, 99.71785,50.00000,60.00000,3.419860e-09,0.92606,3
107.974,21.26417, 9.820657e-02, 99.71054,50.00000,60.00000,3.423804e-09,0.92607,3
108.037,21.38417,      0.10374, 99.74710,50.00000,60.00000,3.415387e-09,0.92609,3
108.104,21.50417,      0.12589, 99.84925,50.00000,60.00000,3.415387e-09,0.92609,3
108.235,21.62417,      0.16893, 99.94645,50.00000,60.00000,3.421325e-09,0.92610,3
108.438,21.74417,      0.22912,100.141,50.00000,60.00000,3.416612e-09,0.92611,3
108.687,21.86417,      0.30665,100.302,50.00000,60.00000,3.414886e-09,0.92613,3
108.996,21.98417,      0.39796,100.484,50.00000,60.00000,3.414886e-09,0.92613,3
109.357,22.10417,      0.49983,100.669,50.00000,60.00000,3.417814e-09,0.92614,3
109.802,22.22417,      0.60924,100.864,50.00000,60.00000,3.420709e-09,0.92615,3
110.279,22.34417,      0.72120,101.041,50.00000,60.00000,3.418243e-09,0.92616,3
110.811,22.46417,      0.83356,101.255,50.00000,60.00000,3.418243e-09,0.92616,3
111.374,22.58417,      0.94401,101.397,50.00000,60.00000,3.420711e-09,0.92617,3
111.955,22.70417,      1.04629,101.513,50.00000,60.00000,3.414389e-09,0.92617,3
112.591,22.82417,      1.14487,101.635,50.00000,60.00000,3.420392e-09,0.92618,3
113.229,22.94417,      1.23206,101.778,50.00000,60.00000,3.420392e-09,0.92618,3
113.915,23.06417,      1.31358,101.91,50.00000,60.00000,3.422465e-09,0.92619,3
114.599,23.18417,      1.38942,102.002,50.00000,60.00000,3.410427e-09,0.92619,3
115.305,23.30417,      1.45779,102.1,50.00000,60.00000,3.410427e-09,0.92619,3
116.019,23.42417,      1.52209,102.2,50.00000,60.00000,3.416925e-09,0.92619,3
116.762,23.54417,      1.57964,102.292,50.00000,60.00000,3.419561e-09,0.92620,3
117.518,23.66417,      1.63526,102.387,50.00000,60.00000,3.416177e-09,0.92620,3
118.284,23.78417,      1.68806,102.482,50.00000,60.00000,3.416177e-09,0.92620,3
119.087,23.90417,      1.74343,102.574,50.00000,60.00000,3.419990e-09,0.92620,3
119.891,24.02417,      1.79884,102.667,50.00000,60.00000,3.415630e-09,0.92620,3
120.739,24.14417,      1.85486,102.786,50.00000,60.00000,3.418368e-09,0.92620,3
121.619,24.26417,      1.91508,102.886,50.00000,60.00000,3.418368e-09,0.92620,3
122.505,24.38417,      1.97644,102.954,50.00000,60.00000,3.417777e-09,0.92620,3
123.434,24.50417,      2.04254,103.129,50.00000,60.00000,3.416120e-09,0.92620,3
124.397,24.62417,      2.10820,103.187,50.00000,60.00000,3.416120e-09,0.92620,3
125.373,24.74417,      2.18005,103.333,50.00000,60.00000,3.427305e-09,0.92619,3
126.383,24.86417,      2.24984,103.438,50.00000,60.00000,3.420670e-09,0.92619,3
127.437,24.98417,      2.32335,103.545,50.00000,60.00000,3.422130e-09,0.92618,3
128.518,25.10417,      2.39715,103.679,50.00000,60.00000,3.422130e-09,0.92618,3
129.616,25.22417,      2.46799,103.745,50.00000,60.00000,3.431119e-09,0.92618,3
130.735,25.34417,      2.54110,103.883,50.00000,60.00000,3.414055e-09,0.92617,3
131.876,25.46417,      2.61199,103.971,50.00000,60.00000,3.417578e-09,0.92616,3
133.053,25.58417,      2.68157,104.112,50.00000,60.00000,3.417578e-09,0.92616,3
134.232,25.70417,      2.74927,104.17,50.00000,60.00000,3.415948e-09,0.92615,3
135.449,25.82417,      2.81495,104.207,50.00000,60.00000,3.416312e-09,0.92614,3
136.676,25.94417,      2.87767,104.311,50.00000,60.00000,3.416312e-09,0.92614,3
137.92,26.06417,      2.93726,104.362,50.00000,60.00000,3.411471e-09,0.92613,3
139.18,26.18417,      2.99535,104.489,50.00000,60.00000,3.418325e-09,0.92612,3
140.443,26.30417,      3.04865,104.547,50.00000,60.00000,3.417091e-09,0.92610,3
141.724,26.42417,      3.10262,104.608,50.00000,60.00000,3.417091e-09,0.92610,3
143.012,26.54417,      3.15272,104.666,50.00000,60.00000,3.412494e-09,0.92609,3
144.324,26.66417,      3.19914,104.757,50.00000,60.00000,3.413590e-09,0.92607,3
145.647,26.78417,      3.24586,104.817,50.00000,60.00000,3.420157e-09,0.92605,3
146.973,26.90417,      3.29031,104.876,50.00000,60.00000,3.420157e-09,0.92605,3
148.305,27.02417,      3.33215,104.944,50.00000,60.00000,3.417909e-09,0.92604,3
149.66,27.14417,      3.37212,105.002,50.00000,60.00000,3.420712e-09,0.92602,3
151.008,27.26417,      3.41071,105.031,50.00000,60.00000,3.420712e-09,0.92602,3
152.379,27.38417,      3.44744,105.061,50.00000,60.00000,3.416754e-09,0.92600,3
153.733,27.50417,      3.48350,105.134,50.00000,60.00000,3.421783e-09,0.92598,3
155.118,27.62417,      3.51587,105.155,50.00000,60.00000,3.424402e-09,0.92595,3
156.491,27.74417,      3.55032,105.214,50.00000,60.00000,3.424402e-09,0.92595,3
157.873,27.86417,      3.58013,105.243,50.00000,59.00000,3.408941e-09,0.92593,3
159.263,27.98417,      3.60656,105.302,50.00000,59.00000,3.420643e-09,0.92591,3
160.645,28.10417,      3.63598,105.302,50.00000,59.00000,3.409685e-09,0.92588,3
162.048,28.22417,      3.66187,105.36,50.00000,59.00000,3.409685e-09,0.92588,3
163.432,28.34417,      3.68707,105.418,50.00000,59.00000,3.415992e-09,0.92586,3
164.826,28.46417,      3.70869,105.426,50.00000,59.00000,3.412867e-09,0.92583,3
166.241,28.58417,      3.73118,105.477,50.00000,59.00000,3.412867e-09,0.92583,3
167.637,28.70417,      3.74965,105.477,50.00000,59.00000,3.412528e-09,0.92580,3
169.036,28.82417,      3.76746,105.506,50.00000,59.00000,3.419035e-09,0.92577,3
170.439,28.94417,      3.78387,105.535,50.00000,59.00000,3.417129e-09,0.92574,3
171.855,29.06417,      3.79781,105.564,50.00000,59.00000,3.417129e-09,0.92574,3
173.243,29.18417,      3.81044,105.594,50.00000,59.00000,3.426349e-09,0.92571,3
174.652,29.30417,      3.82189,105.623,50.00000,59.00000,3.414270e-09,0.92568,3
176.053,29.42417,      3.83301,105.652,50.00000,59.00000,3.424660e-09,0.92564,3
177.45,29.54417,      3.84139,105.652,50.00000,59.00000,3.424660e-09,0.92564,3
178.853,29.66417,      3.84985,105.71,50.00000,59.00000,3.410283e-09,0.92561,3
180.244,29.78417,      3.85572,105.681,50.00000,59.00000,3.419913e-09,0.92557,3
181.638,29.90417,      3.85979,105.71,50.00000,59.00000,3.419913e-09,0.92557,3
183.044,30.02417,      3.86524,105.747,50.00000,59.00000,3.419982e-09,0.92553,3
184.44,30.14417,      3.86866,105.761,50.00000,59.00000,3.415606e-09,0.92550,3
185.842,30.26417,      3.87102,105.769,50.00000,59.00000,3.418547e-09,0.92546,3
187.232,30.38417,      3.87450,105.776,50.00000,59.00000,3.418547e-09,0.92546,3
188.622,30.50417,      3.87503,105.798,50.00000,59.00000,3.415055e-09,0.92542,3
190.001,30.62417,      3.87444,105.812,50.00000,59.00000,3.417427e-09,0.92538,3
191.387,30.74417,      3.87409,105.827,50.00000,59.00000,3.413869e-09,0.92533,3
192.783,30.86417,      3.87306,105.827,50.00000,59.00000,3.413869e-09,0.92533,3
194.15,30.98417,      3.87102,105.827,50.00000,59.00000,3.418848e-09,0.92529,4
195.517,31.10417,      3.86883,105.861,50.00000,59.00000,3.420932e-09,0.92525,4
196.899,31.22417,      3.86539,105.89,50.00000,59.00000,3.415747e-09,0.92520,4
198.25,31.34417,      3.86037,105.861,50.00000,59.00000,3.415747e-09,0.92520,4
199.61,31.46417,      3.85314,105.861,50.00000,59.00000,3.423168e-09,0.92516,4
200.967,31.58417,      3.85081,105.89,50.00000,59.00000,3.417541e-09,0.92511,4
202.315,31.70417,      3.84395,105.92,50.00000,59.00000,3.417541e-09,0.92511,4
203.662,31.82417,      3.83691,105.898,50.00000,59.00000,3.423462e-09,0.92506,4
205.009,31.94417,      3.83347,105.92,50.00000,59.00000,3.418543e-09,0.92501,4
206.352,32.06417,      3.82683,105.934,50.00000,59.00000,3.421160e-09,0.92496,4
207.676,32.18417,      3.82088,105.92,50.00000,59.00000,3.421160e-09,0.92496,4
208.999,32.30417,      3.81438,105.927,50.00000,59.00000,3.416345e-09,0.92491,4
210.343,32.42417,      3.81081,105.963,50.00000,59.00000,3.417112e-09,0.92486,4
211.659,32.54417,      3.80507,105.971,50.00000,59.00000,3.424852e-09,0.92481,4
212.976,32.66417,      3.79858,105.978,50.00000,59.00000,3.424852e-09,0.92481,4
214.291,32.78417,      3.79286,105.978,50.00000,59.00000,3.412082e-09,0.92475,4
215.598,32.90417,      3.78560,106,50.00000,59.00000,3.425824e-09,0.92470,4
216.909,33.02417,      3.78122,106.007,50.00000,59.00000,3.425824e-09,0.92470,4
218.206,33.14417,      3.77298,106.007,50.00000,59.00000,3.417932e-09,0.92464,4
219.503,33.26417,      3.76800,106.036,50.00000,59.00000,3.417171e-09,0.92459,4
220.793,33.38417,      3.76051,106.036,50.00000,59.00000,3.419546e-09,0.92453,4
222.083,33.50417,      3.75476,106.036,50.00000,59.00000,3.419546e-09,0.92453,4
223.373,33.62417,      3.74670,106.066,50.00000,59.00000,3.415513e-09,0.92447,4
224.658,33.74417,      3.73998,106.066,50.00000,59.00000,3.418470e-09,0.92441,4
225.936,33.86417,      3.73228,106.095,50.00000,59.00000,3.422709e-09,0.92435,4
227.223,33.98417,      3.72441,106.117,50.00000,59.00000,3.422709e-09,0.92435,4
228.488,34.10417,      3.71860,106.117,50.00000,59.00000,3.414875e-09,0.92429,4
229.755,34.22417,      3.71338,106.117,50.00000,59.00000,3.415676e-09,0.92422,4
231.031,34.34417,      3.70626,106.117,50.00000,59.00000,3.422742e-09,0.92416,4
232.286,34.46417,      3.69751,106.117,50.00000,59.00000,3.422742e-09,0.92416,4
233.545,34.58417,      3.69150,106.117,50.00000,59.00000,3.416462e-09,0.92410,4
234.813,34.70417,      3.68533,106.153,50.00000,59.00000,3.417927e-09,0.92403,4
236.057,34.82417,      3.67849,106.153,50.00000,59.00000,3.417927e-09,0.92403,4
237.313,34.94417,      3.67247,106.182,50.00000,59.00000,3.414225e-09,0.92397,4
238.563,35.06417,      3.66702,106.175,50.00000,59.00000,3.416157e-09,0.92390,4
239.79,35.18417,      3.66051,106.204,50.00000,59.00000,3.411750e-09,0.92383,4
241.045,35.30417,      3.65567,106.175,50.00000,59.00000,3.411750e-09,0.92383,4
242.297,35.42417,      3.64946,106.204,50.00000,59.00000,3.416325e-09,0.92376,4
243.546,35.54417,      3.64499,106.189,50.00000,59.00000,3.422675e-09,0.92369,4
244.768,35.66417,      3.63887,106.182,50.00000,59.00000,3.411725e-09,0.92362,4
246.012,35.78417,      3.63341,106.211,50.00000,59.00000,3.411725e-09,0.92362,4
247.246,35.90417,      3.62930,106.211,50.00000,59.00000,3.414908e-09,0.92355,4
248.471,36.02417,      3.62318,106.211,50.00000,59.00000,3.422506e-09,0.92348,4
249.702,36.14417,      3.61847,106.182,50.00000,59.00000,3.412875e-09,0.92340,4
250.929,36.26417,      3.61257,106.241,50.00000,59.00000,3.412875e-09,0.92340,4
252.153,36.38417,      3.60803,106.211,50.00000,59.00000,3.415133e-09,0.92333,4
253.381,36.50417,      3.60550,106.241,50.00000,59.00000,3.417178e-09,0.92325,4
254.604,36.62417,      3.60195,106.241,50.00000,59.00000,3.417178e-09,0.92325,4
255.814,36.74417,      3.59698,106.241,50.00000,59.00000,3.423597e-09,0.92318,4
257.043,36.86417,      3.59446,106.241,50.00000,59.00000,3.422789e-09,0.92310,4
258.262,36.98417,      3.58913,106.27,50.00000,59.00000,3.423036e-09,0.92302,4
259.467,37.10417,      3.58693,106.27,50.00000,59.00000,3.423036e-09,0.92302,4
260.69,37.22417,      3.58421,106.27,50.00000,59.00000,3.417209e-09,0.92295,4
261.902,37.34417,      3.58125,106.299,50.00000,59.00000,3.425047e-09,0.92287,4
263.116,37.46417,      3.57750,106.27,50.00000,59.00000,3.425047e-09,0.92287,4
264.325,37.58417,      3.57394,106.241,50.00000,59.00000,3.417319e-09,0.92279,4
265.546,37.70417,      3.57263,106.27,50.00000,59.00000,3.417123e-09,0.92271,4
266.744,37.82417,      3.56803,106.27,50.00000,59.00000,3.414382e-09,0.92263,4
267.954,37.94417,      3.56649,106.27,50.00000,59.00000,3.414382e-09,0.92263,4
269.161,38.06417,      3.56253,106.27,50.00000,59.00000,3.428637e-09,0.92254,4
270.37,38.18417,      3.55979,106.255,50.00000,59.00000,3.412015e-09,0.92246,4
271.573,38.30417,      3.55824,106.255,50.00000,59.00000,3.420669e-09,0.92238,4
272.775,38.42417,      3.55548,106.255,50.00000,59.00000,3.420669e-09,0.92238,4
273.977,38.54417,      3.55252,106.255,50.00000,59.00000,3.421427e-09,0.92229,4
275.179,38.66417,      3.55098,106.255,50.00000,59.00000,3.419746e-09,0.92221,4
276.375,38.78417,      3.54678,106.211,50.00000,59.00000,3.417270e-09,0.92212,4
277.582,38.90417,      3.54486,106.219,50.00000,59.00000,3.417270e-09,0.92212,4
278.767,39.02417,      3.54225,106.219,50.00000,59.00000,3.416987e-09,0.92204,4
279.974,39.14417,      3.54136,106.185,50.00000,59.00000,3.415569e-09,0.92195,4
281.169,39.26417,      3.53900,106.155,50.00000,59.00000,3.415569e-09,0.92195,4
282.365,39.38417,      3.53685,106.185,50.00000,59.00000,3.413280e-09,0.92186,4
283.564,39.50417,      3.53472,106.155,50.00000,59.00000,3.422330e-09,0.92179,4
284.76,39.62417,      3.53565,106.155,50.00000,59.00000,3.424749e-09,0.92172,4
285.945,39.74417,      3.53285,106.068,50.00000,59.00000,3.424749e-09,0.92172,4
287.148,39.86417,      3.53115,106.097,50.00000,59.00000,3.423600e-09,0.92166,4
288.329,39.98417,      3.53122,106.068,50.00000,59.00000,3.417814e-09,0.92159,4
289.527,40.10417,      3.52910,106.053,50.00000,59.00000,3.417814e-09,0.92159,4
290.729,40.22417,      3.52824,106.009,50.00000,59.00000,3.429330e-09,0.92153,4
291.903,40.34417,      3.52727,105.98,50.00000,59.00000,3.418482e-09,0.92146,4
293.103,40.46417,      3.52662,105.98,50.00000,59.00000,3.416409e-09,0.92139,4
294.292,40.58417,      3.52779,105.922,50.00000,59.00000,3.416409e-09,0.92139,4
295.483,40.70417,      3.52669,105.893,50.00000,59.00000,3.429268e-09,0.92132,4
296.687,40.82417,      3.52649,105.834,50.00000,59.00000,3.421212e-09,0.92126,4
297.867,40.94417,      3.52682,105.834,50.00000,59.00000,3.418706e-09,0.92120,4
299.061,41.06417,      3.52783,105.774,50.00000,59.00000,3.418706e-09,0.92120,4
300.242,41.18417,      3.52755,105.71,50.00000,59.00000,3.416172e-09,0.92113,4
301.442,41.30417,      3.52924,105.681,50.00000,59.00000,3.423344e-09,0.92107,4
302.637,41.42417,      3.52882,105.62,50.00000,59.00000,3.420140e-09,0.92101,4
303.827,41.54417,      3.52860,105.557,50.00000,59.00000,3.420140e-09,0.92101,4
305.009,41.66417,      3.52940,105.528,50.00000,59.00000,3.414420e-09,0.92095,4
306.203,41.78417,      3.53047,105.455,50.00000,59.00000,3.417373e-09,0.92089,4
307.387,41.90417,      3.53213,105.382,50.00000,59.00000,3.417373e-09,0.92089,4
308.569,42.02417,      3.53274,105.321,50.00000,59.00000,3.418911e-09,0.92084,4
309.776,42.14417,      3.53283,105.258,50.00000,59.00000,3.415491e-09,0.92078,4
310.956,42.26417,      3.53345,105.165,50.00000,59.00000,3.416854e-09,0.92072,4
312.147,42.38417,      3.53539,105.102,50.00000,59.00000,3.416854e-09,0.92072,4
313.335,42.50417,      3.53626,105.007,50.00000,59.00000,3.416143e-09,0.92067,4
314.524,42.62417,      3.53758,104.915,50.00000,59.00000,3.422479e-09,0.92062,4
315.706,42.74417,      3.53972,104.825,50.00000,59.00000,3.422479e-09,0.92062,4
316.905,42.86417,      3.54024,104.762,50.00000,59.00000,3.423268e-09,0.92057,4
318.093,42.98417,      3.54519,104.666,50.00000,59.00000,3.418684e-09,0.92053,4
319.284,43.10417,      3.54762,104.53,50.00000,59.00000,3.422217e-09,0.92048,4
320.466,43.22417,      3.54873,104.428,50.00000,59.00000,3.422217e-09,0.92048,4
321.663,43.34417,      3.55270,104.338,50.00000,59.00000,3.426232e-09,0.92043,4
322.843,43.46417,      3.55383,104.234,50.00000,59.00000,3.417040e-09,0.92039,4
324.046,43.58417,      3.55785,104.109,50.00000,59.00000,3.423682e-09,0.92034,4
325.23,43.70417,      3.56051,103.995,50.00000,59.00000,3.423682e-09,0.92034,4
326.415,43.82417,      3.56383,103.871,50.00000,59.00000,3.410325e-09,0.92030,4
327.613,43.94417,      3.56852,103.74,50.00000,59.00000,3.422086e-09,0.92025,4
328.793,44.06417,      3.57250,103.569,50.00000,59.00000,3.422086e-09,0.92025,4
329.982,44.18417,      3.57588,103.438,50.00000,59.00000,3.422444e-09,0.92022,4
331.168,44.30417,      3.57926,103.306,50.00000,59.00000,3.412475e-09,0.92017,4
332.354,44.42417,      3.58244,103.131,50.00000,59.00000,3.421177e-09,0.92014,4
333.54,44.54417,      3.58714,102.993,50.00000,59.00000,3.421177e-09,0.92014,4
334.736,44.66417,      3.59256,102.817,50.00000,59.00000,3.418997e-09,0.92010,4
335.926,44.78417,      3.59841,102.654,50.00000,59.00000,3.416333e-09,0.92006,4
337.111,44.90417,      3.60665,102.467,50.00000,59.00000,3.421839e-09,0.92003,4
338.309,45.02417,      3.61236,102.287,50.00000,59.00000,3.421839e-09,0.92003,4
339.491,45.14417,      3.62064,102.092,50.00000,59.00000,3.422933e-09,0.91999,4
340.674,45.26417,      3.63158,101.898,50.00000,59.00000,3.416466e-09,0.91996,4
341.863,45.38417,      3.63731,101.633,50.00000,59.00000,3.416466e-09,0.91996,4
343.058,45.50417,      3.64485,101.423,50.00000,59.00000,3.425705e-09,0.91992,4
344.255,45.62417,      3.65110,101.192,50.00000,59.00000,3.422848e-09,0.91989,4
345.441,45.74417,      3.65621,100.942,50.00000,59.00000,3.418271e-09,0.91985,4
346.622,45.86417,      3.66375,100.696,50.00000,59.00000,3.418271e-09,0.91985,4
347.826,45.98417,      3.67119,100.443,50.00000,59.00000,3.427205e-09,0.91982,4
349.003,46.10417,      3.67787,100.195,50.00000,59.00000,3.419397e-09,0.91979,4
350.192,46.22417,      3.68462, 99.91011,50.00000,59.00000,3.417026e-09,0.91976,4
351.391,46.34417,      3.69677, 99.62043,50.00000,59.00000,3.417026e-09,0.91976,4
352.587,46.46417,      3.70361, 99.30667,50.00000,59.00000,3.424024e-09,0.91972,4
353.758,46.58417,      3.71391, 98.99269,50.00000,59.00000,3.418918e-09,0.91970,4
354.95,46.70417,      3.72077, 98.69849,50.00000,59.00000,3.418918e-09,0.91970,4
356.144,46.82417,      3.72990, 98.36989,50.00000,59.00000,3.410856e-09,0.91966,4
357.33,46.94417,      3.73857, 97.96366,50.00000,59.00000,3.424007e-09,0.91964,4
358.517,47.06417,      3.74951, 97.59140,50.00000,59.00000,3.419297e-09,0.91961,4
359.707,47.18417,      3.75757, 97.21914,50.00000,59.00000,3.419297e-09,0.91961,4
360.903,47.30417,      3.76682, 96.81763,50.00000,59.00000,3.418817e-09,0.91958,4
362.086,47.42417,      3.77715, 96.40409,50.00000,59.00000,3.423045e-09,0.91956,4
363.286,47.54417,      3.78737, 95.94430,50.00000,59.00000,3.423045e-09,0.91956,4
364.47,47.66417,      3.79822, 95.53548,50.00000,59.00000,3.413292e-09,0.91953,4
365.658,47.78417,      3.80935, 95.08065,50.00000,59.00000,3.420140e-09,0.91950,4
366.845,47.90417,      3.82141, 94.58430,50.00000,59.00000,3.417479e-09,0.91948,4
368.045,48.02417,      3.83221, 94.10000,50.00000,59.00000,3.417479e-09,0.91948,4
369.229,48.14417,      3.84591, 93.53312,50.00000,59.00000,3.423391e-09,0.91944,4
370.429,48.26417,      3.86019, 93.04172,50.00000,59.00000,3.418621e-09,0.91942,4
371.607,48.38417,      3.87326, 92.44796,50.00000,59.00000,3.422252e-09,0.91940,4
372.792,48.50417,      3.88686, 91.88108,50.00000,59.00000,3.422252e-09,0.91940,4
373.986,48.62417,      3.89986, 91.27290,50.00000,59.00000,3.426917e-09,0.91937,4
375.175,48.74417,      3.91402, 90.65247,50.00000,59.00000,3.420109e-09,0.91935,4
376.362,48.86417,      3.92912, 90.01269,50.00000,59.00000,3.420109e-09,0.91935,4
377.558,48.98417,      3.94501, 89.33376,50.00000,59.00000,3.423021e-09,0.91932,4
378.747,49.10417,      3.96251, 88.62086,50.00000,59.00000,3.422411e-09,0.91930,4
379.929,49.22417,      3.98049, 87.89591,50.00000,59.00000,3.428090e-09,0.91928,4
381.118,49.34417,      4.00110, 87.16602,50.00000,59.00000,3.428090e-09,0.91928,4
382.308,49.46417,      4.01993, 86.36323,50.00000,59.00000,3.412602e-09,0.91926,4
383.507,49.58417,      4.04094, 85.54559,50.00000,59.00000,3.415374e-09,0.91924,4
384.689,49.70417,      4.06401, 84.69161,50.00000,59.00000,3.419933e-09,0.91921,4
385.893,49.82417,      4.08680, 83.80602,50.00000,59.00000,3.419933e-09,0.91921,4
387.08,49.94417,      4.10794, 82.86946,50.00000,59.00000,3.414429e-09,0.91920,4
388.276,50.06417,      4.13269, 81.89871,50.00000,59.00000,3.415286e-09,0.91918,4
389.466,50.18417,      4.15841, 80.89140,50.00000,59.00000,3.415286e-09,0.91918,4
390.65,50.30417,      4.18885, 79.82581,50.00000,59.00000,3.414620e-09,0.91916,4
391.844,50.42417,      4.21381, 78.70172,50.00000,59.00000,3.417713e-09,0.91914,4
393.033,50.54417,      4.24163, 77.53376,50.00000,59.00000,3.408264e-09,0.91912,4
394.222,50.66417,      4.27565, 76.36108,50.00000,59.00000,3.408264e-09,0.91912,4
395.41,50.78417,      4.30788, 75.10323,50.00000,59.00000,3.421789e-09,0.91911,4
396.603,50.90417,      4.34424, 73.77484,50.00000,59.00000,3.419577e-09,0.91909,4
397.802,51.02417,      4.37791, 72.41978,50.00000,59.00000,3.414496e-09,0.91907,4
398.987,51.14417,      4.41160, 70.98172,50.00000,59.00000,3.414496e-09,0.91907,4
400.186,51.26417,      4.44524, 69.52194,50.00000,59.00000,3.418248e-09,0.91906,4
401.375,51.38417,      4.48176, 67.96000,50.00000,59.00000,3.417485e-09,0.91905,4
402.559,51.50417,      4.51740, 66.38344,50.00000,59.00000,3.417485e-09,0.91905,4
403.757,51.62417,      4.55134, 64.75570,50.00000,59.00000,3.417733e-09,0.91903,4
404.941,51.74417,      4.58481, 63.04301,50.00000,59.00000,3.419303e-09,0.91902,4
406.136,51.86417,      4.61868, 61.30817,50.00000,59.00000,3.421482e-09,0.91900,4
407.318,51.98417,      4.65209, 59.52495,50.00000,59.00000,3.421482e-09,0.91900,4
408.513,52.10417,      4.68521, 57.69527,50.00000,59.00000,3.414659e-09,0.91899,4
409.706,52.22417,      4.71264, 55.80000,50.00000,59.00000,3.419498e-09,0.91898,4
410.901,52.34417,      4.73752, 53.86086,50.00000,59.00000,3.419498e-09,0.91898,4
412.099,52.46417,      4.75960, 51.93161,50.00000,59.00000,3.419241e-09,0.91897,4
413.29,52.58417,      4.77591, 49.86602,50.00000,59.00000,3.414476e-09,0.91896,4
414.486,52.70417,      4.78818, 47.87570,50.00000,59.00000,3.418669e-09,0.91895,4
415.673,52.82417,      4.79462, 45.85871,50.00000,59.00000,3.418669e-09,0.91895,4
416.882,52.94417,      4.79418, 43.78581,50.00000,59.00000,3.413287e-09,0.91894,4
418.066,53.06417,      4.78531, 41.72022,50.00000,59.00000,3.408372e-09,0.91894,4
419.262,53.18417,      4.77016, 39.66430,50.00000,59.00000,3.416638e-09,0.91892,4
420.461,53.30417,      4.75009, 37.67656,50.00000,59.00000,3.416638e-09,0.91892,4
421.65,53.42417,      4.71331, 35.68409,50.00000,59.00000,3.414333e-09,0.91892,4
422.849,53.54417,      4.67156, 33.66215,50.00000,59.00000,3.414639e-09,0.91892,4
424.041,53.66417,      4.61373, 31.76946,50.00000,59.00000,3.414639e-09,0.91892,4
425.234,53.78417,      4.55080, 29.95914,50.00000,59.00000,3.415744e-09,0.91891,4
426.423,53.90417,      4.47486, 28.10043,50.00000,59.00000,3.421359e-09,0.91890,4
427.62,54.02417,      4.38888, 26.39484,50.00000,59.00000,3.411588e-09,0.91890,4
428.811,54.14417,      4.29347, 24.71613,50.00000,59.00000,3.411588e-09,0.91890,4
430.006,54.26417,      4.18963, 23.20774,50.00000,59.00000,3.419646e-09,0.91889,4
431.204,54.38417,      4.07656, 21.74796,50.00000,59.00000,3.411654e-09,0.91889,4
432.403,54.50417,      3.95470, 20.43398,50.00000,59.00000,3.410951e-09,0.91889,4
433.594,54.62417,      3.82943, 19.24194,50.00000,59.00000,3.410951e-09,0.91889,4
434.791,54.74417,      3.69632, 18.15441,50.00000,59.00000,3.410109e-09,0.91888,4
435.985,54.86417,      3.56425, 17.15441,50.00000,59.00000,3.414144e-09,0.91888,4
437.183,54.98417,      3.43028, 16.28817,50.00000,59.00000,3.414144e-09,0.91888,4
438.384,55.10417,      3.29512, 15.51935,50.00000,59.00000,3.411980e-09,0.91888,4
439.578,55.22417,      3.16299, 14.82602,50.00000,59.00000,3.412201e-09,0.91888,4
440.784,55.34417,      3.03598, 14.19591,50.00000,59.00000,3.415118e-09,0.91887,4
441.995,55.46417,      2.91759, 13.69462,50.00000,59.00000,3.415118e-09,0.91887,4
443.185,55.58417,      2.80601, 13.22516,50.00000,59.00000,3.419300e-09,0.91888,4
444.393,55.70417,      2.70494, 12.83591,50.00000,59.00000,3.412137e-09,0.91888,4
445.582,55.82417,      2.61102, 12.48559,50.00000,59.00000,3.416457e-09,0.91888,4
446.776,55.94417,      2.52993, 12.21785,50.00000,59.00000,3.416457e-09,0.91888,4
447.978,56.06417,      2.45062, 11.98430,50.00000,59.00000,3.411925e-09,0.91888,4
449.166,56.18417,      2.38289, 11.78473,50.00000,59.00000,3.415989e-09,0.91888,4
450.37,56.30417,      2.32336, 11.61204,50.00000,59.00000,3.415989e-09,0.91888,4
451.575,56.42417,      2.26744, 11.45634,50.00000,59.00000,3.413881e-09,0.91888,4
452.755,56.54417,      2.21837, 11.33462,50.00000,59.00000,3.412083e-09,0.91888,4
453.956,56.66417,      2.17252, 11.22280,50.00000,59.00000,3.411911e-09,0.91888,4
455.153,56.78417,      2.13211, 11.12796,50.00000,59.00000,3.411911e-09,0.91888,4
456.344,56.90417,      2.09512, 11.06710,50.00000,59.00000,3.417222e-09,0.91888,4
457.533,57.02417,      2.05980, 11.00860,50.00000,59.00000,3.409443e-09,0.91888,4
458.726,57.14417,      2.02975, 10.95032,50.00000,59.00000,3.412977e-09,0.91888,4
459.928,57.26417,      1.99834, 10.92108,50.00000,59.00000,3.412977e-09,0.91888,4
461.123,57.38417,      1.96937, 10.89183,50.00000,59.00000,3.420810e-09,0.91888,4
462.317,57.50417,      1.94314, 10.86280,50.00000,59.00000,3.417085e-09,0.91888,4
463.508,57.62417,      1.92119, 10.84086,50.00000,59.00000,3.417085e-09,0.91888,4
464.702,57.74417,      1.89736, 10.84086,50.00000,59.00000,3.412729e-09,0.91888,4
465.905,57.86417,      1.87942, 10.83355,50.00000,59.00000,3.410271e-09,0.91888,4
467.095,57.98417,      1.85932, 10.83355,50.00000,59.00000,3.408276e-09,0.91888,4
468.286,58.10417,      1.84070, 10.83355,50.00000,59.00000,3.408276e-09,0.91888,4
469.481,58.22417,      1.82489, 10.83355,50.00000,59.00000,3.412662e-09,0.91888,4
470.674,58.34417,      1.80798, 10.86280,50.00000,59.00000,3.417544e-09,0.91888,4
471.866,58.46417,      1.79413, 10.87720,50.00000,59.00000,3.413366e-09,0.91888,4
473.066,58.58417,      1.77921, 10.86280,50.00000,59.00000,3.413366e-09,0.91888,4
474.255,58.70417,      1.76394, 10.89441,50.00000,59.00000,3.413072e-09,0.91888,4
475.462,58.82417,      1.74866, 10.89441,50.00000,59.00000,3.415339e-09,0.91888,4
476.638,58.94417,      1.73378, 10.92344,50.00000,59.00000,3.405899e-09,0.91888,4
477.839,59.06417,      1.71943, 10.92344,50.00000,59.00000,3.405899e-09,0.91888,4
479.028,59.18417,      1.70895, 10.91613,50.00000,59.00000,3.412853e-09,0.91888,4
480.219,59.30417,      1.69289, 10.94538,50.00000,59.00000,3.418307e-09,0.91888,4
481.408,59.42417,      1.67942, 10.94538,50.00000,59.00000,3.418307e-09,0.91888,4
482.622,59.54417,      1.66622, 10.97699,50.00000,59.00000,3.417766e-09,0.91888,4
483.801,59.66417,      1.65262, 10.93570,50.00000,59.00000,3.414091e-09,0.91888,4
485.002,59.78417,      1.63743, 10.96495,50.00000,59.00000,3.409406e-09,0.91888,4
486.191,59.90417,      1.62669, 10.96495,50.00000,59.00000,3.409406e-09,0.91888,4
487.386,60.02417,      1.61458, 10.99398,50.00000,59.00000,3.419431e-09,0.91888,4
488.58,60.14417,      1.59789, 10.99398,50.00000,59.00000,3.411487e-09,0.91888,4
489.766,60.26417,      1.58460, 10.97226,50.00000,59.00000,3.417278e-09,0.91888,4
490.975,60.38417,      1.57238, 10.99398,50.00000,59.00000,3.417278e-09,0.91888,4
492.153,60.50417,      1.55791, 11.02323,50.00000,59.00000,3.409964e-09,0.91888,4
493.356,60.62417,      1.54344, 11.02323,50.00000,59.00000,3.410831e-09,0.91888,4
494.549,60.74417,      1.53104, 10.99398,50.00000,59.00000,3.410831e-09,0.91888,4
495.734,60.86417,      1.51778, 11.02323,50.00000,59.00000,3.413274e-09,0.91888,4
496.946,60.98417,      1.50183, 11.02323,50.00000,59.00000,3.415030e-09,0.91888,4
498.133,61.10417,      1.48928, 11.02323,50.00000,59.00000,3.412431e-09,0.91888,4
499.328,61.22417,      1.47373, 11.03054,50.00000,59.00000,3.412431e-09,0.91888,4
500.528,61.34417,      1.46220, 11.05247,50.00000,59.00000,3.410897e-09,0.91888,4
501.72,61.46417,      1.44681, 11.05247,50.00000,59.00000,3.420271e-09,0.91888,4
502.92,61.58417,      1.43138, 11.05247,50.00000,59.00000,3.420271e-09,0.91888,4
504.123,61.70417,      1.41727, 11.05247,50.00000,59.00000,3.411402e-09,0.91888,4
505.32,61.82417,      1.40146, 11.07441,50.00000,59.00000,3.408217e-09,0.91888,4
506.52,61.94417,      1.38696, 11.08903,50.00000,59.00000,3.415930e-09,0.91887,4
507.719,62.06417,      1.37269, 11.11097,50.00000,59.00000,3.415930e-09,0.91887,4
508.916,62.18417,      1.35781, 11.09634,50.00000,59.00000,3.408939e-09,0.91887,4
510.102,62.30417,      1.33958, 11.09634,50.00000,59.00000,3.417089e-09,0.91887,4
511.313,62.42417,      1.32682, 11.11097,50.00000,59.00000,3.419642e-09,0.91887,4
512.5,62.54417,      1.30765, 11.11097,50.00000,59.00000,3.419642e-09,0.91887,4
513.699,62.66417,      1.29366, 11.11097,50.00000,59.00000,3.418350e-09,0.91888,4
514.913,62.78417,      1.27524, 11.11097,50.00000,59.00000,3.415902e-09,0.91887,4
516.103,62.90417,      1.25810, 11.12538,50.00000,59.00000,3.415902e-09,0.91887,4
517.294,63.02417,      1.23952, 11.15462,50.00000,59.00000,3.415050e-09,0.91887,4
518.495,63.14417,      1.22117, 11.12538,50.00000,59.00000,3.420136e-09,0.91887,4
519.686,63.26417,      1.20275, 11.15462,50.00000,59.00000,3.417578e-09,0.91886,4
520.89,63.38417,      1.18512, 11.15462,50.00000,59.00000,3.417578e-09,0.91886,4
522.086,63.50417,      1.16797, 11.15462,50.00000,59.00000,3.418287e-09,0.91887,4
523.28,63.62417,      1.15021, 11.15462,50.00000,59.00000,3.419081e-09,0.91886,4
524.478,63.74417,      1.13323, 11.15462,50.00000,59.00000,3.413375e-09,0.91886,4
525.68,63.86417,      1.11537, 11.18387,50.00000,59.00000,3.413375e-09,0.91886,4
526.883,63.98417,      1.09800, 11.15462,50.00000,59.00000,3.410905e-09,0.91886,4
528.087,64.10417,      1.07974, 11.22043,50.00000,59.00000,3.417035e-09,0.91886,4
529.28,64.22417,      1.06393, 11.20581,50.00000,59.00000,3.417620e-09,0.91886,4
530.478,64.34417,      1.04667, 11.19118,50.00000,59.00000,3.417620e-09,0.91886,4
531.675,64.46417,      1.02795, 11.22043,50.00000,59.00000,3.404714e-09,0.91886,4
532.876,64.58417,      1.00860, 11.22043,50.00000,59.00000,3.419308e-09,0.91885,4
534.073,64.70417,      0.99286, 11.25441,50.00000,59.00000,3.419308e-09,0.91885,4
535.266,64.82417,      0.97565, 11.22516,50.00000,59.00000,3.419442e-09,0.91885,4
536.475,64.94417,      0.95756, 11.22516,50.00000,59.00000,3.416427e-09,0.91885,4
537.68,65.06417,      0.93911, 11.24710,50.00000,59.00000,3.408501e-09,0.91885,4
538.883,65.18417,      0.92288, 11.24710,50.00000,59.00000,3.408501e-09,0.91885,4
540.074,65.30417,      0.90203, 11.21785,50.00000,59.00000,3.413231e-09,0.91884,4
541.28,65.42417,      0.88427, 11.23978,50.00000,59.00000,3.417950e-09,0.91884,4
542.47,65.54417,      0.86501, 11.21785,50.00000,59.00000,3.406486e-09,0.91884,4
543.677,65.66417,      0.84456, 11.21785,50.00000,59.00000,3.406486e-09,0.91884,4
544.873,65.78417,      0.82804, 11.24710,50.00000,59.00000,3.408813e-09,0.91884,4
546.071,65.90417,      0.80976, 11.24710,50.00000,59.00000,3.411729e-09,0.91883,4
547.275,66.02417,      0.78998, 11.24710,50.00000,59.00000,3.411729e-09,0.91883,4
548.481,66.14417,      0.76814, 11.24710,50.00000,59.00000,3.413629e-09,0.91883,4
549.681,66.26417,      0.75256, 11.27634,50.00000,59.00000,3.405032e-09,0.91882,4
550.874,66.38417,      0.73231, 11.24710,50.00000,59.00000,3.413000e-09,0.91882,4
552.079,66.50417,      0.71345, 11.27634,50.00000,59.00000,3.413000e-09,0.91882,4
553.292,66.62417,      0.69367, 11.27634,50.00000,59.00000,3.410865e-09,0.91882,4
554.48,66.74417,      0.67931, 11.27634,50.00000,59.00000,3.413639e-09,0.91882,4
555.69,66.86417,      0.65797, 11.29828,50.00000,59.00000,3.413639e-09,0.91882,4
556.894,66.98417,      0.64121, 11.29828,50.00000,59.00000,3.415296e-09,0.91881,4
558.091,67.10417,      0.62002, 11.26903,50.00000,59.00000,3.409698e-09,0.91881,4
559.303,67.22417,      0.60228, 11.26903,50.00000,59.00000,3.415299e-09,0.91881,4
560.5,67.34417,      0.58477, 11.26903,50.00000,59.00000,3.415299e-09,0.91881,4
561.711,67.46417,      0.56867, 11.29828,50.00000,59.00000,3.408822e-09,0.91880,4
562.911,67.58417,      0.54696, 11.30065,50.00000,59.00000,3.412771e-09,0.91879,4
564.114,67.70417,      0.52929, 11.27140,50.00000,59.00000,3.403635e-09,0.91879,4
565.318,67.82417,      0.51069, 11.30065,50.00000,59.00000,3.403635e-09,0.91879,4
566.518,67.94417,      0.49144, 11.27140,50.00000,59.00000,3.417039e-09,0.91879,4
567.727,68.06417,      0.47243, 11.27140,50.00000,59.00000,3.417421e-09,0.91878,4
568.926,68.18417,      0.45631, 11.30065,50.00000,59.00000,3.417421e-09,0.91878,4
570.125,68.30417,      0.43631, 11.30065,50.00000,59.00000,3.419677e-09,0.91878,4
571.344,68.42417,      0.41774, 11.27140,50.00000,59.00000,3.414667e-09,0.91877,4
572.541,68.54417,      0.39762, 11.30065,50.00000,59.00000,3.421510e-09,0.91877,4
573.737,68.66417,      0.37774, 11.30065,50.00000,59.00000,3.421510e-09,0.91877,4
574.945,68.78417,      0.35989, 11.30065,50.00000,59.00000,3.419936e-09,0.91876,4
576.147,68.90417,      0.33782, 11.30065,50.00000,59.00000,3.414322e-09,0.91876,4
577.346,69.02417,      0.31956, 11.30065,50.00000,59.00000,3.418223e-09,0.91876,4
578.55,69.14417,      0.29886, 11.27140,50.00000,59.00000,3.418223e-09,0.91876,4
579.746,69.26417,      0.28049, 11.28602,50.00000,59.00000,3.417596e-09,0.91875,4
580.955,69.38417,      0.25849, 11.30065,50.00000,59.00000,3.424451e-09,0.91874,4
582.161,69.50417,      0.24271, 11.32989,50.00000,59.00000,3.424451e-09,0.91874,4
583.37,69.62417,      0.22628, 11.35183,50.00000,59.00000,3.410960e-09,0.91873,4
584.564,69.74417,      0.20530, 11.32258,50.00000,59.00000,3.409315e-09,0.91873,4
585.777,69.86417,      0.18488, 11.29333,50.00000,59.00000,3.414121e-09,0.91873,4
586.975,69.98417,      0.16529, 11.32258,50.00000,59.00000,3.414121e-09,0.91873,4
588.181,70.10417,      0.14776, 11.29333,50.00000,59.00000,3.417242e-09,0.91872,4
589.387,70.22417,      0.12536, 11.32258,50.00000,59.00000,3.420966e-09,0.91871,4
590.593,70.34417,      0.10893, 11.29333,50.00000,59.00000,3.410848e-09,0.91871,4
591.79,70.46417, 9.185404e-02, 11.32258,50.00000,59.00000,3.410848e-09,0.91871,4
593.004,70.58417, 7.079901e-02, 11.32258,50.00000,59.00000,3.409423e-09,0.91870,4
594.204,70.70417, 5.301856e-02, 11.30796,50.00000,59.00000,3.414463e-09,0.91869,4
595.413,70.82417, 3.337061e-02, 11.30796,50.00000,59.00000,3.414463e-09,0.91869,4
596.522,70.93583, 1.579455e-02, 11.33720,50.00000,59.00000,3.416544e-09,0.91869,4
597.133,70.99583, 4.559193e-03, 11.31527,50.00000,59.00000,3.413926e-09,0.91868,5
597.753,71.05583, 5.778926e-03, 11.33720,50.00000,59.00000,3.413926e-09,0.91868,5
598.428,71.11583, 4.352635e-02, 11.32989,50.00000,59.00000,3.413926e-09,0.91868,5
599.159,71.17583,      0.13099, 11.31527,50.00000,59.00000,3.412580e-09,0.91867,5
599.96,71.23583,      0.27135, 11.34688,50.00000,59.00000,3.412580e-09,0.91867,5
600.853,71.29583,      0.46816, 11.37613,50.00000,59.00000,3.412580e-09,0.91867,5
601.83,71.35583,      0.70758, 11.40516,50.00000,59.00000,3.412109e-09,0.91867,5
602.877,71.41583,      0.97694, 11.43699,50.00000,59.00000,3.412109e-09,0.91867,5
604.002,71.47583,      1.25743, 11.46602,50.00000,59.00000,3.412109e-09,0.91867,5
605.17,71.53583,      1.54267, 11.46602,50.00000,59.00000,3.407457e-09,0.91866,5
606.398,71.59583,      1.81615, 11.53419,50.00000,59.00000,3.407457e-09,0.91866,5
607.655,71.65583,      2.06336, 11.56344,50.00000,59.00000,3.407457e-09,0.91866,5
608.931,71.71583,      2.28018, 11.56344,50.00000,59.00000,3.418093e-09,0.91865,5
610.236,71.77583,      2.46006, 11.56344,50.00000,59.00000,3.418093e-09,0.91865,5
611.519,71.83583,      2.60115, 11.59269,50.00000,59.00000,3.412303e-09,0.91865,5
612.807,71.89583,      2.69842, 11.62172,50.00000,59.00000,3.412303e-09,0.91865,5
614.082,71.95583,      2.75133, 11.62172,50.00000,59.00000,3.412303e-09,0.91865,5
615.34,72.01583,      2.77332, 11.62172,50.00000,59.00000,3.410309e-09,0.91863,5
616.572,72.07583,      2.76082, 11.62172,50.00000,59.00000,3.410309e-09,0.91863,5
617.79,72.13583,      2.71559, 11.62172,50.00000,59.00000,3.410309e-09,0.91863,5
618.977,72.19583,      2.65179, 11.62172,50.00000,59.00000,3.418249e-09,0.91863,5
620.136,72.25583,      2.57247, 11.62172,50.00000,59.00000,3.418249e-09,0.91863,5
621.273,72.31583,      2.47854, 11.62172,50.00000,59.00000,3.418249e-09,0.91863,5
622.396,72.37583,      2.38496, 11.62172,50.00000,59.00000,3.412710e-09,0.91862,5
623.51,72.43583,      2.28894, 11.62172,50.00000,59.00000,3.412710e-09,0.91862,5
624.611,72.49583,      2.19579, 11.62172,50.00000,59.00000,3.419961e-09,0.91862,5
625.702,72.55583,      2.11117, 11.61441,50.00000,59.00000,3.419961e-09,0.91862,5
626.787,72.61583,      2.03543, 11.59269,50.00000,59.00000,3.419961e-09,0.91862,5
627.868,72.67583,      1.97302, 11.62172,50.00000,59.00000,3.419936e-09,0.91861,5
628.957,72.73583,      1.92211, 11.62172,50.00000,59.00000,3.419936e-09,0.91861,5
630.051,72.79583,      1.88053, 11.62172,50.00000,59.00000,3.419936e-09,0.91861,5
631.138,72.85583,      1.85176, 11.62172,50.00000,59.00000,3.417910e-09,0.91860,5
632.24,72.91583,      1.83399, 11.62172,50.00000,59.00000,3.417910e-09,0.91860,5
633.358,72.97583,      1.82726, 11.62172,50.00000,59.00000,3.417910e-09,0.91860,5
634.477,73.03583,      1.82747, 11.62172,50.00000,59.00000,3.413464e-09,0.91858,5
635.621,73.09583,      1.83310, 11.65333,50.00000,59.00000,3.413464e-09,0.91858,5
636.769,73.15583,      1.84382, 11.65333,50.00000,59.00000,3.415946e-09,0.91858,5
637.917,73.21583,      1.85900, 11.65333,50.00000,59.00000,3.415946e-09,0.91858,5
639.08,73.27583,      1.87297, 11.68258,50.00000,59.00000,3.415946e-09,0.91858,5
640.237,73.33583,      1.88727, 11.68258,50.00000,59.00000,3.417466e-09,0.91857,5
641.416,73.39583,      1.90132, 11.68258,50.00000,59.00000,3.417466e-09,0.91857,5
642.591,73.45583,      1.91475, 11.71183,50.00000,59.00000,3.417466e-09,0.91857,5
643.774,73.51583,      1.92183, 11.71183,50.00000,59.00000,3.415924e-09,0.91856,5
644.963,73.57583,      1.92957, 11.71183,50.00000,59.00000,3.415924e-09,0.91856,5
646.153,73.63583,      1.93285, 11.71183,50.00000,59.00000,3.415924e-09,0.91856,5
647.347,73.69583,      1.93421, 11.68989,50.00000,59.00000,3.416586e-09,0.91855,5
648.548,73.75583,      1.92788, 11.68989,50.00000,59.00000,3.416586e-09,0.91855,5
649.732,73.81583,      1.92053, 11.71914,50.00000,59.00000,3.413157e-09,0.91855,5
650.941,73.87583,      1.91160, 11.71914,50.00000,59.00000,3.413157e-09,0.91855,5
652.135,73.93583,      1.90003, 11.71914,50.00000,59.00000,3.413157e-09,0.91855,5
653.334,73.99583,      1.88683, 11.74108,50.00000,59.00000,3.412356e-09,0.91854,5
654.531,74.05583,      1.87100, 11.74839,50.00000,59.00000,3.412356e-09,0.91854,5
655.73,74.11583,      1.85287, 11.74839,50.00000,59.00000,3.412356e-09,0.91854,5
656.941,74.17583,      1.83276, 11.74839,50.00000,59.00000,3.410259e-09,0.91853,5
658.138,74.23583,      1.81420, 11.72645,50.00000,59.00000,3.410259e-09,0.91853,5
659.332,74.29583,      1.79266, 11.75570,50.00000,59.00000,3.410259e-09,0.91853,5
660.538,74.35583,      1.77336, 11.75570,50.00000,59.00000,3.417685e-09,0.91852,5
661.734,74.41583,      1.75074, 11.75570,50.00000,59.00000,3.417685e-09,0.91852,5
662.934,74.47583,      1.73295, 11.75570,50.00000,59.00000,3.405329e-09,0.91851,5
664.143,74.53583,      1.71121, 11.75570,50.00000,59.00000,3.405329e-09,0.91851,5
665.353,74.59583,      1.69366, 11.75570,50.00000,59.00000,3.405329e-09,0.91851,5
666.555,74.65583,      1.67278, 11.75570,50.00000,59.00000,3.415024e-09,0.91850,5
667.757,74.71583,      1.65217, 11.78473,50.00000,59.00000,3.415024e-09,0.91850,5
668.958,74.77583,      1.63413, 11.78473,50.00000,59.00000,3.415024e-09,0.91850,5
670.168,74.83583,      1.61277, 11.78473,50.00000,59.00000,3.417770e-09,0.91849,5
671.377,74.89583,      1.59366, 11.78473,50.00000,59.00000,3.417770e-09,0.91849,5
672.592,74.95583,      1.57253, 11.78473,50.00000,59.00000,3.417770e-09,0.91849,5
673.798,75.01583,      1.55232, 11.78473,50.00000,59.00000,3.414392e-09,0.91848,5
675.008,75.07583,      1.53009, 11.77011,50.00000,59.00000,3.414392e-09,0.91848,5
676.221,75.13583,      1.51011, 11.77011,50.00000,59.00000,3.410914e-09,0.91847,5
677.431,75.19583,      1.48678, 11.79935,50.00000,59.00000,3.410914e-09,0.91847,5
678.656,75.25583,      1.46308, 11.82860,50.00000,59.00000,3.410914e-09,0.91847,5
679.855,75.31583,      1.43333, 11.82860,50.00000,59.00000,3.415230e-09,0.91846,5
681.075,75.37583,      1.40850, 11.82860,50.00000,59.00000,3.415230e-09,0.91846,5
682.294,75.43583,      1.38526, 11.82860,50.00000,59.00000,3.415230e-09,0.91846,5
683.509,75.49583,      1.36063, 11.82860,50.00000,59.00000,3.419456e-09,0.91845,5
684.732,75.55583,      1.33429, 11.82860,50.00000,59.00000,3.419456e-09,0.91845,5
685.955,75.61583,      1.30756, 11.82860,50.00000,59.00000,3.419456e-09,0.91845,5
687.17,75.67583,      1.27908, 11.82860,50.00000,59.00000,3.414931e-09,0.91844,5
688.388,75.73583,      1.25253, 11.82860,50.00000,59.00000,3.414931e-09,0.91844,5
689.604,75.79583,      1.21390, 11.82860,50.00000,59.00000,3.416554e-09,0.91843,5
690.828,75.85583,      1.18020, 11.85785,50.00000,59.00000,3.416554e-09,0.91843,5
692.053,75.91583,      1.16181, 11.85785,50.00000,59.00000,3.416554e-09,0.91843,5
693.268,75.97583,      1.13265, 11.85785,50.00000,59.00000,3.407797e-09,0.91842,5
694.5,76.03583,      1.09941, 11.88688,50.00000,59.00000,3.407797e-09,0.91842,5
695.713,76.09583,      1.06405, 11.88688,50.00000,59.00000,3.407797e-09,0.91842,5
696.935,76.15583,      1.03165, 11.85785,50.00000,59.00000,3.416029e-09,0.91841,5
698.162,76.21583,      0.99884, 11.85785,50.00000,59.00000,3.416029e-09,0.91841,5
699.378,76.27583,      0.96358, 11.88688,50.00000,59.00000,3.416029e-09,0.91841,5
700.597,76.33583,      0.93060, 11.88688,50.00000,59.00000,3.419178e-09,0.91840,5
701.82,76.39583,      0.89484, 11.85785,50.00000,59.00000,3.419178e-09,0.91840,5
703.04,76.45583,      0.85833, 11.85785,50.00000,59.00000,3.409831e-09,0.91839,5
704.259,76.51583,      0.82444, 11.85785,50.00000,59.00000,3.409831e-09,0.91839,5
705.479,76.57583,      0.78098, 11.85785,50.00000,59.00000,3.409831e-09,0.91839,5
706.702,76.63583,      0.74285, 11.85785,50.00000,59.00000,3.418313e-09,0.91837,5
707.922,76.69583,      0.70565, 11.88688,50.00000,59.00000,3.418313e-09,0.91837,5
709.138,76.75583,      0.66666, 11.88688,50.00000,59.00000,3.418313e-09,0.91837,5
710.366,76.81583,      0.62623, 11.91613,50.00000,59.00000,3.418401e-09,0.91837,5
711.58,76.87583,      0.58808, 11.91613,50.00000,59.00000,3.418401e-09,0.91837,5
712.811,76.93583,      0.54679, 11.91613,50.00000,59.00000,3.418401e-09,0.91837,5
714.031,76.99583,      0.50540, 11.91613,50.00000,59.00000,3.413100e-09,0.91835,5
715.254,77.05583,      0.46528, 11.91613,50.00000,59.00000,3.413100e-09,0.91835,5
716.472,77.11583,      0.42678, 11.91613,50.00000,59.00000,3.413324e-09,0.91834,5
717.687,77.17583,      0.38271, 11.91613,50.00000,59.00000,3.413324e-09,0.91834,5
718.911,77.23583,      0.34335, 11.91613,50.00000,59.00000,3.413324e-09,0.91834,5
720.136,77.29583,      0.30321, 11.94538,50.00000,59.00000,3.411069e-09,0.91833,5
721.36,77.35583,      0.25920, 11.94538,50.00000,59.00000,3.411069e-09,0.91833,5
722.579,77.41583,      0.21681, 11.94538,50.00000,59.00000,3.411069e-09,0.91833,5
723.805,77.47583,      0.17536, 11.94538,50.00000,59.00000,3.411894e-09,0.91832,5
725.037,77.53583,      0.13210, 11.94538,50.00000,59.00000,3.411894e-09,0.91832,5
726.256,77.59583, 8.666814e-02, 11.94538,50.00000,59.00000,3.411894e-09,0.91832,5
727.481,77.65583, 3.906106e-02, 11.94538,50.00000,59.00000,3.413783e-09,0.91831,5
728.701,77.71583,-6.921065e-03, 11.94538,50.00000,59.00000,3.413783e-09,0.91831,5
729.925,77.77583,-5.473669e-02, 11.94538,50.00000,59.00000,3.410477e-09,0.91829,5
731.147,77.83583,     -0.10300, 11.97462,50.00000,59.00000,3.410477e-09,0.91829,5
732.364,77.89583,     -0.15242, 11.97462,50.00000,59.00000,3.410477e-09,0.91829,5
733.592,77.95583,     -0.20090, 11.97462,50.00000,59.00000,3.415986e-09,0.91828,5
734.809,78.01583,     -0.24740, 11.97462,50.00000,59.00000,3.415986e-09,0.91828,5
736.033,78.07583,     -0.29609, 11.97462,50.00000,59.00000,3.415986e-09,0.91828,5
737.25,78.13583,     -0.34209, 12.00387,50.00000,59.00000,3.418899e-09,0.91827,5
738.464,78.19583,     -0.39728, 12.00387,50.00000,59.00000,3.418899e-09,0.91827,5
739.696,78.25583,     -0.44769, 12.00387,50.00000,59.00000,3.418899e-09,0.91827,5
740.918,78.31583,     -0.49821, 12.00387,50.00000,59.00000,3.408247e-09,0.91826,5
742.146,78.37583,     -0.54779, 11.98194,50.00000,59.00000,3.408247e-09,0.91826,5
743.363,78.43583,     -0.59467, 11.98194,50.00000,59.00000,3.418478e-09,0.91825,5
744.574,78.49583,     -0.64621, 12.01097,50.00000,59.00000,3.418478e-09,0.91825,5
745.806,78.55583,     -0.69787, 12.01097,50.00000,59.00000,3.418478e-09,0.91825,5
747.022,78.61583,     -0.74999, 12.01097,50.00000,59.00000,3.418986e-09,0.91824,5
748.257,78.67583,     -0.80082, 12.04022,50.00000,59.00000,3.418986e-09,0.91824,5
749.469,78.73583,     -0.84928, 12.04022,50.00000,59.00000,3.418986e-09,0.91824,5
750.707,78.79583,     -0.89857, 12.06946,50.00000,59.00000,3.419035e-09,0.91822,5
751.911,78.85583,     -0.94405, 12.06946,50.00000,59.00000,3.419035e-09,0.91822,5
753.14,78.91583,     -0.99920, 12.06946,50.00000,59.00000,3.419035e-09,0.91822,5
754.368,78.97583,     -1.05093, 12.04022,50.00000,59.00000,3.412888e-09,0.91821,5
755.58,79.03583,     -1.10452, 12.06946,50.00000,59.00000,3.412888e-09,0.91821,5
756.807,79.09583,     -1.15754, 12.06946,50.00000,59.00000,3.417670e-09,0.91819,5
758.033,79.15583,     -1.19859, 12.06946,50.00000,59.00000,3.417670e-09,0.91819,5
759.246,79.21583,     -1.25323, 12.06946,50.00000,59.00000,3.417670e-09,0.91819,5
760.464,79.27583,     -1.30549, 12.06946,50.00000,59.00000,3.404070e-09,0.91818,5
761.684,79.33583,     -1.35823, 12.06946,50.00000,59.00000,3.404070e-09,0.91818,5
762.91,79.39583,     -1.40895, 12.06946,50.00000,59.00000,3.404070e-09,0.91818,5
764.111,79.45583,     -1.46510, 12.09871,50.00000,59.00000,3.409143e-09,0.91817,5
765.336,79.51583,     -1.51818, 12.09871,50.00000,59.00000,3.409143e-09,0.91817,5
766.552,79.57583,     -1.57531, 12.06946,50.00000,59.00000,3.409143e-09,0.91817,5
767.763,79.63583,     -1.63004, 12.07677,50.00000,59.00000,3.409919e-09,0.91816,5
768.997,79.69583,     -1.68563, 12.09140,50.00000,59.00000,3.409919e-09,0.91816,5
770.208,79.75583,     -1.74275, 12.09140,50.00000,59.00000,3.409919e-09,0.91816,5
771.431,79.81583,     -1.80181, 12.09140,50.00000,59.00000,3.416431e-09,0.91814,5
772.643,79.87583,     -1.85414, 12.09140,50.00000,59.00000,3.416431e-09,0.91814,5
773.859,79.93583,     -1.90946, 12.09871,50.00000,59.00000,3.410356e-09,0.91813,5
775.083,79.99583,     -1.96060, 12.09871,50.00000,59.00000,3.410356e-09,0.91813,5
776.299,80.05583,     -2.01002, 12.12065,50.00000,59.00000,3.410356e-09,0.91813,5
777.518,80.11583,     -2.06642, 12.12065,50.00000,59.00000,3.413128e-09,0.91812,5
778.726,80.17583,     -2.12400, 12.12065,50.00000,59.00000,3.413128e-09,0.91812,5
779.95,80.23583,     -2.18211, 12.12065,50.00000,59.00000,3.413128e-09,0.91812,5
781.167,80.29583,     -2.23162, 12.12065,50.00000,59.00000,3.408336e-09,0.91810,5
782.382,80.35583,     -2.28885, 12.12796,50.00000,59.00000,3.408336e-09,0.91810,5
783.606,80.41583,     -2.34441, 12.15699,50.00000,59.00000,3.408336e-09,0.91810,5
784.822,80.47583,     -2.40335, 12.15699,50.00000,59.00000,3.417941e-09,0.91809,5
786.032,80.53583,     -2.45767, 12.12796,50.00000,59.00000,3.417941e-09,0.91809,5
787.261,80.59583,     -2.51214, 12.12796,50.00000,59.00000,3.408931e-09,0.91808,5
788.467,80.65583,     -2.56668, 12.15699,50.00000,59.00000,3.408931e-09,0.91808,5
789.691,80.71583,     -2.62248, 12.15699,50.00000,59.00000,            ,0.44902,5
790.904,80.77583,     -2.67178, 12.15699,50.00000,59.00000,            ,0.44854,5
792.125,80.83583,     -2.73733, 12.15699,50.00000,59.00000,            ,0.44804,5
793.339,80.89583,     -2.79493, 12.15699,50.00000,59.00000,            ,0.44756,5
794.153,80.93583,     -2.83660, 12.15699,50.00000,59.00000,            ,0.44723,5