File: data/TGA/ps_scf3_flynn_ozawa_wall/ExpDat_2025_11_18_SL_PS_Tosoh_F1_5K_min.csv
#EXPORTTYPE:                 ,DATA ALL
#FILE:                       ,2025_11_18_SL_PS_Tosoh_F1_5K_min.ngb-ss5
#FORMAT:                     ,NETZSCH5
#FTYPE:                      ,ASCII
#IDENTITY:                   ,PS_Tosoh_F1
#DECIMAL:                    ,POINT
#SEPARATOR:                  ,COMMA
#MTYPE:                      ,DSC
#INSTRUMENT:                 ,NETZSCH STA 449F5
#PROJECT:                    ,
#DATE/TIME:                  ,11/18/2025 11:26:36 AM (UTC-5)
#CORR. FILE:                 ,
#TEMPCAL:                    ,05-05-2025 14:38
#SENSITIVITY:                ,28-06-2023 13:53
#LABORATORY:                 ,Tran
#OPERATOR:                   ,Stan
#REMARK:                     ,
#SAMPLE:                     ,PS_Tosoh_F1
#SAMPLE MASS /mg:            ,4.48
#MATERIAL:                   ,
#REFERENCE:                  ,
#REFERENCE MASS /mg:         ,0
#TYPE OF CRUCIBLE:           ,Al2O3 85 ‘l, open
#SAMPLE CRUCIBLE MASS /mg:   ,0
#REFERENCE CRUCIBLE MASS /mg:,0
#DSC RANGE /‘V:              ,5000
#TG RANGE /mg:               ,35000
#TAU-R:                      ,---
#CORR. CODE:                 ,000
#EXO:                        ,-1
#RANGE:                      ,20›C....800›C/0.0....20.0K/min
#SEGMENT:                    ,S1-5/5
#SEG. 1:                     ,20›C/5.0(K/min)/100›C
#SEG. 2:                     ,100›C/00:05/100›C
#SEG. 3:                     ,100›C/10.0(K/min)/200›C
#SEG. 4:                     ,200›C/5.0(K/min)/600›C
#SEG. 5:                     ,600›C/20.0(K/min)/800›C

##Temp./›C,Time/min,DSC/(mW/mg),Mass/%,Gas Flow(purge2)/(ml/min),Gas Flow(protective)/(ml/min),TIC(scan:1)/A,Sensit./(uV/mW),Segment
 38.72400,  0.00000,      2.44404,100,50.00000,61.00000,            ,0.92492,1
 39.85200,  1.06667,      0.57824, 91.69174,50.00000,58.00000,3.379785e-09,0.92499,1
 40.33500,  2.13333,      0.15850, 89.60313,50.00000,58.00000,3.380958e-09,0.92504,1
 40.53800,  3.20000, 1.988048e-02, 89.44420,50.00000,58.00000,3.387313e-09,0.92508,1
 40.61600,  4.26667,-9.571989e-03, 89.09821,50.00000,58.00000,3.393017e-09,0.92510,1
 41.41300,  5.33333,      0.18443, 89.34062,50.00000,58.00000,3.402338e-09,0.92512,1
 43.32300,  6.40000,      0.51820, 89.97455,50.00000,58.00000,3.401712e-09,0.92513,1
 46.42500,  7.46667,      0.86960, 90.68906,50.00000,58.00000,3.409278e-09,0.92514,1
 50.65300,  8.53333,      1.21215, 91.52254,50.00000,58.00000,3.413478e-09,0.92515,1
 55.88200,  9.60000,      1.52689, 92.22455,50.00000,58.00000,3.418976e-09,0.92514,1
 61.85200, 10.66667,      1.79535, 92.86339,50.00000,58.00000,3.415924e-09,0.92515,1
 68.30200, 11.73333,      2.00459, 93.36094,50.00000,58.00000,3.421186e-09,0.92518,1
 75.02400, 12.80000,      2.16071, 93.75982,50.00000,58.00000,3.426897e-09,0.92522,1
 81.85900, 13.86667,      2.26855, 94.06295,50.00000,58.00000,3.427617e-09,0.92528,1
 88.69500, 14.93333,      2.33175, 94.25982,50.00000,58.00000,3.427719e-09,0.92537,1
 95.32400, 15.98417,      2.36670, 94.41138,50.00000,58.00000,3.428265e-09,0.92546,2
 99.81000, 16.78417,      2.22813, 94.09821,50.00000,58.00000,3.427790e-09,0.92554,2
102.887, 17.58417,      1.68154, 93.45937,50.00000,58.00000,3.424250e-09,0.92563,2
105.039, 18.38417,      1.24450, 92.95179,50.00000,58.00000,3.428651e-09,0.92572,2
106.638, 19.18417,      0.94128, 92.55290,50.00000,58.00000,3.436717e-09,0.92581,2
107.621, 19.98417,      0.64674, 92.10067,50.00000,58.00000,3.432377e-09,0.92588,2
108.055, 20.78417,      0.36975, 91.67388,50.00000,58.00000,3.436943e-09,0.92596,2
108.081, 21.06417,      0.28542, 91.55268,50.00000,58.00000,3.428432e-09,0.92599,3
108.122, 21.22417,      0.25447, 91.52254,50.00000,58.00000,3.425390e-09,0.92601,3
108.19, 21.38417,      0.25226, 91.55536,50.00000,58.00000,3.426966e-09,0.92602,3
108.337, 21.54417,      0.29175, 91.69665,50.00000,58.00000,3.431409e-09,0.92604,3
108.583, 21.70417,      0.37537, 91.94420,50.00000,58.00000,3.434953e-09,0.92605,3
108.916, 21.86417,      0.50518, 92.17411,50.00000,58.00000,3.433545e-09,0.92606,3
109.367, 22.02417,      0.66527, 92.42902,50.00000,58.00000,3.432962e-09,0.92608,3
109.932, 22.18417,      0.84806, 92.69420,50.00000,58.00000,3.431849e-09,0.92609,3
110.564, 22.34417,      1.04319, 92.96451,50.00000,58.00000,3.429742e-09,0.92610,3
111.279, 22.50417,      1.23640, 93.18415,50.00000,58.00000,3.426779e-09,0.92611,3
112.041, 22.66417,      1.42452, 93.41897,50.00000,58.00000,3.426786e-09,0.92612,3
112.862, 22.82417,      1.59608, 93.59576,50.00000,58.00000,3.438575e-09,0.92613,3
113.718, 22.98417,      1.75198, 93.75982,50.00000,58.00000,3.434255e-09,0.92614,3
114.61, 23.14417,      1.89259, 93.88103,50.00000,58.00000,3.434255e-09,0.92614,3
115.517, 23.30417,      2.01677, 94.02009,50.00000,58.00000,3.431252e-09,0.92615,3
116.474, 23.46417,      2.13086, 94.17411,50.00000,58.00000,3.434551e-09,0.92616,3
117.448, 23.62417,      2.23706, 94.31295,50.00000,58.00000,3.439709e-09,0.92617,3
118.454, 23.78417,      2.34096, 94.44174,50.00000,58.00000,3.429517e-09,0.92617,3
119.509, 23.94417,      2.44407, 94.54531,50.00000,58.00000,3.436424e-09,0.92618,3
120.613, 24.10417,      2.55161, 94.72969,50.00000,58.00000,3.428826e-09,0.92619,3
121.737, 24.26417,      2.66431, 94.88862,50.00000,58.00000,3.434447e-09,0.92619,3
122.946, 24.42417,      2.78338, 95.03772,50.00000,58.00000,3.431553e-09,0.92619,3
124.172, 24.58417,      2.90857, 95.22455,50.00000,58.00000,3.432026e-09,0.92620,3
125.477, 24.74417,      3.03793, 95.36607,50.00000,58.00000,3.435138e-09,0.92620,3
126.818, 24.90417,      3.17499, 95.54286,50.00000,58.00000,3.438376e-09,0.92620,3
128.218, 25.06417,      3.30988, 95.69420,50.00000,58.00000,3.434442e-09,0.92620,3
129.666, 25.22417,      3.44880, 95.86339,50.00000,58.00000,3.434200e-09,0.92620,3
131.151, 25.38417,      3.58275, 95.99487,50.00000,58.00000,3.435385e-09,0.92620,3
132.668, 25.54417,      3.71287, 96.13616,50.00000,58.00000,3.437611e-09,0.92620,3
134.257, 25.70417,      3.84167, 96.30804,50.00000,58.00000,3.436774e-09,0.92619,3
135.857, 25.86417,      3.96473, 96.43683,50.00000,58.00000,3.431499e-09,0.92619,3
137.484, 26.02417,      4.08003, 96.53772,50.00000,58.00000,3.436807e-09,0.92618,3
139.14, 26.18417,      4.19170, 96.63616,50.00000,58.00000,3.434946e-09,0.92618,3
140.828, 26.34417,      4.29672, 96.74732,50.00000,58.00000,3.436546e-09,0.92617,3
142.525, 26.50417,      4.39770, 96.85848,50.00000,58.00000,3.437288e-09,0.92616,3
144.266, 26.66417,      4.49224, 96.98214,50.00000,58.00000,3.433185e-09,0.92615,3
146.026, 26.82417,      4.58369, 97.04531,50.00000,58.00000,3.434636e-09,0.92614,3
147.795, 26.98417,      4.66900, 97.16897,50.00000,58.00000,3.435026e-09,0.92613,3
149.568, 27.14417,      4.75286, 97.22455,50.00000,58.00000,3.438516e-09,0.92612,3
151.38, 27.30417,      4.83197, 97.31808,50.00000,58.00000,3.439195e-09,0.92611,3
153.218, 27.46417,      4.90705, 97.39643,50.00000,58.00000,3.436299e-09,0.92609,3
155.034, 27.62417,      4.97852, 97.45692,50.00000,58.00000,3.435390e-09,0.92608,3
156.875, 27.78417,      5.04594, 97.55045,50.00000,58.00000,3.434588e-09,0.92606,3
158.754, 27.94417,      5.11220, 97.61094,50.00000,58.00000,3.431634e-09,0.92605,3
160.605, 28.10417,      5.17101, 97.70201,50.00000,58.00000,3.433122e-09,0.92603,3
162.489, 28.26417,      5.22501, 97.76496,50.00000,58.00000,3.433594e-09,0.92601,3
164.362, 28.42417,      5.27539, 97.79531,50.00000,58.00000,3.437368e-09,0.92599,3
166.243, 28.58417,      5.32239, 97.85603,50.00000,58.00000,3.437368e-09,0.92599,3
168.117, 28.74417,      5.36269, 97.88616,50.00000,58.00000,3.434351e-09,0.92597,3
170.016, 28.90417,      5.39868, 97.94687,50.00000,58.00000,3.435676e-09,0.92594,3
171.902, 29.06417,      5.42792, 98.00737,50.00000,58.00000,3.442572e-09,0.92592,3
173.787, 29.22417,      5.45349, 98.03772,50.00000,58.00000,3.434599e-09,0.92589,3
175.677, 29.38417,      5.47597, 98.06049,50.00000,58.00000,3.435023e-09,0.92587,3
177.556, 29.54417,      5.49433, 98.12121,50.00000,58.00000,3.436327e-09,0.92584,3
179.44, 29.70417,      5.50900, 98.12857,50.00000,58.00000,3.430811e-09,0.92581,3
181.34, 29.86417,      5.51866, 98.15134,50.00000,58.00000,3.439423e-09,0.92578,3
183.218, 30.02417,      5.52468, 98.18929,50.00000,58.00000,3.442898e-09,0.92575,3
185.096, 30.18417,      5.52945, 98.18929,50.00000,58.00000,3.440269e-09,0.92572,3
186.964, 30.34417,      5.53176, 98.28281,50.00000,58.00000,3.434596e-09,0.92569,3
188.825, 30.50417,      5.53007, 98.26763,50.00000,58.00000,3.432566e-09,0.92565,3
190.709, 30.66417,      5.52505, 98.29777,50.00000,58.00000,3.431853e-09,0.92562,3
192.555, 30.82417,      5.51723, 98.32812,50.00000,58.00000,3.430940e-09,0.92558,3
194.596, 31.00083,      5.50758, 98.35848,50.00000,58.00000,3.435781e-09,0.92554,4
197.014, 31.21417,      5.46982, 98.32812,50.00000,58.00000,3.437189e-09,0.92551,4
199.285, 31.42750,      5.35991, 98.29777,50.00000,58.00000,3.435385e-09,0.92543,4
201.385, 31.64083,      5.16053, 98.15647,50.00000,58.00000,3.434923e-09,0.92538,4
203.299, 31.85417,      4.89668, 98.03527,50.00000,58.00000,3.434498e-09,0.92534,4
205.038, 32.06750,      4.59724, 97.91161,50.00000,58.00000,3.437280e-09,0.92525,4
206.646, 32.28083,      4.30377, 97.78772,50.00000,58.00000,3.437114e-09,0.92520,4
208.178, 32.49417,      4.04116, 97.72723,50.00000,58.00000,3.438321e-09,0.92516,4
209.655, 32.70750,      3.82797, 97.65134,50.00000,58.00000,3.432177e-09,0.92506,4
211.127, 32.92083,      3.66475, 97.60603,50.00000,58.00000,3.434418e-09,0.92501,4
212.563, 33.13417,      3.54330, 97.60603,50.00000,58.00000,3.437941e-09,0.92495,4
213.986, 33.34750,      3.45318, 97.60603,50.00000,59.00000,3.433820e-09,0.92490,4
215.402, 33.56083,      3.37868, 97.57321,50.00000,58.00000,3.437409e-09,0.92479,4
216.776, 33.77417,      3.30152, 97.54286,50.00000,58.00000,3.430730e-09,0.92473,4
218.099, 33.98750,      3.21848, 97.52768,50.00000,59.00000,3.429733e-09,0.92467,4
219.375, 34.20083,      3.12640, 97.48973,50.00000,58.00000,3.437239e-09,0.92456,4
220.603, 34.41417,      3.02702, 97.48214,50.00000,58.00000,3.432002e-09,0.92450,4
221.772, 34.62750,      2.92130, 97.45201,50.00000,58.00000,3.434505e-09,0.92443,4
222.89, 34.84083,      2.81903, 97.39129,50.00000,58.00000,3.433566e-09,0.92437,4
223.986, 35.05417,      2.72090, 97.36094,50.00000,58.00000,3.437637e-09,0.92424,4
225.049, 35.26750,      2.63348, 97.33058,50.00000,58.00000,3.430303e-09,0.92417,4
226.083, 35.48083,      2.55783, 97.33817,50.00000,58.00000,3.438781e-09,0.92411,4
227.108, 35.69417,      2.49363, 97.30804,50.00000,58.00000,3.435861e-09,0.92397,4
228.112, 35.90750,      2.44209, 97.24732,50.00000,58.00000,3.430891e-09,0.92390,4
229.107, 36.12083,      2.39525, 97.24978,50.00000,58.00000,3.434451e-09,0.92383,4
230.094, 36.33417,      2.35815, 97.31049,50.00000,58.00000,3.434653e-09,0.92375,4
231.069, 36.54750,      2.32076, 97.28013,50.00000,58.00000,3.439859e-09,0.92360,4
232.039, 36.76083,      2.29073, 97.28013,50.00000,58.00000,3.435345e-09,0.92353,4
232.987, 36.97417,      2.26101, 97.25737,50.00000,58.00000,3.444895e-09,0.92345,4
233.94, 37.18750,      2.23387, 97.26496,50.00000,59.00000,3.438317e-09,0.92330,4
234.876, 37.40083,      2.20968, 97.26496,50.00000,59.00000,3.442616e-09,0.92322,4
235.796, 37.61417,      2.18602, 97.24219,50.00000,58.00000,3.433023e-09,0.92313,4
236.725, 37.82750,      2.16800, 97.28281,50.00000,59.00000,3.432580e-09,0.92297,4
237.66, 38.04083,      2.15218, 97.25246,50.00000,59.00000,3.442543e-09,0.92289,4
238.576, 38.25417,      2.14258, 97.23728,50.00000,58.00000,3.439729e-09,0.92280,4
239.502, 38.46750,      2.13643, 97.23728,50.00000,58.00000,3.431117e-09,0.92272,4
240.442, 38.68083,      2.13091, 97.23728,50.00000,59.00000,3.437081e-09,0.92255,4
241.352, 38.89417,      2.12897, 97.23728,50.00000,58.00000,3.443334e-09,0.92246,4
242.295, 39.10750,      2.12934, 97.23728,50.00000,58.00000,3.443607e-09,0.92237,4
243.223, 39.32083,      2.13091, 97.22969,50.00000,58.00000,3.442206e-09,0.92219,4
244.153, 39.53417,      2.13391, 97.22969,50.00000,58.00000,3.435751e-09,0.92212,4
245.094, 39.74750,      2.13837, 97.22969,50.00000,58.00000,3.436701e-09,0.92205,4
246.034, 39.96083,      2.14508, 97.22969,50.00000,58.00000,3.444534e-09,0.92198,4
246.981, 40.17417,      2.14979, 97.26004,50.00000,58.00000,3.435118e-09,0.92185,4
247.932, 40.38750,      2.15676, 97.23728,50.00000,59.00000,3.432828e-09,0.92177,4
248.868, 40.60083,      2.17129, 97.23728,50.00000,59.00000,3.438737e-09,0.92171,4
249.824, 40.81417,      2.17669, 97.23728,50.00000,59.00000,3.441057e-09,0.92157,4
250.768, 41.02750,      2.18105, 97.23728,50.00000,59.00000,3.437552e-09,0.92151,4
251.726, 41.24083,      2.18586, 97.23728,50.00000,59.00000,3.444493e-09,0.92144,4
252.704, 41.45417,      2.19053, 97.24487,50.00000,59.00000,3.442458e-09,0.92138,4
253.672, 41.66750,      2.19766, 97.24487,50.00000,59.00000,3.435492e-09,0.92125,4
254.645, 41.88083,      2.20379, 97.22969,50.00000,59.00000,3.441241e-09,0.92119,4
255.62, 42.09417,      2.20933, 97.26004,50.00000,59.00000,3.442380e-09,0.92113,4
256.605, 42.30750,      2.21655, 97.22969,50.00000,59.00000,3.446568e-09,0.92101,4
257.588, 42.52083,      2.22379, 97.22969,50.00000,59.00000,3.444979e-09,0.92096,4
258.584, 42.73417,      2.23088, 97.26004,50.00000,59.00000,3.444187e-09,0.92091,4
259.569, 42.94750,      2.23961, 97.22969,50.00000,59.00000,3.441899e-09,0.92085,4
260.57, 43.16083,      2.24612, 97.26004,50.00000,59.00000,3.433390e-09,0.92075,4
261.565, 43.37417,      2.25244, 97.22969,50.00000,59.00000,3.443980e-09,0.92070,4
262.57, 43.58750,      2.25776, 97.22969,50.00000,59.00000,3.443030e-09,0.92065,4
263.575, 43.80083,      2.26310, 97.19933,50.00000,59.00000,3.440451e-09,0.92055,4
264.58, 44.01417,      2.26949, 97.16897,50.00000,59.00000,3.436045e-09,0.92051,4
265.602, 44.22750,      2.27470, 97.16897,50.00000,59.00000,3.439781e-09,0.92047,4
266.614, 44.44083,      2.27969, 97.16652,50.00000,59.00000,3.435016e-09,0.92038,4
267.633, 44.65417,      2.28471, 97.13616,50.00000,59.00000,3.448373e-09,0.92034,4
268.661, 44.86750,      2.28873, 97.13616,50.00000,59.00000,3.434819e-09,0.92029,4
269.68, 45.08083,      2.29504, 97.10603,50.00000,59.00000,3.433145e-09,0.92025,4
270.712, 45.29417,      2.29972, 97.10603,50.00000,59.00000,3.434855e-09,0.92017,4
271.733, 45.50750,      2.30482, 97.07567,50.00000,59.00000,3.442381e-09,0.92013,4
272.769, 45.72083,      2.30745, 97.04531,50.00000,59.00000,3.435691e-09,0.92010,4
273.802, 45.93417,      2.31009, 97.01250,50.00000,59.00000,3.442920e-09,0.92002,4
274.845, 46.14750,      2.31171, 96.98214,50.00000,59.00000,3.437839e-09,0.91999,4
275.863, 46.36083,      2.31222, 96.95179,50.00000,59.00000,3.434465e-09,0.91995,4
276.915, 46.57417,      2.31641, 96.91897,50.00000,59.00000,3.434439e-09,0.91992,4
277.951, 46.78750,      2.31720, 96.88884,50.00000,59.00000,3.439611e-09,0.91984,4
278.987, 47.00083,      2.31905, 96.85848,50.00000,59.00000,3.441644e-09,0.91982,4
280.031, 47.21417,      2.32008, 96.79777,50.00000,59.00000,3.444041e-09,0.91978,4
281.075, 47.42750,      2.32154, 96.77522,50.00000,59.00000,3.440187e-09,0.91971,4
282.12, 47.64083,      2.32387, 96.70692,50.00000,59.00000,3.446977e-09,0.91968,4
283.168, 47.85417,      2.32642, 96.67656,50.00000,59.00000,3.439794e-09,0.91965,4
284.212, 48.06750,      2.32812, 96.64643,50.00000,59.00000,3.448559e-09,0.91962,4
285.25, 48.28083,      2.32960, 96.61607,50.00000,59.00000,3.440372e-09,0.91956,4
286.304, 48.49417,      2.33007, 96.55536,50.00000,59.00000,3.449391e-09,0.91953,4
287.354, 48.70750,      2.33160, 96.46205,50.00000,59.00000,3.439697e-09,0.91950,4
288.425, 48.92083,      2.33170, 96.40134,50.00000,59.00000,3.431373e-09,0.91945,4
289.462, 49.13417,      2.33342, 96.36853,50.00000,59.00000,3.438685e-09,0.91942,4
290.516, 49.34750,      2.33242, 96.30804,50.00000,59.00000,3.443155e-09,0.91939,4
291.57, 49.56083,      2.33206, 96.24732,50.00000,59.00000,3.435323e-09,0.91937,4
292.621, 49.77417,      2.33083, 96.18661,50.00000,59.00000,3.441202e-09,0.91932,4
293.669, 49.98750,      2.33218, 96.11853,50.00000,59.00000,3.442810e-09,0.91929,4
294.728, 50.20083,      2.33248, 96.02768,50.00000,59.00000,3.442912e-09,0.91927,4
295.794, 50.41417,      2.33518, 95.96696,50.00000,59.00000,3.443628e-09,0.91922,4
296.845, 50.62750,      2.33548, 95.87612,50.00000,59.00000,3.441682e-09,0.91920,4
297.895, 50.84083,      2.34333, 95.78527,50.00000,59.00000,3.439592e-09,0.91918,4
298.966, 51.05417,      2.34305, 95.66138,50.00000,59.00000,3.442586e-09,0.91916,4
300.011, 51.26750,      2.34292, 95.60089,50.00000,59.00000,3.436945e-09,0.91912,4
301.069, 51.48083,      2.34608, 95.53772,50.00000,59.00000,3.442549e-09,0.91910,4
302.119, 51.69417,      2.34771, 95.45446,50.00000,59.00000,3.443570e-09,0.91908,4
303.187, 51.90750,      2.36069, 95.34821,50.00000,59.00000,3.428687e-09,0.91905,4
304.246, 52.12083,      2.36041, 95.24732,50.00000,59.00000,3.442926e-09,0.91903,4
305.306, 52.33417,      2.35840, 95.14621,50.00000,59.00000,3.437077e-09,0.91902,4
306.366, 52.54750,      2.35857, 95.02254,50.00000,59.00000,3.440583e-09,0.91899,4
307.421, 52.76083,      2.35741, 94.90134,50.00000,59.00000,3.443964e-09,0.91898,4
308.484, 52.97417,      2.35847, 94.83326,50.00000,59.00000,3.444327e-09,0.91897,4
309.547, 53.18750,      2.35712, 94.71183,50.00000,59.00000,3.433440e-09,0.91896,4
310.623, 53.40083,      2.35690, 94.55781,50.00000,59.00000,3.435544e-09,0.91894,4
311.669, 53.61417,      2.35595, 94.46451,50.00000,59.00000,3.439527e-09,0.91893,4
312.732, 53.82750,      2.35526, 94.34063,50.00000,59.00000,3.440303e-09,0.91892,4
313.799, 54.04083,      2.35458, 94.21696,50.00000,59.00000,3.441827e-09,0.91890,4
314.854, 54.25417,      2.35343, 94.09063,50.00000,59.00000,3.454083e-09,0.91889,4
315.921, 54.46750,      2.35297, 93.96696,50.00000,59.00000,3.443982e-09,0.91889,4
316.984, 54.68083,      2.35295, 93.81295,50.00000,59.00000,3.442740e-09,0.91888,4
318.045, 54.89417,      2.35292, 93.68661,50.00000,59.00000,3.440354e-09,0.91887,4
319.109, 55.10750,      2.35202, 93.56049,50.00000,59.00000,3.436755e-09,0.91886,4
320.17, 55.32083,      2.35243, 93.35580,50.00000,59.00000,3.438674e-09,0.91886,4
321.233, 55.53417,      2.35242, 93.22701,50.00000,59.00000,3.442189e-09,0.91885,4
322.304, 55.74750,      2.35287, 93.09330,50.00000,59.00000,3.435513e-09,0.91885,4
323.372, 55.96083,      2.35265, 92.90379,50.00000,59.00000,3.439034e-09,0.91885,4
324.431, 56.17417,      2.35173, 92.74978,50.00000,59.00000,3.446339e-09,0.91885,4
325.498, 56.38750,      2.35173, 92.59576,50.00000,59.00000,3.436151e-09,0.91885,4
326.557, 56.60083,      2.35014, 92.40134,50.00000,59.00000,3.442579e-09,0.91885,4
327.612, 56.81417,      2.34899, 92.24464,50.00000,59.00000,3.438712e-09,0.91885,4
328.689, 57.02750,      2.34902, 92.03504,50.00000,59.00000,3.436300e-09,0.91885,4
329.757, 57.24083,      2.34813, 91.86339,50.00000,59.00000,3.442815e-09,0.91885,4
330.807, 57.45417,      2.34988, 91.66897,50.00000,59.00000,3.446939e-09,0.91885,4
331.872, 57.66750,      2.35010, 91.45692,50.00000,59.00000,3.441956e-09,0.91885,4
332.943, 57.88083,      2.34922, 91.25223,50.00000,59.00000,3.438921e-09,0.91885,4
334.007, 58.09417,      2.34786, 91.04509,50.00000,59.00000,3.447380e-09,0.91885,4
335.072, 58.30750,      2.35170, 90.79263,50.00000,59.00000,3.441827e-09,0.91885,4
336.143, 58.52083,      2.35240, 90.57299,50.00000,59.00000,3.441492e-09,0.91885,4
337.197, 58.73417,      2.35215, 90.34308,50.00000,59.00000,3.439310e-09,0.91884,4
338.271, 58.94750,      2.35423, 90.09821,50.00000,59.00000,3.438664e-09,0.91884,4
339.325, 59.16083,      2.35738, 89.81027,50.00000,59.00000,3.444973e-09,0.91884,4
340.394, 59.37417,      2.35491, 89.54263,50.00000,59.00000,3.446113e-09,0.91884,4
341.463, 59.58750,      2.35243, 89.24464,50.00000,59.00000,3.442423e-09,0.91884,4
342.529, 59.80083,      2.35336, 88.97701,50.00000,59.00000,3.441200e-09,0.91885,4
343.594, 60.01417,      2.35816, 88.67388,50.00000,59.00000,3.435564e-09,0.91884,4
344.651, 60.22750,      2.35724, 88.34821,50.00000,59.00000,3.439748e-09,0.91884,4
345.709, 60.44083,      2.35678, 88.08304,50.00000,59.00000,3.436131e-09,0.91884,4
346.773, 60.65417,      2.35565, 87.72701,50.00000,59.00000,3.434407e-09,0.91884,4
347.841, 60.86750,      2.35705, 87.36830,50.00000,59.00000,3.440307e-09,0.91884,4
348.907, 61.08083,      2.35638, 87.04263,50.00000,59.00000,3.439040e-09,0.91884,4
349.968, 61.29417,      2.36006, 86.70424,50.00000,59.00000,3.450077e-09,0.91883,4
351.031, 61.50750,      2.35962, 86.29509,50.00000,59.00000,3.442875e-09,0.91883,4
352.09, 61.72083,      2.36031, 85.92388,50.00000,59.00000,3.448504e-09,0.91883,4
353.175, 61.93417,      2.36178, 85.52232,50.00000,59.00000,3.443789e-09,0.91883,4
354.224, 62.14750,      2.36754, 85.09554,50.00000,59.00000,3.445310e-09,0.91883,4
355.29, 62.36083,      2.36780, 84.65112,50.00000,59.00000,3.446147e-09,0.91882,4
356.355, 62.57417,      2.37340, 84.21920,50.00000,59.00000,3.440640e-09,0.91882,4
357.413, 62.78750,      2.37504, 83.75201,50.00000,59.00000,3.435698e-09,0.91882,4
358.474, 63.00083,      2.37576, 83.26473,50.00000,59.00000,3.440111e-09,0.91882,4
359.537, 63.21417,      2.37859, 82.80000,50.00000,59.00000,3.440506e-09,0.91882,4
360.601, 63.42750,      2.38190, 82.28750,50.00000,59.00000,3.444104e-09,0.91882,4
361.673, 63.64083,      2.38430, 81.78750,50.00000,59.00000,3.442842e-09,0.91881,4
362.738, 63.85417,      2.38715, 81.21161,50.00000,59.00000,3.442768e-09,0.91881,4
363.804, 64.06750,      2.39072, 80.64353,50.00000,59.00000,3.445208e-09,0.91881,4
364.866, 64.28083,      2.39358, 80.09554,50.00000,59.00000,3.438695e-09,0.91881,4
365.926, 64.49417,      2.39527, 79.49688,50.00000,59.00000,3.445364e-09,0.91881,4
366.997, 64.70750,      2.39911, 78.89330,50.00000,59.00000,3.435692e-09,0.91880,4
368.055, 64.92083,      2.40315, 78.23170,50.00000,59.00000,3.441865e-09,0.91880,4
369.128, 65.13417,      2.40796, 77.52969,50.00000,59.00000,3.443347e-09,0.91879,4
370.186, 65.34750,      2.41463, 76.85045,50.00000,59.00000,3.437335e-09,0.91879,4
371.251, 65.56083,      2.42133, 76.17366,50.00000,59.00000,3.435086e-09,0.91878,4
372.329, 65.77417,      2.42833, 75.42612,50.00000,59.00000,3.444116e-09,0.91878,4
373.384, 65.98750,      2.43456, 74.66339,50.00000,59.00000,3.441054e-09,0.91878,4
374.443, 66.20083,      2.44344, 73.87299,50.00000,58.00000,3.435162e-09,0.91877,4
375.507, 66.41417,      2.44878, 73.02701,50.00000,58.00000,3.439510e-09,0.91877,4
376.587, 66.62750,      2.45848, 72.13304,50.00000,59.00000,3.442990e-09,0.91876,4
377.644, 66.84083,      2.46527, 71.24174,50.00000,58.00000,3.441813e-09,0.91876,4
378.692, 67.05417,      2.47371, 70.31250,50.00000,58.00000,3.437180e-09,0.91875,4
379.767, 67.26750,      2.48442, 69.33259,50.00000,58.00000,3.444490e-09,0.91874,4
380.839, 67.48083,      2.49371, 68.32991,50.00000,58.00000,3.446608e-09,0.91874,4
381.908, 67.69417,      2.50542, 67.26183,50.00000,58.00000,3.447136e-09,0.91873,4
382.973, 67.90750,      2.51209, 66.16071,50.00000,58.00000,3.443309e-09,0.91873,4
384.037, 68.12083,      2.52118, 65.02946,50.00000,58.00000,3.442772e-09,0.91872,4
385.105, 68.33417,      2.53128, 63.84754,50.00000,58.00000,3.447426e-09,0.91871,4
386.174, 68.54750,      2.54164, 62.61786,50.00000,58.00000,3.441986e-09,0.91870,4
387.227, 68.76083,      2.55053, 61.35759,50.00000,58.00000,3.437278e-09,0.91870,4
388.292, 68.97417,      2.56190, 60.00402,50.00000,58.00000,3.440214e-09,0.91869,4
389.354, 69.18750,      2.57062, 58.63036,50.00000,58.00000,3.444521e-09,0.91869,4
390.423, 69.40083,      2.58157, 57.25156,50.00000,58.00000,3.445227e-09,0.91868,4
391.493, 69.61417,      2.59037, 55.72366,50.00000,58.00000,3.450783e-09,0.91867,4
392.548, 69.82750,      2.60060, 54.25402,50.00000,58.00000,3.439494e-09,0.91866,4
393.606, 70.04083,      2.61086, 52.65536,50.00000,58.00000,3.449607e-09,0.91865,4
394.678, 70.25417,      2.61998, 51.08460,50.00000,58.00000,3.438422e-09,0.91864,4
395.744, 70.46750,      2.62592, 49.40290,50.00000,58.00000,3.443492e-09,0.91864,4
396.813, 70.68083,      2.63041, 47.70335,50.00000,58.00000,3.447961e-09,0.91863,4
397.872, 70.89417,      2.63390, 45.98103,50.00000,58.00000,3.443859e-09,0.91862,4
398.936, 71.10750,      2.63397, 44.22344,50.00000,58.00000,3.442088e-09,0.91861,4
400.006, 71.32083,      2.63259, 42.35223,50.00000,58.00000,3.435863e-09,0.91860,4
401.062, 71.53417,      2.62893, 40.52634,50.00000,58.00000,3.451988e-09,0.91859,4
402.137, 71.74750,      2.62138, 38.71071,50.00000,58.00000,3.442708e-09,0.91858,4
403.199, 71.96083,      2.60783, 36.80402,50.00000,58.00000,3.448440e-09,0.91857,4
404.268, 72.17417,      2.59401, 34.90000,50.00000,58.00000,3.440226e-09,0.91856,4
405.327, 72.38750,      2.57888, 32.99598,50.00000,58.00000,3.448645e-09,0.91855,4
406.396, 72.60083,      2.55530, 31.07165,50.00000,58.00000,3.442414e-09,0.91854,4
407.467, 72.81417,      2.52867, 29.20781,50.00000,58.00000,3.449798e-09,0.91853,4
408.53, 73.02750,      2.49697, 27.32411,50.00000,58.00000,3.445886e-09,0.91851,4
409.595, 73.24083,      2.46094, 25.42254,50.00000,58.00000,3.443402e-09,0.91850,4
410.659, 73.45417,      2.42031, 23.56897,50.00000,58.00000,3.443154e-09,0.91849,4
411.734, 73.66750,      2.37085, 21.81629,50.00000,58.00000,3.443236e-09,0.91849,4
412.795, 73.88083,      2.31920, 20.09397,50.00000,58.00000,3.450585e-09,0.91847,4
413.856, 74.09417,      2.26063, 18.40714,50.00000,58.00000,3.448594e-09,0.91846,4
414.924, 74.30750,      2.20241, 16.82634,50.00000,58.00000,3.436470e-09,0.91845,4
416.012, 74.52083,      2.13579, 15.33393,50.00000,59.00000,3.444735e-09,0.91843,4
417.063, 74.73417,      2.06333, 13.87433,50.00000,58.00000,3.441882e-09,0.91842,4
418.131, 74.94750,      1.98794, 12.55603,50.00000,58.00000,3.442318e-09,0.91841,4
419.206, 75.16083,      1.90780, 11.37679,50.00000,58.00000,3.449152e-09,0.91839,4
420.268, 75.37417,      1.82512, 10.26808,50.00000,58.00000,3.436399e-09,0.91838,4
421.331, 75.58750,      1.74144,  9.22768,50.00000,59.00000,3.448688e-09,0.91837,4
422.394, 75.80083,      1.65575,  8.30335,50.00000,59.00000,3.444213e-09,0.91836,4
423.46, 76.01417,      1.57438,  7.49531,50.00000,59.00000,3.442145e-09,0.91834,4
424.541, 76.22750,      1.48950,  6.76540,50.00000,59.00000,3.448422e-09,0.91833,4
425.602, 76.44083,      1.40408,  6.10893,50.00000,59.00000,3.440528e-09,0.91831,4
426.681, 76.65417,      1.32125,  5.48013,50.00000,58.00000,3.440614e-09,0.91829,4
427.741, 76.86750,      1.24324,  4.94464,50.00000,58.00000,3.442860e-09,0.91828,4
428.808, 77.08083,      1.16809,  4.51027,50.00000,59.00000,3.443447e-09,0.91827,4
429.867, 77.29417,      1.09578,  4.13661,50.00000,59.00000,3.448938e-09,0.91825,4
430.941, 77.50750,      1.03046,  3.76027,50.00000,59.00000,3.449111e-09,0.91823,4
432.01, 77.72083,      0.97316,  3.46228,50.00000,59.00000,3.445933e-09,0.91822,4
433.083, 77.93417,      0.91723,  3.20737,50.00000,59.00000,3.449197e-09,0.91821,4
434.148, 78.14750,      0.86422,  2.91183,50.00000,58.00000,3.445039e-09,0.91819,4
435.206, 78.36083,      0.81905,  2.74018,50.00000,58.00000,3.433956e-09,0.91817,4
436.273, 78.57417,      0.77556,  2.49263,50.00000,58.00000,3.439570e-09,0.91816,4
437.33, 78.78750,      0.73736,  2.36138,50.00000,58.00000,3.442443e-09,0.91813,4
438.397, 79.00083,      0.70087,  2.17188,50.00000,58.00000,3.445568e-09,0.91812,4
439.467, 79.21417,      0.66610,  2.04308,50.00000,58.00000,3.450283e-09,0.91811,4
440.539, 79.42750,      0.63019,  1.87902,50.00000,59.00000,3.440429e-09,0.91808,4
441.6, 79.64083,      0.59546,  1.78817,50.00000,59.00000,3.437415e-09,0.91806,4
442.661, 79.85417,      0.55881,  1.67188,50.00000,59.00000,3.447320e-09,0.91806,4
443.726, 80.06750,      0.52492,  1.58616,50.00000,59.00000,3.452519e-09,0.91804,4
444.797, 80.28083,      0.49539,  1.50781,50.00000,59.00000,3.443511e-09,0.91801,4
445.854, 80.49417,      0.46575,  1.41696,50.00000,59.00000,3.437249e-09,0.91800,4
446.919, 80.70750,      0.44023,  1.35625,50.00000,58.00000,3.439848e-09,0.91799,4
447.982, 80.92083,      0.41043,  1.32589,50.00000,58.00000,3.442101e-09,0.91796,4
449.046, 81.13417,      0.38291,  1.29576,50.00000,58.00000,3.449357e-09,0.91795,4
450.107, 81.34750,      0.36084,  1.23504,50.00000,58.00000,3.449246e-09,0.91793,4
451.177, 81.56083,      0.33475,  1.25781,50.00000,58.00000,3.443939e-09,0.91790,4
452.238, 81.77417,      0.31228,  1.25781,50.00000,58.00000,3.452012e-09,0.91789,4
453.318, 81.98750,      0.28764,  1.25781,50.00000,58.00000,3.451201e-09,0.91787,4
454.38, 82.20083,      0.26556,  1.25781,50.00000,58.00000,3.444935e-09,0.91786,4
455.443, 82.41417,      0.24607,  1.25781,50.00000,58.00000,3.449149e-09,0.91783,4
456.497, 82.62750,      0.22706,  1.25781,50.00000,59.00000,3.445004e-09,0.91782,4
457.577, 82.84083,      0.20507,  1.28058,50.00000,58.00000,3.438654e-09,0.91780,4
458.648, 83.05417,      0.18302,  1.28058,50.00000,58.00000,3.444183e-09,0.91777,4
459.701, 83.26750,      0.15956,  1.28817,50.00000,58.00000,3.441826e-09,0.91776,4
460.765, 83.48083,      0.13738,  1.28817,50.00000,58.00000,3.449650e-09,0.91774,4
461.838, 83.69417,      0.11460,  1.31830,50.00000,58.00000,3.441352e-09,0.91773,4
462.882, 83.90750, 9.523448e-02,  1.31830,50.00000,59.00000,3.445563e-09,0.91769,4
463.951, 84.12083, 7.527765e-02,  1.31830,50.00000,59.00000,3.449643e-09,0.91768,4
465.017, 84.33417, 5.794646e-02,  1.31830,50.00000,59.00000,3.444509e-09,0.91766,4
466.07, 84.54750, 4.029674e-02,  1.34866,50.00000,59.00000,3.449055e-09,0.91764,4
467.143, 84.76083, 2.071505e-02,  1.34866,50.00000,59.00000,3.439906e-09,0.91762,4
468.2, 84.97417, 3.502237e-03,  1.34866,50.00000,58.00000,3.441956e-09,0.91760,4
469.275, 85.18750,-1.321950e-02,  1.35625,50.00000,58.00000,3.446712e-09,0.91759,4
470.335, 85.40083,-3.187929e-02,  1.40179,50.00000,58.00000,3.437993e-09,0.91756,4
471.401, 85.61417,-4.923894e-02,  1.37143,50.00000,58.00000,3.441209e-09,0.91754,4
472.479, 85.82750,-6.691930e-02,  1.40179,50.00000,58.00000,3.441396e-09,0.91752,4
473.544, 86.04083,-8.763267e-02,  1.40179,50.00000,58.00000,3.441634e-09,0.91749,4
474.613, 86.25417,     -0.10895,  1.42455,50.00000,58.00000,3.448695e-09,0.91748,4
475.681, 86.46750,     -0.13168,  1.43192,50.00000,58.00000,3.449034e-09,0.91746,4
476.742, 86.68083,     -0.15285,  1.42455,50.00000,58.00000,3.445478e-09,0.91744,4
477.813, 86.89417,     -0.17352,  1.45469,50.00000,58.00000,3.443933e-09,0.91741,4
478.881, 87.10750,     -0.19289,  1.46987,50.00000,58.00000,3.450152e-09,0.91739,4
479.948, 87.32083,     -0.21779,  1.47232,50.00000,58.00000,3.449455e-09,0.91738,4
481.007, 87.53417,     -0.23918,  1.47232,50.00000,58.00000,3.442170e-09,0.91734,4
482.081, 87.74750,     -0.25927,  1.50268,50.00000,58.00000,3.446942e-09,0.91732,4
483.15, 87.96083,     -0.27804,  1.48750,50.00000,58.00000,3.446495e-09,0.91731,4
484.202, 88.17417,     -0.30071,  1.48750,50.00000,58.00000,3.435122e-09,0.91727,4
485.261, 88.38750,     -0.32592,  1.47232,50.00000,58.00000,3.441161e-09,0.91726,4
486.333, 88.60083,     -0.34762,  1.50268,50.00000,58.00000,3.445742e-09,0.91724,4
487.393, 88.81417,     -0.36523,  1.50268,50.00000,58.00000,3.439969e-09,0.91722,4
488.467, 89.02750,     -0.38428,  1.50268,50.00000,58.00000,3.437121e-09,0.91719,4
489.534, 89.24083,     -0.40282,  1.53304,50.00000,58.00000,3.442897e-09,0.91717,4
490.608, 89.45417,     -0.42086,  1.53304,50.00000,58.00000,3.444982e-09,0.91715,4
491.675, 89.66750,     -0.43755,  1.53304,50.00000,58.00000,3.444980e-09,0.91712,4
492.744, 89.88083,     -0.45847,  1.53304,50.00000,58.00000,3.454897e-09,0.91710,4
493.808, 90.09417,     -0.47832,  1.56339,50.00000,58.00000,3.443479e-09,0.91708,4
494.871, 90.30750,     -0.50046,  1.56339,50.00000,58.00000,3.448241e-09,0.91704,4
495.94, 90.52083,     -0.52629,  1.53304,50.00000,58.00000,3.436830e-09,0.91703,4
497.008, 90.73417,     -0.54604,  1.56339,50.00000,58.00000,3.445855e-09,0.91701,4
498.073, 90.94750,     -0.56947,  1.56339,50.00000,58.00000,3.440400e-09,0.91699,4
499.148, 91.16083,     -0.59270,  1.59375,50.00000,58.00000,3.434831e-09,0.91696,4
500.204, 91.37417,     -0.61233,  1.57857,50.00000,58.00000,3.446940e-09,0.91694,4
501.284, 91.58750,     -0.63314,  1.59375,50.00000,58.00000,3.436557e-09,0.91692,4
502.339, 91.80083,     -0.65372,  1.58616,50.00000,58.00000,3.440785e-09,0.91688,4
503.403, 92.01417,     -0.67322,  1.58616,50.00000,58.00000,3.443056e-09,0.91686,4
504.479, 92.22750,     -0.68912,  1.58616,50.00000,58.00000,3.436939e-09,0.91685,4
505.547, 92.44083,     -0.71070,  1.61629,50.00000,58.00000,3.439189e-09,0.91683,4
506.623, 92.65417,     -0.73320,  1.65179,50.00000,58.00000,3.434603e-09,0.91679,4
507.68, 92.86750,     -0.75631,  1.64420,50.00000,58.00000,3.444246e-09,0.91677,4
508.75, 93.08083,     -0.77778,  1.61384,50.00000,58.00000,3.441556e-09,0.91675,4
509.818, 93.29417,     -0.79960,  1.61384,50.00000,58.00000,3.446399e-09,0.91672,4
510.889, 93.50750,     -0.82005,  1.64420,50.00000,58.00000,3.445987e-09,0.91670,4
511.96, 93.72083,     -0.83941,  1.64420,50.00000,58.00000,3.447802e-09,0.91668,4
513.028, 93.93417,     -0.85939,  1.64420,50.00000,58.00000,3.443522e-09,0.91664,4
514.084, 94.14750,     -0.87940,  1.61384,50.00000,58.00000,3.434071e-09,0.91662,4
515.159, 94.36083,     -0.90407,  1.64420,50.00000,58.00000,3.446567e-09,0.91660,4
516.226, 94.57417,     -0.92593,  1.64420,50.00000,58.00000,3.446976e-09,0.91658,4
517.29, 94.78750,     -0.94812,  1.65938,50.00000,58.00000,3.453174e-09,0.91654,4
518.361, 95.00083,     -0.96837,  1.67455,50.00000,58.00000,3.450138e-09,0.91653,4
519.426, 95.21417,     -0.98664,  1.66696,50.00000,58.00000,3.456406e-09,0.91651,4
520.507, 95.42750,     -1.00585,  1.67455,50.00000,58.00000,3.441042e-09,0.91646,4
521.565, 95.64083,     -1.02334,  1.70737,50.00000,58.00000,3.437868e-09,0.91645,4
522.647, 95.85417,     -1.04322,  1.67701,50.00000,58.00000,3.436902e-09,0.91643,4
523.712, 96.06750,     -1.06950,  1.67701,50.00000,58.00000,3.441458e-09,0.91641,4
524.77, 96.28083,     -1.09351,  1.67701,50.00000,58.00000,3.445309e-09,0.91637,4
525.836, 96.49417,     -1.11498,  1.70737,50.00000,58.00000,3.446762e-09,0.91635,4
526.903, 96.70750,     -1.13708,  1.70737,50.00000,58.00000,3.445689e-09,0.91633,4
527.964, 96.92083,     -1.15312,  1.71987,50.00000,58.00000,3.445269e-09,0.91629,4
529.034, 97.13417,     -1.17213,  1.68951,50.00000,58.00000,3.448613e-09,0.91627,4
530.115, 97.34750,     -1.19295,  1.75022,50.00000,58.00000,3.445233e-09,0.91625,4
531.179, 97.56083,     -1.21087,  1.73504,50.00000,58.00000,3.438773e-09,0.91621,4
532.237, 97.77417,     -1.23351,  1.75022,50.00000,58.00000,3.445371e-09,0.91619,4
533.314, 97.98750,     -1.25447,  1.75022,50.00000,58.00000,3.448129e-09,0.91617,4
534.379, 98.20083,     -1.27576,  1.75781,50.00000,58.00000,3.445427e-09,0.91615,4
535.445, 98.41417,     -1.29622,  1.75781,50.00000,58.00000,3.441809e-09,0.91611,4
536.512, 98.62750,     -1.31467,  1.75781,50.00000,58.00000,3.450036e-09,0.91609,4
537.587, 98.84083,     -1.33082,  1.75781,50.00000,58.00000,3.439387e-09,0.91607,4
538.659, 99.05417,     -1.34760,  1.78817,50.00000,58.00000,3.446618e-09,0.91603,4
539.734, 99.26750,     -1.36530,  1.75781,50.00000,58.00000,3.443234e-09,0.91600,4
540.808, 99.48083,     -1.38954,  1.81830,50.00000,58.00000,3.440330e-09,0.91599,4
541.864, 99.69417,     -1.40938,  1.78817,50.00000,57.00000,3.442697e-09,0.91596,4
542.94, 99.90750,     -1.42988,  1.80335,50.00000,57.00000,3.445085e-09,0.91592,4
544.001,100.121,     -1.44685,  1.80335,50.00000,57.00000,3.444363e-09,0.91590,4
545.061,100.334,     -1.46564,  1.83348,50.00000,57.00000,3.445507e-09,0.91588,4
546.142,100.547,     -1.48391,  1.86384,50.00000,57.00000,3.441710e-09,0.91584,4
547.206,100.761,     -1.49922,  1.86384,50.00000,57.00000,3.444524e-09,0.91581,4
548.269,100.974,     -1.51694,  1.86384,50.00000,57.00000,3.442487e-09,0.91579,4
549.338,101.188,     -1.53412,  1.86384,50.00000,57.00000,3.440588e-09,0.91575,4
550.413,101.401,     -1.55224,  1.88661,50.00000,57.00000,3.444661e-09,0.91572,4
551.473,101.614,     -1.57426,  1.89174,50.00000,57.00000,3.445364e-09,0.91570,4
552.541,101.828,     -1.59156,  1.89174,50.00000,57.00000,3.453271e-09,0.91568,4
553.607,102.041,     -1.60709,  1.89174,50.00000,57.00000,3.455980e-09,0.91564,4
554.682,102.254,     -1.62658,  1.92188,50.00000,57.00000,3.452325e-09,0.91561,4
555.754,102.468,     -1.64399,  1.90670,50.00000,57.00000,3.446145e-09,0.91560,4
556.812,102.681,     -1.65992,  1.90670,50.00000,57.00000,3.443885e-09,0.91555,4
557.878,102.894,     -1.67438,  1.93705,50.00000,57.00000,3.445293e-09,0.91553,4
558.959,103.108,     -1.68830,  1.93705,50.00000,57.00000,3.445966e-09,0.91551,4
560.045,103.321,     -1.70498,  1.90670,50.00000,57.00000,3.442055e-09,0.91548,4
561.101,103.534,     -1.72315,  1.93705,50.00000,57.00000,3.445506e-09,0.91544,4
562.165,103.748,     -1.74349,  1.93705,50.00000,57.00000,3.446774e-09,0.91542,4
563.222,103.961,     -1.76357,  1.93705,50.00000,57.00000,3.440142e-09,0.91539,4
564.299,104.174,     -1.78008,  1.96741,50.00000,57.00000,3.443137e-09,0.91535,4
565.364,104.388,     -1.79477,  1.96741,50.00000,57.00000,3.441165e-09,0.91532,4
566.445,104.601,     -1.80983,  1.96741,50.00000,57.00000,3.452414e-09,0.91530,4
567.508,104.814,     -1.82550,  1.96741,50.00000,57.00000,3.443750e-09,0.91528,4
568.573,105.028,     -1.84242,  1.98750,50.00000,57.00000,3.448736e-09,0.91523,4
569.628,105.241,     -1.85875,  2.00268,50.00000,57.00000,3.450205e-09,0.91521,4
570.71,105.454,     -1.87424,  2.00268,50.00000,57.00000,3.449773e-09,0.91518,4
571.777,105.668,     -1.88882,  2.01027,50.00000,57.00000,3.447305e-09,0.91513,4
572.847,105.881,     -1.90619,  1.97991,50.00000,57.00000,3.451595e-09,0.91511,4
573.921,106.094,     -1.92054,  1.97991,50.00000,57.00000,3.447133e-09,0.91509,4
574.985,106.308,     -1.93797,  2.01027,50.00000,57.00000,3.447970e-09,0.91504,4
576.054,106.521,     -1.95483,  2.01027,50.00000,57.00000,3.443957e-09,0.91502,4
577.123,106.734,     -1.96925,  2.01027,50.00000,57.00000,3.446813e-09,0.91499,4
578.192,106.948,     -1.98617,  2.01027,50.00000,57.00000,3.451736e-09,0.91497,4
579.267,107.161,     -2.00129,  2.01027,50.00000,57.00000,3.445283e-09,0.91492,4
580.338,107.374,     -2.01426,  2.01027,50.00000,57.00000,3.443729e-09,0.91489,4
581.41,107.588,     -2.03314,  2.04063,50.00000,57.00000,3.449706e-09,0.91487,4
582.48,107.801,     -2.04523,  2.04063,50.00000,57.00000,3.454421e-09,0.91482,4
583.55,108.014,     -2.06294,  2.01027,50.00000,57.00000,3.449774e-09,0.91479,4
584.627,108.228,     -2.07914,  2.01786,50.00000,57.00000,3.449721e-09,0.91476,4
585.697,108.441,     -2.10002,  2.01786,50.00000,57.00000,3.450709e-09,0.91474,4
586.759,108.654,     -2.11407,  2.03304,50.00000,57.00000,3.445050e-09,0.91469,4
587.83,108.868,     -2.12848,  2.00268,50.00000,57.00000,3.453969e-09,0.91467,4
588.912,109.081,     -2.14482,  2.00268,50.00000,57.00000,3.445621e-09,0.91464,4
589.975,109.294,     -2.16052,  2.00268,50.00000,58.00000,3.449046e-09,0.91459,4
591.039,109.507,     -2.17907,  2.00268,50.00000,58.00000,3.453390e-09,0.91456,4
592.117,109.721,     -2.19863,  2.00268,50.00000,58.00000,3.447057e-09,0.91454,4
593.179,109.934,     -2.21253,  2.00268,50.00000,58.00000,3.449778e-09,0.91448,4
594.254,110.147,     -2.22838,  1.97991,50.00000,58.00000,3.445845e-09,0.91446,4
595.321,110.361,     -2.24487,  1.97991,50.00000,58.00000,3.449725e-09,0.91443,4
596.396,110.574,     -2.26173,  2.00536,50.00000,58.00000,3.450267e-09,0.91441,4
597.463,110.787,     -2.27796,  1.97500,50.00000,58.00000,3.450146e-09,0.91436,4
598.321,110.957,     -2.29180,  2.00536,50.00000,58.00000,3.447950e-09,0.91433,5
598.743,111.037,     -2.29571,  2.00536,50.00000,58.00000,3.447950e-09,0.91433,5
599.261,111.118,     -2.20279,  2.03549,50.00000,58.00000,3.442931e-09,0.91430,5
599.951,111.198,     -1.90224,  2.00536,50.00000,58.00000,3.442931e-09,0.91430,5
600.842,111.278,     -1.41247,  2.06585,50.00000,58.00000,3.446713e-09,0.91427,5
601.981,111.358,     -0.73741,  2.09621,50.00000,58.00000,3.446713e-09,0.91427,5
603.294,111.438, 5.939466e-02,  2.16183,50.00000,58.00000,3.442699e-09,0.91425,5
604.78,111.517,      0.91018,  2.19219,50.00000,58.00000,3.442699e-09,0.91425,5
606.409,111.597,      1.74486,  2.25536,50.00000,58.00000,3.452002e-09,0.91422,5
608.134,111.677,      2.50708,  2.32098,50.00000,58.00000,3.452002e-09,0.91422,5
609.903,111.757,      3.14943,  2.35134,50.00000,58.00000,3.438587e-09,0.91419,5
611.682,111.838,      3.64456,  2.38147,50.00000,58.00000,3.438587e-09,0.91419,5
613.427,111.918,      3.98084,  2.44464,50.00000,58.00000,3.445050e-09,0.91417,5
615.153,111.998,      4.16609,  2.37902,50.00000,58.00000,3.445050e-09,0.91417,5
616.812,112.078,      4.21020,  2.43973,50.00000,58.00000,3.442232e-09,0.91414,5
618.418,112.157,      4.14216,  2.43973,50.00000,58.00000,3.442232e-09,0.91414,5
619.953,112.237,      3.98302,  2.43973,50.00000,58.00000,3.442232e-09,0.91414,5
621.422,112.317,      3.77383,  2.43973,50.00000,58.00000,3.445469e-09,0.91411,5
622.853,112.397,      3.53205,  2.43973,50.00000,58.00000,3.445469e-09,0.91411,5
624.251,112.478,      3.28713,  2.41696,50.00000,58.00000,3.436425e-09,0.91408,5
625.618,112.558,      3.06089,  2.41696,50.00000,58.00000,3.436425e-09,0.91408,5
626.989,112.638,      2.86983,  2.41696,50.00000,58.00000,3.445645e-09,0.91405,5
628.347,112.718,      2.71144,  2.41696,50.00000,58.00000,3.445645e-09,0.91405,5
629.727,112.797,      2.60099,  2.44710,50.00000,58.00000,3.448395e-09,0.91402,5
631.112,112.877,      2.53046,  2.44710,50.00000,58.00000,3.448395e-09,0.91402,5
632.52,112.957,      2.50172,  2.46987,50.00000,58.00000,3.441204e-09,0.91400,5
633.962,113.037,      2.50544,  2.46987,50.00000,58.00000,3.441204e-09,0.91400,5
635.429,113.118,      2.53814,  2.46987,50.00000,58.00000,3.448603e-09,0.91397,5
636.924,113.198,      2.59205,  2.46987,50.00000,58.00000,3.448603e-09,0.91397,5
638.425,113.278,      2.65108,  2.47746,50.00000,58.00000,3.441124e-09,0.91394,5
639.964,113.358,      2.71170,  2.50781,50.00000,58.00000,3.441124e-09,0.91394,5
641.519,113.438,      2.76625,  2.51540,50.00000,58.00000,3.442107e-09,0.91391,5
643.073,113.517,      2.81598,  2.53817,50.00000,58.00000,3.442107e-09,0.91391,5
644.647,113.597,      2.85496,  2.53817,50.00000,58.00000,3.436359e-09,0.91389,5
646.232,113.677,      2.87581,  2.53817,50.00000,58.00000,3.436359e-09,0.91389,5
647.814,113.757,      2.88837,  2.56830,50.00000,58.00000,3.450550e-09,0.91386,5
649.401,113.838,      2.88697,  2.56830,50.00000,58.00000,3.450550e-09,0.91386,5
650.994,113.918,      2.87121,  2.56830,50.00000,58.00000,3.449141e-09,0.91382,5
652.584,113.998,      2.84701,  2.59866,50.00000,58.00000,3.449141e-09,0.91382,5
654.16,114.078,      2.81129,  2.59866,50.00000,58.00000,3.442164e-09,0.91380,5
655.76,114.157,      2.77919,  2.62902,50.00000,58.00000,3.442164e-09,0.91380,5
657.35,114.237,      2.73788,  2.62902,50.00000,58.00000,3.439929e-09,0.91377,5
658.939,114.317,      2.69776,  2.65179,50.00000,58.00000,3.439929e-09,0.91377,5
660.525,114.397,      2.65479,  2.64420,50.00000,58.00000,3.439689e-09,0.91374,5
662.12,114.478,      2.61068,  2.64420,50.00000,58.00000,3.439689e-09,0.91374,5
663.711,114.558,      2.56912,  2.65938,50.00000,58.00000,3.444834e-09,0.91371,5
665.318,114.638,      2.52575,  2.65938,50.00000,58.00000,3.444834e-09,0.91371,5
666.92,114.718,      2.48526,  2.68214,50.00000,58.00000,3.439922e-09,0.91369,5
668.52,114.797,      2.44905,  2.68973,50.00000,58.00000,3.439922e-09,0.91369,5
670.129,114.877,      2.40899,  2.68973,50.00000,58.00000,3.436648e-09,0.91366,5
671.748,114.957,      2.37187,  2.68973,50.00000,58.00000,3.436648e-09,0.91366,5
673.366,115.037,      2.32644,  2.68973,50.00000,58.00000,3.436648e-09,0.91366,5
674.981,115.118,      2.28801,  2.68973,50.00000,58.00000,3.442230e-09,0.91363,5
676.609,115.198,      2.24743,  2.71987,50.00000,58.00000,3.442230e-09,0.91363,5
678.219,115.278,      2.20153,  2.71987,50.00000,58.00000,3.446952e-09,0.91360,5
679.85,115.358,      2.15791,  2.71987,50.00000,58.00000,3.446952e-09,0.91360,5
681.476,115.438,      2.10967,  2.72746,50.00000,59.00000,3.439363e-09,0.91357,5
683.097,115.517,      2.06023,  2.75022,50.00000,58.00000,3.439363e-09,0.91357,5
684.73,115.597,      2.00891,  2.75022,50.00000,59.00000,3.433709e-09,0.91354,5
686.362,115.677,      1.95674,  2.78058,50.00000,59.00000,3.433709e-09,0.91354,5
687.996,115.757,      1.90785,  2.78058,50.00000,59.00000,3.447680e-09,0.91351,5
689.632,115.838,      1.85188,  2.78058,50.00000,59.00000,3.447680e-09,0.91351,5
691.262,115.918,      1.79745,  2.78058,50.00000,59.00000,3.437610e-09,0.91348,5
692.898,115.998,      1.74180,  2.78058,50.00000,59.00000,3.437610e-09,0.91348,5
694.52,116.078,      1.68805,  2.81094,50.00000,59.00000,3.434524e-09,0.91345,5
696.161,116.157,      1.63101,  2.81094,50.00000,59.00000,3.434524e-09,0.91345,5
697.8,116.237,      1.57728,  2.81094,50.00000,59.00000,3.443117e-09,0.91342,5
699.426,116.317,      1.51566,  2.81094,50.00000,59.00000,3.443117e-09,0.91342,5
701.068,116.397,      1.46263,  2.84107,50.00000,59.00000,3.441561e-09,0.91339,5
702.71,116.478,      1.40312,  2.84107,50.00000,59.00000,3.441561e-09,0.91339,5
704.348,116.558,      1.34271,  2.84107,50.00000,59.00000,3.449052e-09,0.91336,5
705.983,116.638,      1.28808,  2.84107,50.00000,59.00000,3.449052e-09,0.91336,5
707.626,116.718,      1.23189,  2.84107,50.00000,59.00000,3.440818e-09,0.91333,5
709.259,116.797,      1.16598,  2.87143,50.00000,59.00000,3.440818e-09,0.91333,5
710.895,116.877,      1.10482,  2.90179,50.00000,59.00000,3.446900e-09,0.91330,5
712.538,116.957,      1.04312,  2.90179,50.00000,59.00000,3.446900e-09,0.91330,5
714.179,117.037,      0.98016,  2.90179,50.00000,59.00000,3.445161e-09,0.91327,5
715.821,117.118,      0.92021,  2.90179,50.00000,59.00000,3.445161e-09,0.91327,5
717.449,117.198,      0.85971,  2.90179,50.00000,59.00000,3.447770e-09,0.91324,5
719.091,117.278,      0.79797,  2.91696,50.00000,59.00000,3.447770e-09,0.91324,5
720.727,117.358,      0.73033,  2.92455,50.00000,59.00000,3.440260e-09,0.91321,5
722.358,117.438,      0.63570,  2.92455,50.00000,59.00000,3.440260e-09,0.91321,5
724.005,117.517,      0.57477,  2.92455,50.00000,59.00000,3.450207e-09,0.91318,5
725.63,117.597,      0.51293,  2.92455,50.00000,59.00000,3.450207e-09,0.91318,5
727.277,117.677,      0.45379,  2.96228,50.00000,59.00000,3.440156e-09,0.91314,5
728.913,117.757,      0.39123,  2.96228,50.00000,59.00000,3.440156e-09,0.91314,5
730.558,117.838,      0.32489,  2.96228,50.00000,59.00000,3.441107e-09,0.91311,5
732.193,117.918,      0.25979,  2.96228,50.00000,59.00000,3.441107e-09,0.91311,5
733.821,117.998,      0.18872,  2.99263,50.00000,59.00000,3.446343e-09,0.91308,5
735.468,118.078,      0.12323,  2.96228,50.00000,59.00000,3.446343e-09,0.91308,5
737.101,118.157, 5.319996e-02,  2.98504,50.00000,59.00000,3.446343e-09,0.91308,5
738.738,118.237,-1.304767e-02,  2.99263,50.00000,59.00000,3.438033e-09,0.91305,5
740.378,118.317,-8.130469e-02,  2.99263,50.00000,59.00000,3.438033e-09,0.91305,5
742.013,118.397,     -0.14794,  3.02299,50.00000,59.00000,3.443454e-09,0.91302,5
743.648,118.478,     -0.21369,  3.00022,50.00000,59.00000,3.443454e-09,0.91302,5
745.287,118.558,     -0.28217,  3.01540,50.00000,59.00000,3.441833e-09,0.91299,5
746.928,118.638,     -0.34757,  3.03058,50.00000,59.00000,3.441833e-09,0.91299,5
748.56,118.718,     -0.41791,  3.03058,50.00000,58.00000,3.438870e-09,0.91295,5
750.194,118.797,     -0.48882,  3.06094,50.00000,58.00000,3.438870e-09,0.91295,5
751.83,118.877,     -0.55627,  3.06094,50.00000,58.00000,3.444993e-09,0.91292,5
753.464,118.957,     -0.62502,  3.09107,50.00000,58.00000,3.444993e-09,0.91292,5
755.1,119.037,     -0.69397,  3.09107,50.00000,58.00000,3.441398e-09,0.91289,5
756.738,119.118,     -0.76275,  3.09107,50.00000,58.00000,3.441398e-09,0.91289,5
758.367,119.198,     -0.83209,  3.09866,50.00000,58.00000,3.441483e-09,0.91286,5
759.998,119.278,     -0.89793,  3.11384,50.00000,58.00000,3.441483e-09,0.91286,5
761.628,119.358,     -0.96693,  3.11384,50.00000,58.00000,3.436394e-09,0.91282,5
763.269,119.438,     -1.03502,  3.12143,50.00000,58.00000,3.436394e-09,0.91282,5
764.896,119.517,     -1.10478,  3.12143,50.00000,58.00000,3.439248e-09,0.91280,5
766.524,119.597,     -1.17994,  3.12143,50.00000,58.00000,3.439248e-09,0.91280,5
768.156,119.677,     -1.24974,  3.15179,50.00000,58.00000,3.439589e-09,0.91276,5
769.782,119.757,     -1.32047,  3.18214,50.00000,58.00000,3.439589e-09,0.91276,5
771.418,119.838,     -1.39217,  3.18214,50.00000,58.00000,3.441036e-09,0.91272,5
773.052,119.918,     -1.45847,  3.15179,50.00000,58.00000,3.441036e-09,0.91272,5
774.675,119.998,     -1.53243,  3.18214,50.00000,58.00000,3.440484e-09,0.91270,5
776.306,120.078,     -1.59874,  3.18214,50.00000,58.00000,3.440484e-09,0.91270,5
777.938,120.157,     -1.66899,  3.18214,50.00000,58.00000,3.443625e-09,0.91266,5
779.563,120.237,     -1.73982,  3.18214,50.00000,58.00000,3.443625e-09,0.91266,5
781.187,120.317,     -1.80896,  3.18214,50.00000,58.00000,3.439987e-09,0.91263,5
782.822,120.397,     -1.87983,  3.18214,50.00000,58.00000,3.439987e-09,0.91263,5
784.46,120.478,     -1.94750,  3.21228,50.00000,58.00000,3.444508e-09,0.91260,5
786.084,120.558,     -2.01044,  3.21228,50.00000,58.00000,3.444508e-09,0.91260,5
787.72,120.638,     -2.08304,  3.24263,50.00000,58.00000,3.445395e-09,0.91257,5
789.342,120.718,     -2.14635,  3.24263,50.00000,58.00000,            ,0.44916,5
790.974,120.797,     -2.22012,  3.24263,50.00000,58.00000,            ,0.44851,5
792.602,120.877,     -2.29104,  3.27299,50.00000,58.00000,            ,0.44785,5
793.815,120.938,     -2.34074,  3.27299,50.00000,58.00000,            ,0.44737,5