File: data/TGA/ps_scf3_flynn_ozawa_wall/ExpDat_2025_11_18_SL_PS_005D-L1_2K_min.csv
#EXPORTTYPE:                 ,DATA ALL
#FILE:                       ,2025_11_18_SL_PS_005D-L1_2K_min.ngb-ss5
#FORMAT:                     ,NETZSCH5
#FTYPE:                      ,ASCII
#IDENTITY:                   ,PS-005d-L1
#DECIMAL:                    ,POINT
#SEPARATOR:                  ,COMMA
#MTYPE:                      ,DSC
#INSTRUMENT:                 ,NETZSCH STA 449F5
#PROJECT:                    ,PS
#DATE/TIME:                  ,11/22/2025 5:31:24 PM (UTC-5)
#CORR. FILE:                 ,
#TEMPCAL:                    ,05-05-2025 14:38
#SENSITIVITY:                ,28-06-2023 13:53
#LABORATORY:                 ,Tran
#OPERATOR:                   ,Stan
#REMARK:                     ,
#SAMPLE:                     ,PS-005d-L1
#SAMPLE MASS /mg:            ,1.85
#MATERIAL:                   ,
#REFERENCE:                  ,
#REFERENCE MASS /mg:         ,0
#TYPE OF CRUCIBLE:           ,Al2O3 85 ‘l, open
#SAMPLE CRUCIBLE MASS /mg:   ,0
#REFERENCE CRUCIBLE MASS /mg:,0
#DSC RANGE /‘V:              ,5000
#TG RANGE /mg:               ,35000
#TAU-R:                      ,---
#CORR. CODE:                 ,000
#EXO:                        ,-1
#RANGE:                      ,20›C....800›C/0.0....20.0K/min
#SEGMENT:                    ,S1-5/5
#SEG. 1:                     ,20›C/5.0(K/min)/100›C
#SEG. 2:                     ,100›C/00:05/100›C
#SEG. 3:                     ,100›C/10.0(K/min)/200›C
#SEG. 4:                     ,200›C/2.0(K/min)/600›C
#SEG. 5:                     ,600›C/20.0(K/min)/800›C

##Temp./›C,Time/min,DSC/(mW/mg),Mass/%,Gas Flow(purge2)/(ml/min),Gas Flow(protective)/(ml/min),TIC(scan:1)/A,Sensit./(uV/mW),Segment
 39.81000,  0.00000,      1.55855,100,50.00000,63.00000,            ,0.92506,1
 41.22600,  1.26667,      0.67885, 98.39784,50.00000,63.00000,3.255758e-09,0.92514,1
 41.72300,  2.53333,      0.13817, 96.41027,50.00000,63.00000,3.253902e-09,0.92520,1
 41.61900,  3.80000,     -0.18943, 95.05243,50.00000,63.00000,3.265490e-09,0.92524,1
 41.77200,  5.06667, 6.730094e-02, 95.27892,50.00000,63.00000,3.263778e-09,0.92526,1
 43.46700,  6.33333,      0.99952, 97.04649,50.00000,63.00000,3.268275e-09,0.92528,1
 46.86400,  7.60000,      2.05988, 99.23568,50.00000,64.00000,3.273566e-09,0.92528,1
 51.87800,  8.86667,      3.10708,101.688,50.00000,64.00000,3.275195e-09,0.92527,1
 58.25600, 10.13333,      4.03584,103.834,50.00000,64.00000,3.277900e-09,0.92526,1
 65.63100, 11.40000,      4.77572,105.535,50.00000,64.00000,3.273670e-09,0.92526,1
 73.55700, 12.66667,      5.31361,106.904,50.00000,64.00000,3.288944e-09,0.92529,1
 81.71400, 13.93333,      5.66071,107.761,50.00000,64.00000,3.287795e-09,0.92534,1
 89.89800, 15.20000,      5.85078,108.39,50.00000,64.00000,3.290702e-09,0.92542,1
 97.04900, 16.33417,      5.85761,108.494,50.00000,64.00000,3.288455e-09,0.92551,2
101.579, 17.28417,      4.67977,106.855,50.00000,64.00000,3.288675e-09,0.92559,2
104.496, 18.23417,      3.28266,105.455,50.00000,64.00000,3.297275e-09,0.92569,2
106.565, 19.18417,      2.36955,104.287,50.00000,64.00000,3.294470e-09,0.92578,2
107.755, 20.13417,      1.47782,103.051,50.00000,64.00000,3.294701e-09,0.92589,2
108.159, 20.96417,      0.77154,101.926,50.00000,64.00000,3.291245e-09,0.92596,3
108.191, 21.15417,      0.64408,101.779,50.00000,64.00000,3.294507e-09,0.92598,3
108.261, 21.34417,      0.60235,101.779,50.00000,64.00000,3.289280e-09,0.92599,3
108.426, 21.53417,      0.69979,102.085,50.00000,64.00000,3.295318e-09,0.92601,3
108.736, 21.72417,      0.95574,102.752,50.00000,64.00000,3.298536e-09,0.92602,3
109.172, 21.91417,      1.35816,103.479,50.00000,64.00000,3.294389e-09,0.92605,3
109.76, 22.10417,      1.86137,104.128,50.00000,64.00000,3.292957e-09,0.92606,3
110.472, 22.29417,      2.42103,104.843,50.00000,64.00000,3.304827e-09,0.92608,3
111.306, 22.48417,      2.98827,105.491,50.00000,64.00000,3.296091e-09,0.92609,3
112.21, 22.67417,      3.52806,106.061,50.00000,64.00000,3.293402e-09,0.92610,3
113.173, 22.86417,      4.01164,106.562,50.00000,64.00000,3.293010e-09,0.92611,3
114.183, 23.05417,      4.44707,107.002,50.00000,64.00000,3.297742e-09,0.92613,3
115.238, 23.24417,      4.82577,107.418,50.00000,64.00000,3.294789e-09,0.92614,3
116.34, 23.43417,      5.15763,107.73,50.00000,64.00000,3.292531e-09,0.92615,3
117.478, 23.62417,      5.46600,108.066,50.00000,64.00000,3.300106e-09,0.92616,3
118.657, 23.81417,      5.77477,108.482,50.00000,64.00000,3.289734e-09,0.92617,3
119.911, 24.00417,      6.08359,108.91,50.00000,64.00000,3.292505e-09,0.92617,3
121.228, 24.19417,      6.40735,109.454,50.00000,64.00000,3.297558e-09,0.92618,3
122.614, 24.38417,      6.76239,109.797,50.00000,64.00000,3.297201e-09,0.92619,3
124.078, 24.57417,      7.13528,110.304,50.00000,64.00000,3.295217e-09,0.92619,3
125.61, 24.76417,      7.52700,110.732,50.00000,64.00000,3.299662e-09,0.92620,3
127.215, 24.95417,      7.92906,111.246,50.00000,64.00000,3.302631e-09,0.92620,3
128.896, 25.14417,      8.33435,111.65,50.00000,64.00000,3.298085e-09,0.92620,3
130.638, 25.33417,      8.73653,112.035,50.00000,64.00000,3.302011e-09,0.92620,3
132.446, 25.52417,      9.13298,112.469,50.00000,64.00000,3.301439e-09,0.92620,3
134.295, 25.71417,      9.50958,112.861,50.00000,64.00000,3.295732e-09,0.92620,3
136.177, 25.90417,      9.86175,113.191,50.00000,64.00000,3.298501e-09,0.92620,3
138.119, 26.09417,     10.20143,113.484,50.00000,64.00000,3.299089e-09,0.92619,3
140.095, 26.28417,     10.52305,113.87,50.00000,64.00000,3.294951e-09,0.92619,3
142.127, 26.47417,     10.81626,114.2,50.00000,64.00000,3.296996e-09,0.92618,3
144.166, 26.66417,     11.10307,114.426,50.00000,64.00000,3.298703e-09,0.92617,3
146.249, 26.85417,     11.37414,114.708,50.00000,64.00000,3.296572e-09,0.92616,3
148.35, 27.04417,     11.63066,114.909,50.00000,64.00000,3.302628e-09,0.92615,3
150.484, 27.23417,     11.86814,115.184,50.00000,64.00000,3.300589e-09,0.92614,3
152.656, 27.42417,     12.09712,115.331,50.00000,64.00000,3.298592e-09,0.92613,3
154.82, 27.61417,     12.31636,115.631,50.00000,64.00000,3.297469e-09,0.92612,3
157.013, 27.80417,     12.51876,115.863,50.00000,64.00000,3.295562e-09,0.92610,3
159.237, 27.99417,     12.70754,116.083,50.00000,64.00000,3.299035e-09,0.92607,3
161.437, 28.18417,     12.87300,116.23,50.00000,64.00000,3.292997e-09,0.92605,3
163.68, 28.37417,     13.03728,116.377,50.00000,64.00000,3.298409e-09,0.92604,3
165.907, 28.56417,     13.18052,116.524,50.00000,64.00000,3.296229e-09,0.92602,3
168.155, 28.75417,     13.30432,116.713,50.00000,64.00000,3.299663e-09,0.92600,3
170.405, 28.94417,     13.42142,116.823,50.00000,64.00000,3.297324e-09,0.92598,3
172.64, 29.13417,     13.52098,116.97,50.00000,64.00000,3.301748e-09,0.92595,3
174.901, 29.32417,     13.60560,117.043,50.00000,64.00000,3.298537e-09,0.92591,3
177.147, 29.51417,     13.67811,117.19,50.00000,64.00000,3.293537e-09,0.92588,3
179.394, 29.70417,     13.74232,117.264,50.00000,65.00000,3.295388e-09,0.92585,3
181.637, 29.89417,     13.79395,117.318,50.00000,65.00000,3.298506e-09,0.92583,3
183.883, 30.08417,     13.83626,117.41,50.00000,65.00000,3.294853e-09,0.92580,3
186.115, 30.27417,     13.86390,117.484,50.00000,65.00000,3.300940e-09,0.92577,3
188.33, 30.46417,     13.88612,117.563,50.00000,65.00000,3.294028e-09,0.92570,3
190.56, 30.65417,     13.89572,117.637,50.00000,65.00000,3.297279e-09,0.92567,3
192.771, 30.84417,     13.89791,117.71,50.00000,65.00000,3.295521e-09,0.92563,3
196.672, 31.18417,     13.81759,117.71,50.00000,65.00000,3.295594e-09,0.92556,4
201.294, 31.65917,     12.58356,116.878,50.00000,65.00000,3.294941e-09,0.92544,4
204.578, 32.13417,     10.15792,115.668,50.00000,65.00000,3.307814e-09,0.92531,4
207.029, 32.60917,      7.93383,114.805,50.00000,65.00000,3.296723e-09,0.92517,4
209.179, 33.08417,      6.59534,114.359,50.00000,65.00000,3.297225e-09,0.92508,4
211.237, 33.55917,      5.86602,114.065,50.00000,65.00000,3.297053e-09,0.92492,4
213.016, 34.03417,      5.21955,113.772,50.00000,65.00000,3.295331e-09,0.92475,4
214.458, 34.50917,      4.42604,113.331,50.00000,65.00000,3.292158e-09,0.92458,4
215.568, 34.98417,      3.60262,112.995,50.00000,65.00000,3.299538e-09,0.92439,4
216.436, 35.45917,      2.91138,112.555,50.00000,65.00000,3.298132e-09,0.92419,4
217.161, 35.93417,      2.42676,112.329,50.00000,65.00000,3.296221e-09,0.92399,4
217.818, 36.40917,      2.09516,112.108,50.00000,65.00000,3.306670e-09,0.92377,4
218.401, 36.88417,      1.84625,111.888,50.00000,65.00000,3.300789e-09,0.92362,4
218.911, 37.35917,      1.63977,111.742,50.00000,65.00000,3.299940e-09,0.92339,4
219.378, 37.83417,      1.48696,111.595,50.00000,65.00000,3.294839e-09,0.92315,4
219.81, 38.30917,      1.38740,111.448,50.00000,65.00000,3.303346e-09,0.92290,4
220.268, 38.78417,      1.34030,111.369,50.00000,65.00000,3.298942e-09,0.92264,4
220.74, 39.25917,      1.33846,111.295,50.00000,65.00000,3.295717e-09,0.92237,4
221.21, 39.73417,      1.35060,111.222,50.00000,65.00000,3.300629e-09,0.92214,4
221.698, 40.20917,      1.38641,111.222,50.00000,65.00000,3.299266e-09,0.92193,4
222.224, 40.68417,      1.43387,111.148,50.00000,65.00000,3.300760e-09,0.92173,4
222.773, 41.15917,      1.49493,111.075,50.00000,65.00000,3.298410e-09,0.92159,4
223.361, 41.63417,      1.56576,111.075,50.00000,65.00000,3.296629e-09,0.92140,4
223.967, 42.10917,      1.63429,111.075,50.00000,65.00000,3.298984e-09,0.92122,4
224.622, 42.58417,      1.70732,111.002,50.00000,65.00000,3.292853e-09,0.92104,4
225.297, 43.05917,      1.77709,111.038,50.00000,65.00000,3.295878e-09,0.92088,4
225.997, 43.53417,      1.84264,111.02,50.00000,65.00000,3.296251e-09,0.92073,4
226.714, 44.00917,      1.90782,110.946,50.00000,65.00000,3.296010e-09,0.92058,4
227.473, 44.48417,      1.96928,110.946,50.00000,65.00000,3.292933e-09,0.92045,4
228.256, 44.95917,      2.02410,111.02,50.00000,65.00000,3.304843e-09,0.92036,4
229.039, 45.43417,      2.07511,110.928,50.00000,65.00000,3.294152e-09,0.92024,4
229.864, 45.90917,      2.12435,110.928,50.00000,65.00000,3.292627e-09,0.92012,4
230.695, 46.38417,      2.16735,110.946,50.00000,65.00000,3.294881e-09,0.92000,4
231.556, 46.85917,      2.20319,110.928,50.00000,65.00000,3.290063e-09,0.91990,4
232.413, 47.33417,      2.23325,110.91,50.00000,65.00000,3.294529e-09,0.91979,4
233.291, 47.80917,      2.26242,110.928,50.00000,66.00000,3.297704e-09,0.91969,4
234.17, 48.28417,      2.28483,110.855,50.00000,66.00000,3.297090e-09,0.91959,4
235.077, 48.75917,      2.30782,110.891,50.00000,66.00000,3.300626e-09,0.91950,4
236.004, 49.23417,      2.32603,110.818,50.00000,66.00000,3.292377e-09,0.91944,4
236.904, 49.70917,      2.34567,110.818,50.00000,66.00000,3.301398e-09,0.91937,4
237.83, 50.18417,      2.36150,110.891,50.00000,66.00000,3.302941e-09,0.91929,4
238.759, 50.65917,      2.36610,110.873,50.00000,66.00000,3.295611e-09,0.91921,4
239.689, 51.13417,      2.36876,110.799,50.00000,66.00000,3.298890e-09,0.91915,4
240.618, 51.60917,      2.37142,110.799,50.00000,66.00000,3.299493e-09,0.91910,4
241.559, 52.08417,      2.37412,110.799,50.00000,66.00000,3.300111e-09,0.91904,4
242.488, 52.55917,      2.37582,110.855,50.00000,66.00000,3.295503e-09,0.91900,4
243.443, 53.03417,      2.37759,110.781,50.00000,66.00000,3.295795e-09,0.91897,4
244.4, 53.50917,      2.37741,110.708,50.00000,66.00000,3.289395e-09,0.91893,4
245.321, 53.98417,      2.37369,110.781,50.00000,66.00000,3.294101e-09,0.91890,4
246.283, 54.45917,      2.37204,110.708,50.00000,66.00000,3.296067e-09,0.91888,4
247.229, 54.93417,      2.36739,110.726,50.00000,66.00000,3.293108e-09,0.91886,4
248.171, 55.40917,      2.35828,110.726,50.00000,66.00000,3.299089e-09,0.91884,4
249.131, 55.88417,      2.35168,110.653,50.00000,66.00000,3.296379e-09,0.91882,4
250.088, 56.35917,      2.34753,110.635,50.00000,66.00000,3.297806e-09,0.91883,4
251.033, 56.83417,      2.33989,110.726,50.00000,66.00000,3.293837e-09,0.91882,4
251.972, 57.30917,      2.33073,110.653,50.00000,66.00000,3.298271e-09,0.91883,4
252.936, 57.78417,      2.32062,110.708,50.00000,66.00000,3.297879e-09,0.91882,4
253.876, 58.25917,      2.31045,110.708,50.00000,66.00000,3.297358e-09,0.91882,4
254.833, 58.73417,      2.30378,110.653,50.00000,66.00000,3.299557e-09,0.91882,4
255.787, 59.20917,      2.29411,110.653,50.00000,66.00000,3.294963e-09,0.91882,4
256.735, 59.68417,      2.28491,110.653,50.00000,66.00000,3.298638e-09,0.91882,4
257.69, 60.15917,      2.27721,110.671,50.00000,66.00000,3.295294e-09,0.91881,4
258.633, 60.63417,      2.26447,110.671,50.00000,66.00000,3.297315e-09,0.91881,4
259.585, 61.10917,      2.25874,110.616,50.00000,66.00000,3.292861e-09,0.91881,4
260.541, 61.58417,      2.24599,110.69,50.00000,66.00000,3.303213e-09,0.91881,4
261.485, 62.05917,      2.23370,110.665,50.00000,66.00000,3.298919e-09,0.91880,4
262.43, 62.53417,      2.22742,110.665,50.00000,66.00000,3.296807e-09,0.91880,4
263.398, 63.00917,      2.22219,110.665,50.00000,66.00000,3.296555e-09,0.91879,4
264.333, 63.48417,      2.21386,110.738,50.00000,66.00000,3.303842e-09,0.91879,4
265.299, 63.95917,      2.20105,110.629,50.00000,66.00000,3.294489e-09,0.91878,4
266.242, 64.43417,      2.18615,110.659,50.00000,66.00000,3.296956e-09,0.91877,4
267.197, 64.90917,      2.17075,110.732,50.00000,66.00000,3.289713e-09,0.91876,4
268.133, 65.38417,      2.15831,110.732,50.00000,66.00000,3.290324e-09,0.91876,4
269.087, 65.85917,      2.14993,110.732,50.00000,66.00000,3.296110e-09,0.91875,4
270.035, 66.33417,      2.14558,110.585,50.00000,66.00000,3.298803e-09,0.91874,4
270.994, 66.80917,      2.13770,110.659,50.00000,66.00000,3.296237e-09,0.91873,4
271.944, 67.28417,      2.13029,110.659,50.00000,66.00000,3.293971e-09,0.91871,4
272.895, 67.75917,      2.11374,110.659,50.00000,66.00000,3.297819e-09,0.91870,4
273.839, 68.23417,      2.09866,110.659,50.00000,66.00000,3.297380e-09,0.91868,4
274.785, 68.70917,      2.08864,110.659,50.00000,66.00000,3.304644e-09,0.91867,4
275.73, 69.18417,      2.07759,110.659,50.00000,66.00000,3.292925e-09,0.91865,4
276.693, 69.65917,      2.06605,110.732,50.00000,66.00000,3.296417e-09,0.91864,4
277.639, 70.13417,      2.05547,110.659,50.00000,66.00000,3.296697e-09,0.91861,4
278.583, 70.60917,      2.04027,110.659,50.00000,66.00000,3.294796e-09,0.91860,4
279.531, 71.08417,      2.02761,110.659,50.00000,66.00000,3.294581e-09,0.91857,4
280.483, 71.55917,      2.01442,110.641,50.00000,66.00000,3.298052e-09,0.91855,4
281.429, 72.03417,      2.00632,110.622,50.00000,66.00000,3.292646e-09,0.91853,4
282.378, 72.50917,      1.99667,110.702,50.00000,66.00000,3.293884e-09,0.91851,4
283.341, 72.98417,      1.98755,110.702,50.00000,66.00000,3.295983e-09,0.91848,4
284.301, 73.45917,      1.97223,110.702,50.00000,66.00000,3.287452e-09,0.91845,4
285.234, 73.93417,      1.95425,110.702,50.00000,66.00000,3.292729e-09,0.91843,4
286.185, 74.40917,      1.93472,110.629,50.00000,67.00000,3.292388e-09,0.91840,4
287.129, 74.88417,      1.92030,110.574,50.00000,66.00000,3.299113e-09,0.91837,4
288.078, 75.35917,      1.91207,110.677,50.00000,67.00000,3.290222e-09,0.91834,4
289.039, 75.83417,      1.90177,110.622,50.00000,66.00000,3.295945e-09,0.91831,4
289.974, 76.30917,      1.88778,110.622,50.00000,67.00000,3.298324e-09,0.91828,4
290.922, 76.78417,      1.86912,110.567,50.00000,67.00000,3.293074e-09,0.91825,4
291.87, 77.25917,      1.85405,110.494,50.00000,67.00000,3.289895e-09,0.91821,4
292.824, 77.73417,      1.84520,110.512,50.00000,67.00000,3.290729e-09,0.91818,4
293.762, 78.20917,      1.82954,110.585,50.00000,67.00000,3.294757e-09,0.91815,4
294.709, 78.68417,      1.81907,110.512,50.00000,67.00000,3.291115e-09,0.91811,4
295.653, 79.15917,      1.81170,110.457,50.00000,67.00000,3.293299e-09,0.91807,4
296.627, 79.63417,      1.80229,110.439,50.00000,67.00000,3.295404e-09,0.91804,4
297.554, 80.10917,      1.78754,110.384,50.00000,67.00000,3.294345e-09,0.91799,4
298.512, 80.58417,      1.76760,110.457,50.00000,67.00000,3.296982e-09,0.91795,4
299.458, 81.05917,      1.75439,110.421,50.00000,67.00000,3.296546e-09,0.91791,4
300.408, 81.53417,      1.73959,110.347,50.00000,67.00000,3.295658e-09,0.91788,4
301.347, 82.00917,      1.72369,110.347,50.00000,67.00000,3.283637e-09,0.91784,4
302.31, 82.48417,      1.70413,110.274,50.00000,67.00000,3.290509e-09,0.91780,4
303.248, 82.95917,      1.68868,110.274,50.00000,67.00000,3.296116e-09,0.91775,4
304.192, 83.43417,      1.67479,110.201,50.00000,67.00000,3.296848e-09,0.91771,4
305.138, 83.90917,      1.66403,110.127,50.00000,67.00000,3.290041e-09,0.91766,4
306.093, 84.38417,      1.65116,110.054,50.00000,67.00000,3.289050e-09,0.91761,4
307.04, 84.85917,      1.63561,109.962,50.00000,67.00000,3.295508e-09,0.91758,4
308.004, 85.33417,      1.62323,110.017,50.00000,67.00000,3.293974e-09,0.91754,4
308.939, 85.80917,      1.60494,109.944,50.00000,67.00000,3.289478e-09,0.91749,4
309.889, 86.28417,      1.58505,109.944,50.00000,67.00000,3.290756e-09,0.91744,4
310.84, 86.75917,      1.57254,109.797,50.00000,67.00000,3.301450e-09,0.91740,4
311.787, 87.23417,      1.56107,109.705,50.00000,67.00000,3.289101e-09,0.91734,4
312.743, 87.70917,      1.54639,109.632,50.00000,67.00000,3.291880e-09,0.91729,4
313.672, 88.18417,      1.53163,109.558,50.00000,67.00000,3.292524e-09,0.91724,4
314.646, 88.65917,      1.51852,109.558,50.00000,67.00000,3.291569e-09,0.91719,4
315.598, 89.13417,      1.50428,109.411,50.00000,67.00000,3.288105e-09,0.91716,4
316.548, 89.60917,      1.48251,109.32,50.00000,67.00000,3.293338e-09,0.91711,4
317.499, 90.08417,      1.46231,109.283,50.00000,67.00000,3.293681e-09,0.91706,4
318.445, 90.55917,      1.44204,109.204,50.00000,67.00000,3.288793e-09,0.91700,4
319.405, 91.03417,      1.43141,109.057,50.00000,67.00000,3.289763e-09,0.91694,4
320.337, 91.50917,      1.42071,108.983,50.00000,67.00000,3.291036e-09,0.91689,4
321.3, 91.98417,      1.40144,108.83,50.00000,67.00000,3.295655e-09,0.91684,4
322.246, 92.45917,      1.38101,108.739,50.00000,67.00000,3.290230e-09,0.91678,4
323.192, 92.93417,      1.36323,108.592,50.00000,67.00000,3.296932e-09,0.91675,4
324.146, 93.40917,      1.34381,108.501,50.00000,67.00000,3.290339e-09,0.91670,4
325.096, 93.88417,      1.33298,108.28,50.00000,67.00000,3.294291e-09,0.91664,4
326.049, 94.35917,      1.31780,108.182,50.00000,67.00000,3.285320e-09,0.91658,4
326.989, 94.83417,      1.29877,108.036,50.00000,67.00000,3.294499e-09,0.91653,4
327.94, 95.30917,      1.27917,107.889,50.00000,67.00000,3.296799e-09,0.91647,4
328.887, 95.78417,      1.25844,107.742,50.00000,67.00000,3.293183e-09,0.91641,4
329.836, 96.25917,      1.23929,107.516,50.00000,67.00000,3.300021e-09,0.91636,4
330.779, 96.73417,      1.22281,107.369,50.00000,67.00000,3.298004e-09,0.91629,4
331.739, 97.20917,      1.20577,107.149,50.00000,67.00000,3.291323e-09,0.91625,4
332.681, 97.68417,      1.19139,107.002,50.00000,67.00000,3.292744e-09,0.91619,4
333.634, 98.15917,      1.17208,106.757,50.00000,67.00000,3.296303e-09,0.91614,4
334.577, 98.63417,      1.15380,106.537,50.00000,67.00000,3.291949e-09,0.91607,4
335.523, 99.10917,      1.13657,106.305,50.00000,67.00000,3.286486e-09,0.91601,4
336.481, 99.58417,      1.12261,106.085,50.00000,67.00000,3.296291e-09,0.91595,4
337.439,100.059,      1.10203,105.791,50.00000,67.00000,3.293548e-09,0.91589,4
338.393,100.534,      1.08470,105.498,50.00000,67.00000,3.299528e-09,0.91582,4
339.336,101.009,      1.06620,105.186,50.00000,67.00000,3.291057e-09,0.91578,4
340.284,101.484,      1.05373,104.965,50.00000,67.00000,3.293590e-09,0.91571,4
341.232,101.959,      1.03350,104.599,50.00000,67.00000,3.297647e-09,0.91565,4
342.177,102.434,      1.01323,104.293,50.00000,67.00000,3.294391e-09,0.91558,4
343.141,102.909,      0.99182,103.926,50.00000,67.00000,3.292381e-09,0.91552,4
344.083,103.384,      0.97919,103.486,50.00000,67.00000,3.287659e-09,0.91546,4
345.03,103.859,      0.96210,103.119,50.00000,67.00000,3.295640e-09,0.91538,4
345.976,104.334,      0.94053,102.746,50.00000,67.00000,3.291312e-09,0.91532,4
346.927,104.809,      0.92280,102.336,50.00000,67.00000,3.293175e-09,0.91527,4
347.866,105.284,      0.90391,101.829,50.00000,67.00000,3.296151e-09,0.91521,4
348.828,105.759,      0.87998,101.309,50.00000,67.00000,3.290275e-09,0.91513,4
349.764,106.234,      0.87101,100.856,50.00000,67.00000,3.289149e-09,0.91506,4
350.718,106.709,      0.85646,100.391,50.00000,67.00000,3.294273e-09,0.91499,4
351.665,107.184,      0.83852, 99.87135,50.00000,67.00000,3.292625e-09,0.91492,4
352.629,107.659,      0.82726, 99.26595,50.00000,67.00000,3.296284e-09,0.91485,4
353.58,108.134,      0.80924, 98.67297,50.00000,67.00000,3.300823e-09,0.91477,4
354.518,108.609,      0.78723, 98.06162,50.00000,67.00000,3.293797e-09,0.91469,4
355.468,109.084,      0.76799, 97.38865,50.00000,67.00000,3.294980e-09,0.91465,4
356.424,109.559,      0.74815, 96.69784,50.00000,67.00000,3.294911e-09,0.91457,4
357.377,110.034,      0.73332, 96.00054,50.00000,67.00000,3.295561e-09,0.91449,4
358.324,110.509,      0.71394, 95.34000,50.00000,67.00000,3.289325e-09,0.91441,4
359.267,110.984,      0.68943, 94.54486,50.00000,67.00000,3.292016e-09,0.91434,4
360.211,111.459,      0.67051, 93.76216,50.00000,67.00000,3.293065e-09,0.91425,4
361.166,111.934,      0.65438, 92.91838,50.00000,67.00000,3.290720e-09,0.91417,4
362.124,112.409,      0.63764, 92.03784,50.00000,67.00000,3.294824e-09,0.91409,4
363.076,112.884,      0.62653, 91.18162,50.00000,67.00000,3.296616e-09,0.91403,4
364.018,113.359,      0.59835, 90.27676,50.00000,67.00000,3.300022e-09,0.91396,4
364.968,113.834,      0.57465, 89.28595,50.00000,67.00000,3.298375e-09,0.91387,4
365.912,114.309,      0.55431, 88.21568,50.00000,67.00000,3.290234e-09,0.91378,4
366.865,114.784,      0.54133, 87.16973,50.00000,67.00000,3.291113e-09,0.91369,4
367.816,115.259,      0.52717, 86.11189,50.00000,67.00000,3.291519e-09,0.91360,4
368.756,115.734,      0.50440, 84.96216,50.00000,67.00000,3.284371e-09,0.91352,4
369.708,116.209,      0.48902, 83.84324,50.00000,67.00000,3.289247e-09,0.91346,4
370.658,116.684,      0.47245, 82.56486,50.00000,67.00000,3.295906e-09,0.91337,4
371.609,117.159,      0.45126, 81.35405,50.00000,67.00000,3.292155e-09,0.91328,4
372.555,117.634,      0.42484, 79.92324,50.00000,67.00000,3.292779e-09,0.91319,4
373.513,118.109,      0.41158, 78.59027,50.00000,67.00000,3.289485e-09,0.91309,4
374.464,118.584,      0.39425, 77.22649,50.00000,67.00000,3.294095e-09,0.91299,4
375.413,119.059,      0.37746, 75.75892,50.00000,67.00000,3.296245e-09,0.91290,4
376.367,119.534,      0.35139, 74.24216,50.00000,67.00000,3.294342e-09,0.91280,4
377.315,120.009,      0.32295, 72.71351,50.00000,67.00000,3.295057e-09,0.91270,4
378.265,120.484,      0.29212, 71.15405,50.00000,67.00000,3.286839e-09,0.91264,4
379.197,120.959,      0.27163, 69.55189,50.00000,67.00000,3.293543e-09,0.91254,4
380.152,121.434,      0.25284, 67.76595,50.00000,67.00000,3.295527e-09,0.91244,4
381.112,121.909,      0.23168, 66.26757,50.00000,67.00000,3.297551e-09,0.91234,4
382.051,122.384,      0.20290, 64.45784,50.00000,67.00000,3.292775e-09,0.91224,4
383.015,122.859,      0.17289, 62.68432,50.00000,67.00000,3.287872e-09,0.91213,4
383.968,123.334,      0.14746, 60.92919,50.00000,67.00000,3.289568e-09,0.91203,4
384.908,123.809,      0.12314, 59.12486,50.00000,67.00000,3.289561e-09,0.91193,4
385.859,124.284, 9.407564e-02, 57.27838,50.00000,67.00000,3.295016e-09,0.91186,4
386.804,124.759, 6.143096e-02, 55.49838,50.00000,67.00000,3.297651e-09,0.91175,4
387.747,125.234, 2.401749e-02, 53.70054,50.00000,67.00000,3.290065e-09,0.91165,4
388.7,125.709,-1.466344e-02, 51.81081,50.00000,67.00000,3.292299e-09,0.91154,4
389.645,126.184,-4.874402e-02, 50.11081,50.00000,67.00000,3.294771e-09,0.91142,4
390.608,126.659,-9.643736e-02, 48.33730,50.00000,67.00000,3.287600e-09,0.91131,4
391.556,127.134,     -0.14248, 46.60054,50.00000,67.00000,3.290558e-09,0.91120,4
392.503,127.609,     -0.19926, 44.93730,50.00000,67.00000,3.290324e-09,0.91109,4
393.457,128.084,     -0.24614, 43.29838,50.00000,67.00000,3.290751e-09,0.91098,4
394.398,128.559,     -0.29492, 41.63514,50.00000,67.00000,3.296094e-09,0.91086,4
395.358,129.034,     -0.34027, 40.06973,50.00000,67.00000,3.297501e-09,0.91078,4
396.309,129.509,     -0.39877, 38.54054,50.00000,67.00000,3.294650e-09,0.91066,4
397.261,129.984,     -0.46632, 36.95081,50.00000,67.00000,3.296287e-09,0.91055,4
398.206,130.459,     -0.53107, 35.60541,50.00000,67.00000,3.296120e-09,0.91043,4
399.158,130.934,     -0.58706, 34.15622,50.00000,67.00000,3.294254e-09,0.91031,4
400.107,131.409,     -0.64617, 32.88378,50.00000,67.00000,3.297032e-09,0.91019,4
401.059,131.884,     -0.70663, 31.72811,50.00000,67.00000,3.294423e-09,0.91007,4
402.001,132.359,     -0.77678, 30.53568,50.00000,67.00000,3.297182e-09,0.90995,4
402.95,132.834,     -0.83696, 29.46541,50.00000,67.00000,3.287300e-09,0.90982,4
403.918,133.309,     -0.89731, 28.29730,50.00000,67.00000,3.289577e-09,0.90974,4
404.864,133.784,     -0.96857, 27.33135,50.00000,67.00000,3.291237e-09,0.90961,4
405.81,134.259,     -1.04422, 26.32216,50.00000,67.00000,3.284908e-09,0.90949,4
406.766,134.734,     -1.11346, 25.47243,50.00000,67.00000,3.292801e-09,0.90936,4
407.716,135.209,     -1.19190, 24.65297,50.00000,67.00000,3.295820e-09,0.90923,4
408.666,135.684,     -1.26270, 23.79027,50.00000,67.00000,3.297425e-09,0.90910,4
409.616,136.159,     -1.32765, 23.03243,50.00000,67.00000,3.293221e-09,0.90897,4
410.572,136.634,     -1.39458, 22.35351,50.00000,67.00000,3.291190e-09,0.90884,4
411.526,137.109,     -1.47983, 21.72378,50.00000,67.00000,3.295225e-09,0.90876,4
412.461,137.584,     -1.56949, 21.05081,50.00000,67.00000,3.299113e-09,0.90862,4
413.407,138.059,     -1.64424, 20.53730,50.00000,67.00000,3.290014e-09,0.90849,4
414.354,138.534,     -1.70521, 20.09081,50.00000,67.00000,3.292242e-09,0.90836,4
415.305,139.009,     -1.77486, 19.57730,50.00000,67.00000,3.295602e-09,0.90822,4
416.256,139.484,     -1.85078, 19.19784,50.00000,67.00000,3.295245e-09,0.90808,4
417.2,139.959,     -1.92564, 18.83081,50.00000,67.00000,3.295584e-09,0.90795,4
418.149,140.434,     -2.00071, 18.46432,50.00000,67.00000,3.291109e-09,0.90782,4
419.1,140.909,     -2.07292, 18.15243,50.00000,67.00000,3.286640e-09,0.90768,4
420.049,141.384,     -2.12450, 18.00541,50.00000,67.00000,3.295668e-09,0.90754,4
421.004,141.859,     -2.17807, 17.71189,50.00000,67.00000,3.294613e-09,0.90744,4
421.965,142.334,     -2.23915, 17.56486,50.00000,67.00000,3.295155e-09,0.90730,4
422.905,142.809,     -2.30646, 17.41838,50.00000,67.00000,3.286285e-09,0.90716,4
423.852,143.284,     -2.36350, 17.30811,50.00000,67.00000,3.295640e-09,0.90701,4
424.81,143.759,     -2.41950, 17.21676,50.00000,67.00000,3.294045e-09,0.90687,4
425.756,144.234,     -2.47189, 17.12486,50.00000,67.00000,3.293353e-09,0.90673,4
426.698,144.709,     -2.51823, 17.05135,50.00000,67.00000,3.288405e-09,0.90659,4
427.645,145.184,     -2.55975, 17.05135,50.00000,67.00000,3.292454e-09,0.90644,4
428.598,145.659,     -2.58964, 17.05135,50.00000,67.00000,3.298762e-09,0.90629,4
429.563,146.134,     -2.62708, 17.12486,50.00000,67.00000,3.295825e-09,0.90619,4
430.501,146.609,     -2.67692, 17.06973,50.00000,67.00000,3.303759e-09,0.90604,4
431.449,147.084,     -2.72381, 17.05135,50.00000,67.00000,3.293519e-09,0.90589,4
432.405,147.559,     -2.76401, 17.12486,50.00000,67.00000,3.295715e-09,0.90573,4
433.346,148.034,     -2.79988, 17.12486,50.00000,67.00000,3.299780e-09,0.90559,4
434.296,148.509,     -2.83339, 17.05135,50.00000,67.00000,3.296241e-09,0.90544,4
435.238,148.984,     -2.87631, 17.13081,50.00000,67.00000,3.294482e-09,0.90529,4
436.198,149.459,     -2.91377, 17.13081,50.00000,67.00000,3.291299e-09,0.90513,4
437.156,149.934,     -2.94694, 17.21027,50.00000,67.00000,3.302937e-09,0.90503,4
438.097,150.409,     -2.99077, 17.24703,50.00000,67.00000,3.289353e-09,0.90487,4
439.052,150.884,     -3.03100, 17.24703,50.00000,67.00000,3.294131e-09,0.90472,4
439.995,151.359,     -3.07128, 17.26541,50.00000,67.00000,3.301370e-09,0.90456,4
440.946,151.834,     -3.10854, 17.24703,50.00000,67.00000,3.293364e-09,0.90440,4
441.91,152.309,     -3.14973, 17.28378,50.00000,67.00000,3.294363e-09,0.90424,4
442.844,152.784,     -3.19719, 17.32054,50.00000,67.00000,3.293486e-09,0.90408,4
443.791,153.259,     -3.24293, 17.32054,50.00000,67.00000,3.295606e-09,0.90392,4
444.748,153.734,     -3.26985, 17.33892,50.00000,67.00000,3.295813e-09,0.90376,4
445.694,154.209,     -3.30438, 17.26541,50.00000,67.00000,3.295957e-09,0.90365,4
446.653,154.684,     -3.35173, 17.33892,50.00000,67.00000,3.294564e-09,0.90349,4
447.606,155.159,     -3.39346, 17.33892,50.00000,67.00000,3.296981e-09,0.90333,4
448.553,155.634,     -3.43971, 17.41243,50.00000,67.00000,3.294233e-09,0.90316,4
449.496,156.109,     -3.48222, 17.41243,50.00000,67.00000,3.294562e-09,0.90300,4
450.454,156.584,     -3.52428, 17.41243,50.00000,67.00000,3.296896e-09,0.90283,4
451.401,157.059,     -3.55744, 17.35730,50.00000,67.00000,3.293182e-09,0.90267,4
452.351,157.534,     -3.60092, 17.43081,50.00000,67.00000,3.294587e-09,0.90249,4
453.314,158.009,     -3.64713, 17.46703,50.00000,67.00000,3.298648e-09,0.90233,4
454.258,158.484,     -3.68694, 17.43081,50.00000,67.00000,3.300538e-09,0.90222,4
455.2,158.959,     -3.73390, 17.46703,50.00000,67.00000,3.296651e-09,0.90204,4
456.146,159.434,     -3.77969, 17.55892,50.00000,67.00000,3.294480e-09,0.90187,4
457.107,159.909,     -3.81539, 17.48541,50.00000,67.00000,3.292968e-09,0.90170,4
458.049,160.384,     -3.86523, 17.52216,50.00000,67.00000,3.298094e-09,0.90152,4
459.004,160.859,     -3.89592, 17.48541,50.00000,67.00000,3.299731e-09,0.90135,4
459.954,161.334,     -3.93505, 17.61405,50.00000,67.00000,3.299480e-09,0.90117,4
460.915,161.809,     -3.98078, 17.61405,50.00000,67.00000,3.293419e-09,0.90100,4
461.856,162.284,     -4.02781, 17.54054,50.00000,67.00000,3.295036e-09,0.90088,4
462.792,162.759,     -4.08009, 17.54054,50.00000,67.00000,3.296048e-09,0.90071,4
463.753,163.234,     -4.11189, 17.61405,50.00000,67.00000,3.297754e-09,0.90053,4
464.707,163.709,     -4.14891, 17.57730,50.00000,67.00000,3.297842e-09,0.90036,4
465.663,164.184,     -4.19838, 17.57730,50.00000,67.00000,3.300111e-09,0.90018,4
466.615,164.659,     -4.24729, 17.61405,50.00000,67.00000,3.290973e-09,0.90000,4
467.557,165.134,     -4.28844, 17.61405,50.00000,67.00000,3.293003e-09,0.89982,4
468.502,165.609,     -4.32513, 17.60811,50.00000,67.00000,3.293241e-09,0.89963,4
469.462,166.084,     -4.35937, 17.66270,50.00000,67.00000,3.294391e-09,0.89951,4
470.417,166.559,     -4.40543, 17.66919,50.00000,67.00000,3.300758e-09,0.89932,4
471.36,167.034,     -4.46660, 17.59568,50.00000,67.00000,3.295604e-09,0.89914,4
472.311,167.509,     -4.51746, 17.60162,50.00000,67.00000,3.299177e-09,0.89896,4
473.249,167.984,     -4.55523, 17.67514,50.00000,67.00000,3.298827e-09,0.89878,4
474.205,168.459,     -4.59384, 17.67514,50.00000,67.00000,3.302245e-09,0.89859,4
475.167,168.934,     -4.63653, 17.67514,50.00000,67.00000,3.289997e-09,0.89840,4
476.116,169.409,     -4.67066, 17.71189,50.00000,67.00000,3.295089e-09,0.89822,4
477.067,169.884,     -4.71676, 17.69351,50.00000,67.00000,3.293979e-09,0.89809,4
478.009,170.359,     -4.77150, 17.67514,50.00000,67.00000,3.296803e-09,0.89789,4
478.957,170.834,     -4.82243, 17.80378,50.00000,67.00000,3.293295e-09,0.89771,4
479.906,171.309,     -4.85493, 17.80378,50.00000,67.00000,3.297314e-09,0.89753,4
480.863,171.784,     -4.89684, 17.78541,50.00000,67.00000,3.302426e-09,0.89733,4
481.812,172.259,     -4.94476, 17.80378,50.00000,67.00000,3.291501e-09,0.89714,4
482.773,172.734,     -4.99620, 17.80378,50.00000,67.00000,3.293875e-09,0.89694,4
483.72,173.209,     -5.04233, 17.80378,50.00000,67.00000,3.297150e-09,0.89675,4
484.672,173.684,     -5.09260, 17.87676,50.00000,67.00000,3.298335e-09,0.89656,4
485.6,174.159,     -5.14482, 17.80378,50.00000,67.00000,3.295827e-09,0.89637,4
486.568,174.634,     -5.18539, 17.80378,50.00000,67.00000,3.304028e-09,0.89624,4
487.517,175.109,     -5.21856, 17.84649,50.00000,67.00000,3.296970e-09,0.89604,4
488.466,175.584,     -5.26788, 17.82811,50.00000,67.00000,3.296087e-09,0.89585,4
489.42,176.059,     -5.31332, 17.90162,50.00000,67.00000,3.293243e-09,0.89565,4
490.362,176.534,     -5.36616, 17.90162,50.00000,67.00000,3.299760e-09,0.89545,4
491.312,177.009,     -5.40706, 17.93838,50.00000,67.00000,3.299596e-09,0.89525,4
492.262,177.484,     -5.45277, 17.86486,50.00000,67.00000,3.297003e-09,0.89506,4
493.213,177.959,     -5.51206, 17.86486,50.00000,67.00000,3.296906e-09,0.89486,4
494.15,178.434,     -5.56059, 17.93838,50.00000,67.00000,3.294387e-09,0.89472,4
495.113,178.909,     -5.58981, 17.92000,50.00000,67.00000,3.294669e-09,0.89452,4
496.059,179.384,     -5.61761, 17.95622,50.00000,67.00000,3.296682e-09,0.89432,4
497.017,179.859,     -5.67400, 17.95622,50.00000,67.00000,3.296495e-09,0.89412,4
497.969,180.334,     -5.72301, 17.93838,50.00000,67.00000,3.299636e-09,0.89392,4
498.916,180.809,     -5.77276, 17.97459,50.00000,67.00000,3.301513e-09,0.89372,4
499.878,181.284,     -5.81798, 18.01135,50.00000,67.00000,3.289061e-09,0.89352,4
500.823,181.759,     -5.87541, 18.08486,50.00000,67.00000,3.298838e-09,0.89338,4
501.78,182.234,     -5.91943, 17.97459,50.00000,67.00000,3.292892e-09,0.89317,4
502.731,182.709,     -5.96008, 18.05459,50.00000,67.00000,3.294451e-09,0.89297,4
503.679,183.184,     -6.00489, 18.10919,50.00000,67.00000,3.294323e-09,0.89276,4
504.619,183.659,     -6.04904, 18.10919,50.00000,67.00000,3.293364e-09,0.89255,4
505.566,184.134,     -6.09608, 18.10919,50.00000,67.00000,3.291663e-09,0.89236,4
506.52,184.609,     -6.14053, 18.10919,50.00000,67.00000,3.292071e-09,0.89214,4
507.483,185.084,     -6.18995, 18.18270,50.00000,67.00000,3.292703e-09,0.89193,4
508.43,185.559,     -6.23521, 18.18270,50.00000,67.00000,3.292165e-09,0.89173,4
509.379,186.034,     -6.28610, 18.25622,50.00000,67.00000,3.294486e-09,0.89158,4
510.332,186.509,     -6.33436, 18.23784,50.00000,67.00000,3.295000e-09,0.89137,4
511.284,186.984,     -6.38823, 18.23784,50.00000,67.00000,3.283689e-09,0.89117,4
512.223,187.459,     -6.43243, 18.24378,50.00000,67.00000,3.292938e-09,0.89096,4
513.179,187.934,     -6.47272, 18.22541,50.00000,67.00000,3.291555e-09,0.89074,4
514.128,188.409,     -6.52133, 18.24378,50.00000,67.00000,3.290336e-09,0.89053,4
515.077,188.884,     -6.56796, 18.24378,50.00000,67.00000,3.297938e-09,0.89032,4
516.019,189.359,     -6.61810, 18.24378,50.00000,67.00000,3.294026e-09,0.89011,4
516.978,189.834,     -6.66570, 18.24378,50.00000,67.00000,3.296984e-09,0.88990,4
517.941,190.309,     -6.69882, 18.18865,50.00000,67.00000,3.295776e-09,0.88975,4
518.896,190.784,     -6.74864, 18.17027,50.00000,67.00000,3.290900e-09,0.88954,4
519.828,191.259,     -6.80674, 18.24378,50.00000,67.00000,3.291678e-09,0.88933,4
520.793,191.734,     -6.84360, 18.20703,50.00000,67.00000,3.292852e-09,0.88911,4
521.743,192.209,     -6.88179, 18.20703,50.00000,67.00000,3.287239e-09,0.88890,4
522.695,192.684,     -6.93127, 18.20703,50.00000,67.00000,3.293150e-09,0.88868,4
523.633,193.159,     -6.98914, 18.24378,50.00000,67.00000,3.298035e-09,0.88846,4
524.594,193.634,     -7.03820, 18.28054,50.00000,67.00000,3.297372e-09,0.88824,4
525.536,194.109,     -7.08929, 18.27459,50.00000,67.00000,3.290633e-09,0.88802,4
526.486,194.584,     -7.14056, 18.31135,50.00000,67.00000,3.289240e-09,0.88788,4
527.438,195.059,     -7.18420, 18.27459,50.00000,67.00000,3.294964e-09,0.88766,4
528.382,195.534,     -7.22855, 18.23784,50.00000,67.00000,3.300920e-09,0.88744,4
529.337,196.009,     -7.25686, 18.31135,50.00000,67.00000,3.294673e-09,0.88722,4
530.291,196.484,     -7.30004, 18.23784,50.00000,67.00000,3.292065e-09,0.88700,4
531.245,196.959,     -7.36169, 18.31135,50.00000,67.00000,3.293582e-09,0.88678,4
532.199,197.434,     -7.41213, 18.29297,50.00000,67.00000,3.295695e-09,0.88656,4
533.148,197.909,     -7.46262, 18.29297,50.00000,67.00000,3.294010e-09,0.88634,4
534.086,198.384,     -7.51452, 18.32973,50.00000,67.00000,3.291811e-09,0.88612,4
535.047,198.859,     -7.54755, 18.32973,50.00000,67.00000,3.296346e-09,0.88597,4
536.005,199.334,     -7.60053, 18.29297,50.00000,67.00000,3.294058e-09,0.88574,4
536.948,199.809,     -7.64492, 18.36595,50.00000,67.00000,3.299473e-09,0.88552,4
537.903,200.284,     -7.68237, 18.36595,50.00000,67.00000,3.300302e-09,0.88529,4
538.855,200.759,     -7.72700, 18.34811,50.00000,67.00000,3.294559e-09,0.88507,4
539.805,201.234,     -7.78098, 18.42108,50.00000,67.00000,3.294304e-09,0.88485,4
540.754,201.709,     -7.82647, 18.42108,50.00000,67.00000,3.288102e-09,0.88462,4
541.709,202.184,     -7.86923, 18.40919,50.00000,67.00000,3.296763e-09,0.88440,4
542.648,202.659,     -7.92769, 18.39081,50.00000,67.00000,3.302493e-09,0.88417,4
543.597,203.134,     -7.97199, 18.42757,50.00000,67.00000,3.291136e-09,0.88402,4
544.563,203.609,     -8.00576, 18.46432,50.00000,67.00000,3.290262e-09,0.88379,4
545.502,204.084,     -8.05587, 18.46432,50.00000,67.00000,3.293622e-09,0.88356,4
546.463,204.559,     -8.10484, 18.46432,50.00000,67.00000,3.297148e-09,0.88334,4
547.404,205.034,     -8.16597, 18.46432,50.00000,67.00000,3.293006e-09,0.88311,4
548.356,205.509,     -8.19554, 18.46432,50.00000,67.00000,3.296075e-09,0.88288,4
549.312,205.984,     -8.23460, 18.53730,50.00000,67.00000,3.294722e-09,0.88265,4
550.259,206.459,     -8.29607, 18.46432,50.00000,67.00000,3.296094e-09,0.88250,4
551.21,206.934,     -8.35552, 18.53730,50.00000,67.00000,3.295068e-09,0.88227,4
552.149,207.409,     -8.40626, 18.53730,50.00000,67.00000,3.292584e-09,0.88204,4
553.107,207.884,     -8.43330, 18.53730,50.00000,67.00000,3.293617e-09,0.88181,4
554.046,208.359,     -8.47328, 18.61081,50.00000,67.00000,3.288728e-09,0.88158,4
555.005,208.834,     -8.51571, 18.55568,50.00000,67.00000,3.298061e-09,0.88135,4
555.959,209.309,     -8.56545, 18.61081,50.00000,67.00000,3.294624e-09,0.88111,4
556.907,209.784,     -8.61594, 18.61081,50.00000,67.00000,3.293330e-09,0.88088,4
557.877,210.259,     -8.66529, 18.53730,50.00000,67.00000,3.296919e-09,0.88073,4
558.81,210.734,     -8.70775, 18.61081,50.00000,67.00000,3.293325e-09,0.88049,4
559.771,211.209,     -8.75058, 18.57405,50.00000,67.00000,3.294256e-09,0.88026,4
560.728,211.684,     -8.79123, 18.57405,50.00000,67.00000,3.293086e-09,0.88003,4
561.686,212.159,     -8.84077, 18.64757,50.00000,67.00000,3.293001e-09,0.87980,4
562.63,212.634,     -8.88730, 18.64757,50.00000,67.00000,3.293170e-09,0.87956,4
563.583,213.109,     -8.93695, 18.59243,50.00000,67.00000,3.287796e-09,0.87932,4
564.528,213.584,     -8.99101, 18.64757,50.00000,67.00000,3.294806e-09,0.87909,4
565.482,214.059,     -9.03715, 18.64757,50.00000,67.00000,3.293640e-09,0.87893,4
566.431,214.534,     -9.08406, 18.61081,50.00000,67.00000,3.297056e-09,0.87869,4
567.382,215.009,     -9.11924, 18.64757,50.00000,67.00000,3.291280e-09,0.87846,4
568.336,215.484,     -9.15746, 18.61081,50.00000,67.00000,3.286440e-09,0.87822,4
569.286,215.959,     -9.21791, 18.62919,50.00000,67.00000,3.291121e-09,0.87798,4
570.229,216.434,     -9.25541, 18.68432,50.00000,67.00000,3.286880e-09,0.87775,4
571.186,216.909,     -9.29756, 18.68432,50.00000,67.00000,3.285464e-09,0.87751,4
572.139,217.384,     -9.34049, 18.64757,50.00000,67.00000,3.294759e-09,0.87727,4
573.089,217.859,     -9.38418, 18.72108,50.00000,67.00000,3.294597e-09,0.87703,4
574.043,218.334,     -9.43544, 18.70270,50.00000,67.00000,3.291523e-09,0.87688,4
574.999,218.809,     -9.48456, 18.73946,50.00000,67.00000,3.287114e-09,0.87665,4
575.94,219.284,     -9.52315, 18.66595,50.00000,67.00000,3.286770e-09,0.87641,4
576.892,219.759,     -9.55894, 18.73946,50.00000,67.00000,3.291510e-09,0.87616,4
577.853,220.234,     -9.59860, 18.72108,50.00000,66.00000,3.294099e-09,0.87593,4
578.807,220.709,     -9.63825, 18.72108,50.00000,66.00000,3.294567e-09,0.87569,4
579.747,221.184,     -9.69503, 18.72108,50.00000,66.00000,3.293079e-09,0.87509,4
580.695,221.659,     -9.74000, 18.77568,50.00000,66.00000,3.294095e-09,0.87449,4
581.65,222.134,     -9.77535, 18.75135,50.00000,66.00000,3.292224e-09,0.87410,4
582.602,222.609,     -9.81372, 18.75135,50.00000,66.00000,3.293106e-09,0.87352,4
583.56,223.084,     -9.85747, 18.78811,50.00000,66.00000,3.293492e-09,0.87295,4
584.505,223.559,     -9.90567, 18.78811,50.00000,66.00000,3.292289e-09,0.87241,4
585.456,224.034,     -9.95400, 18.78811,50.00000,66.00000,3.290317e-09,0.87188,4
586.406,224.509,     -9.99561, 18.78811,50.00000,66.00000,3.293060e-09,0.87139,4
587.345,224.984,    -10.03337, 18.78811,50.00000,66.00000,3.288257e-09,0.87090,4
588.302,225.459,    -10.08651, 18.78811,50.00000,66.00000,3.288910e-09,0.87045,4
589.254,225.934,    -10.12605, 18.84324,50.00000,66.00000,3.297299e-09,0.87002,4
590.225,226.409,    -10.16131, 18.84324,50.00000,66.00000,3.290026e-09,0.86975,4
591.175,226.884,    -10.19789, 18.84324,50.00000,66.00000,3.289524e-09,0.86935,4
592.125,227.359,    -10.26644, 18.84324,50.00000,66.00000,3.291299e-09,0.86898,4
593.061,227.834,    -10.31668, 18.88000,50.00000,66.00000,3.292078e-09,0.86863,4
594.015,228.309,    -10.34741, 18.88000,50.00000,66.00000,3.295171e-09,0.86829,4
594.971,228.784,    -10.37286, 18.80649,50.00000,66.00000,3.290819e-09,0.86797,4
595.924,229.259,    -10.42195, 18.88000,50.00000,66.00000,3.291743e-09,0.86767,4
596.878,229.734,    -10.46883, 18.89838,50.00000,66.00000,3.288232e-09,0.86738,4
597.821,230.209,    -10.52636, 18.89838,50.00000,66.00000,3.284089e-09,0.86710,4
598.772,230.684,    -10.57335, 18.97189,50.00000,66.00000,3.291501e-09,0.86691,4
599.361,230.982,    -10.60088, 18.91676,50.00000,66.00000,3.282542e-09,0.86673,5
599.628,231.077,    -10.51972, 18.91676,50.00000,66.00000,3.285590e-09,0.86665,5
600.114,231.173,     -9.81480, 19.04486,50.00000,66.00000,3.285590e-09,0.86665,5
600.927,231.268,     -8.22017, 19.19189,50.00000,66.00000,3.288476e-09,0.86656,5
602.108,231.363,     -5.80112, 19.35081,50.00000,66.00000,3.287518e-09,0.86647,5
603.626,231.458,     -2.82996, 19.52216,50.00000,66.00000,3.287518e-09,0.86647,5
605.425,231.553,      0.35078, 19.74811,50.00000,66.00000,3.290705e-09,0.86638,5
607.422,231.648,      3.40102, 19.89514,50.00000,66.00000,3.290705e-09,0.86638,5
609.53,231.743,      6.04317, 20.04162,50.00000,66.00000,3.288840e-09,0.86630,5
611.68,231.838,      8.10390, 20.18865,50.00000,66.00000,3.288840e-09,0.86630,5
613.798,231.933,      9.48056, 20.18865,50.00000,66.00000,3.284457e-09,0.86621,5
615.849,232.028,     10.19832, 20.24378,50.00000,66.00000,3.289374e-09,0.86612,5
617.79,232.123,     10.32328, 20.31676,50.00000,66.00000,3.289374e-09,0.86612,5
619.634,232.218,      9.98574, 20.31676,50.00000,66.00000,3.282623e-09,0.86604,5
621.384,232.312,      9.34703, 20.31676,50.00000,66.00000,3.282623e-09,0.86604,5
623.027,232.407,      8.53522, 20.31676,50.00000,66.00000,3.294229e-09,0.86595,5
624.631,232.502,      7.69581, 20.24378,50.00000,66.00000,3.294229e-09,0.86595,5
626.191,232.597,      6.92178, 20.32919,50.00000,66.00000,3.287750e-09,0.86587,5
627.749,232.692,      6.30384, 20.32919,50.00000,66.00000,3.288892e-09,0.86578,5
629.319,232.787,      5.85155, 20.32919,50.00000,66.00000,3.288892e-09,0.86578,5
630.915,232.882,      5.61016, 20.32919,50.00000,66.00000,3.290754e-09,0.86570,5
632.543,232.977,      5.52916, 20.40270,50.00000,66.00000,3.290754e-09,0.86570,5
634.214,233.072,      5.60148, 20.47622,50.00000,66.00000,3.293615e-09,0.86561,5
635.932,233.167,      5.79210, 20.47622,50.00000,66.00000,3.289970e-09,0.86553,5
637.688,233.262,      6.04260, 20.54919,50.00000,66.00000,3.289970e-09,0.86553,5
639.485,233.357,      6.32778, 20.56757,50.00000,66.00000,3.295162e-09,0.86545,5
641.305,233.452,      6.59808, 20.56757,50.00000,66.00000,3.295162e-09,0.86545,5
643.151,233.548,      6.83421, 20.62270,50.00000,66.00000,3.288861e-09,0.86537,5
645.013,233.643,      7.02307, 20.70216,50.00000,66.00000,3.288861e-09,0.86537,5
646.882,233.738,      7.15062, 20.77568,50.00000,66.00000,3.286836e-09,0.86529,5
648.753,233.833,      7.23505, 20.84919,50.00000,66.00000,3.295748e-09,0.86520,5
650.626,233.928,      7.25993, 20.84919,50.00000,67.00000,3.295748e-09,0.86520,5
652.504,234.023,      7.23792, 20.84919,50.00000,66.00000,3.292612e-09,0.86512,5
654.386,234.118,      7.18334, 20.92216,50.00000,66.00000,3.292612e-09,0.86512,5
656.262,234.213,      7.10488, 20.97730,50.00000,66.00000,3.287747e-09,0.86503,5
658.147,234.308,      7.00169, 20.99568,50.00000,66.00000,3.287747e-09,0.86503,5
660.021,234.403,      6.89880, 20.99568,50.00000,66.00000,3.287981e-09,0.86495,5
661.922,234.498,      6.81607, 21.06919,50.00000,66.00000,3.291912e-09,0.86486,5
663.815,234.593,      6.71982, 21.06919,50.00000,66.00000,3.291912e-09,0.86486,5
665.705,234.688,      6.62067, 21.19784,50.00000,66.00000,3.293119e-09,0.86479,5
667.614,234.782,      6.54094, 21.19784,50.00000,66.00000,3.293119e-09,0.86479,5
669.516,234.877,      6.44845, 21.21622,50.00000,66.00000,3.285344e-09,0.86471,5
671.433,234.972,      6.35401, 21.28919,50.00000,66.00000,3.285344e-09,0.86471,5
673.349,235.067,      6.26990, 21.28919,50.00000,66.00000,3.291132e-09,0.86462,5
675.283,235.162,      6.17642, 21.30757,50.00000,66.00000,3.289341e-09,0.86454,5
677.211,235.257,      6.07587, 21.38108,50.00000,66.00000,3.289341e-09,0.86454,5
679.141,235.352,      5.97158, 21.39946,50.00000,66.00000,3.288795e-09,0.86447,5
681.083,235.447,      5.85277, 21.39946,50.00000,66.00000,3.288795e-09,0.86447,5
683.019,235.542,      5.73678, 21.45459,50.00000,66.00000,3.291824e-09,0.86438,5
684.958,235.637,      5.60528, 21.52811,50.00000,66.00000,3.291824e-09,0.86438,5
686.898,235.732,      5.46741, 21.52811,50.00000,66.00000,3.286106e-09,0.86431,5
688.838,235.827,      5.31975, 21.52811,50.00000,66.00000,3.284609e-09,0.86423,5
690.788,235.923,      5.17156, 21.58270,50.00000,66.00000,3.284609e-09,0.86423,5
692.729,236.018,      5.00844, 21.58270,50.00000,66.00000,3.288833e-09,0.86414,5
694.68,236.113,      4.84051, 21.60108,50.00000,66.00000,3.288833e-09,0.86414,5
696.628,236.208,      4.67361, 21.67459,50.00000,66.00000,3.289980e-09,0.86406,5
698.576,236.303,      4.50861, 21.67459,50.00000,66.00000,3.291569e-09,0.86399,5
700.518,236.398,      4.34210, 21.75405,50.00000,66.00000,3.291569e-09,0.86399,5
702.473,236.493,      4.16481, 21.79081,50.00000,66.00000,3.288738e-09,0.86389,5
704.424,236.588,      3.98344, 21.82757,50.00000,66.00000,3.288738e-09,0.86389,5
706.376,236.683,      3.81502, 21.82757,50.00000,66.00000,3.287248e-09,0.86382,5
708.333,236.778,      3.64087, 21.90108,50.00000,66.00000,3.287248e-09,0.86382,5
710.268,236.873,      3.44290, 21.90108,50.00000,67.00000,3.290889e-09,0.86374,5
712.221,236.968,      3.25796, 21.90108,50.00000,66.00000,3.290889e-09,0.86374,5
714.175,237.062,      3.06891, 21.90108,50.00000,67.00000,3.285281e-09,0.86366,5
716.123,237.157,      2.87571, 21.97405,50.00000,67.00000,3.291557e-09,0.86358,5
718.083,237.252,      2.67322, 22.01081,50.00000,67.00000,3.291557e-09,0.86358,5
720.037,237.347,      2.47861, 22.04757,50.00000,67.00000,3.292881e-09,0.86350,5
721.985,237.442,      2.27723, 22.04757,50.00000,67.00000,3.292881e-09,0.86350,5
723.936,237.537,      2.07252, 22.12108,50.00000,67.00000,3.290029e-09,0.86342,5
725.886,237.632,      1.86969, 22.19459,50.00000,67.00000,3.289844e-09,0.86335,5
727.847,237.727,      1.67396, 22.19459,50.00000,67.00000,3.289844e-09,0.86335,5
729.802,237.822,      1.46621, 22.19459,50.00000,66.00000,3.284260e-09,0.86327,5
731.749,237.917,      1.25160, 22.19459,50.00000,66.00000,3.284260e-09,0.86327,5
733.697,238.012,      1.02925, 22.26757,50.00000,66.00000,3.290558e-09,0.86318,5
735.65,238.107,      0.80874, 22.34108,50.00000,67.00000,3.290558e-09,0.86318,5
737.598,238.202,      0.59621, 22.34108,50.00000,67.00000,3.288388e-09,0.86312,5
739.544,238.298,      0.37592, 22.34108,50.00000,67.00000,3.285994e-09,0.86304,5
741.511,238.393,      0.15925, 22.34108,50.00000,66.00000,3.285994e-09,0.86304,5
743.437,238.488,-7.491689e-02, 22.41459,50.00000,67.00000,3.290868e-09,0.86296,5
745.396,238.583,     -0.29401, 22.43297,50.00000,66.00000,3.290868e-09,0.86296,5
747.34,238.678,     -0.51829, 22.48811,50.00000,67.00000,3.287127e-09,0.86289,5
749.29,238.773,     -0.74069, 22.48811,50.00000,67.00000,3.287127e-09,0.86289,5
751.221,238.868,     -0.96473, 22.48811,50.00000,67.00000,3.286377e-09,0.86282,5
753.173,238.963,     -1.19222, 22.56108,50.00000,66.00000,3.291486e-09,0.86275,5
755.12,239.058,     -1.40893, 22.56108,50.00000,66.00000,3.291486e-09,0.86275,5
757.06,239.153,     -1.63172, 22.63459,50.00000,66.00000,3.294071e-09,0.86268,5
759.008,239.248,     -1.84903, 22.57946,50.00000,66.00000,3.294071e-09,0.86268,5
760.951,239.343,     -2.07603, 22.59784,50.00000,67.00000,3.288396e-09,0.86261,5
762.9,239.438,     -2.29127, 22.65297,50.00000,66.00000,3.288396e-09,0.86261,5
764.832,239.532,     -2.52248, 22.70811,50.00000,66.00000,3.291258e-09,0.86253,5
766.783,239.627,     -2.74283, 22.65297,50.00000,67.00000,3.290896e-09,0.86246,5
768.721,239.722,     -2.97382, 22.72649,50.00000,67.00000,3.290896e-09,0.86246,5
770.667,239.817,     -3.19388, 22.80000,50.00000,66.00000,3.283250e-09,0.86239,5
772.617,239.912,     -3.42104, 22.80000,50.00000,66.00000,3.283250e-09,0.86239,5
774.55,240.007,     -3.64530, 22.80000,50.00000,67.00000,3.292697e-09,0.86231,5
776.494,240.102,     -3.86583, 22.87297,50.00000,67.00000,3.292697e-09,0.86231,5
778.433,240.197,     -4.12619, 22.87297,50.00000,66.00000,3.293275e-09,0.86225,5
780.375,240.292,     -4.33646, 22.80000,50.00000,67.00000,3.290798e-09,0.86217,5
782.315,240.387,     -4.56841, 22.87297,50.00000,67.00000,3.290798e-09,0.86217,5
784.25,240.482,     -4.78104, 22.90973,50.00000,67.00000,3.293791e-09,0.86211,5
786.182,240.577,     -4.98981, 22.94649,50.00000,67.00000,3.293791e-09,0.86211,5
788.126,240.673,     -5.20393, 23.02000,50.00000,67.00000,3.287357e-09,0.86204,5
790.059,240.768,     -5.41598, 23.02000,50.00000,67.00000,            ,0.44887,5
791.998,240.863,     -5.63891, 23.02000,50.00000,67.00000,            ,0.44810,5
793.641,240.942,     -5.82604, 23.02000,50.00000,67.00000,            ,0.44744,5