File: data/TGA/005d-B/005dB1-rGPC+flash MS_104 AMU_XIC
Time	Ion Current
min	mA
0.00	1.00000e-13
0.97	1.00000e-13
1.94	1.00000e-13
2.91	1.00000e-13
3.88	1.00000e-13
4.85	1.00000e-13
5.82	1.00000e-13
6.79	1.00000e-13
7.76	1.00000e-13
8.73	1.00000e-13
9.70	1.00000e-13
10.67	1.00000e-13
11.64	1.00000e-13
12.61	1.00000e-13
13.58	1.00000e-13
14.55	1.00000e-13
15.52	1.00000e-13
16.49	1.00000e-13
17.46	1.00000e-13
18.43	1.00000e-13
19.40	1.00000e-13
20.37	1.00000e-13
21.34	1.00000e-13
22.31	1.00000e-13
23.28	1.00000e-13
24.25	1.00000e-13
25.22	1.00000e-13
26.19	1.00000e-13
27.16	1.00000e-13
28.13	1.00000e-13
29.10	1.00000e-13
30.07	1.00000e-13
31.04	1.00000e-13
32.01	1.00000e-13
32.98	1.00000e-13
33.95	1.00000e-13
34.92	1.00000e-13
35.89	1.00000e-13
36.86	1.00000e-13
37.83	6.25609e-6
38.80	6.14023e-6
39.77	1.00000e-13
40.74	1.00000e-13
41.71	1.00000e-13
42.68	1.00000e-13
43.65	4.86585e-6
44.62	1.00000e-13
45.59	1.00000e-13
46.56	1.00000e-13
47.53	1.00000e-13
48.50	1.00000e-13
49.47	1.00000e-13
50.44	1.00000e-13
51.41	1.00000e-13
52.38	1.00000e-13
53.35	1.00000e-13
54.32	1.48292e-5
55.29	1.00000e-13
56.26	1.00000e-13
57.23	1.00000e-13
58.20	1.00000e-13
59.17	1.00000e-13
60.14	1.00000e-13
61.11	1.00000e-13
62.08	1.00000e-13
63.05	1.00000e-13
64.02	1.54085e-5
64.99	1.00000e-13
65.96	1.00000e-13
66.93	3.59146e-5
67.90	2.96585e-5
68.87	1.00000e-13
69.84	1.00000e-13
70.81	1.00000e-13
71.78	1.00000e-13
72.75	1.00000e-13
73.72	4.15914e-5
74.69	1.69146e-5
75.66	1.00000e-13
76.63	4.17073e-6
77.60	1.00000e-13
78.57	1.00000e-13
79.54	6.60365e-6
80.51	1.00000e-13
81.48	5.90853e-6
82.45	3.74207e-5
83.42	1.00000e-13
84.39	5.44511e-6
85.36	1.00000e-13
86.33	1.00000e-13
87.30	1.00000e-13
88.27	2.05061e-5
89.24	1.00000e-13
90.21	9.61584e-6
91.18	2.78048e-6
92.15	2.31707e-7
93.12	1.00000e-13
94.09	1.00000e-13
95.06	1.00000e-13
96.03	2.73414e-5
97.00	1.00000e-13
97.97	7.41462e-6
98.94	4.28658e-6
99.91	9.26828e-6
100.88	1.00000e-13
101.85	4.68048e-5
102.82	3.47560e-7
103.79	1.00000e-13
104.76	2.24756e-5
105.73	1.00000e-13
106.70	4.84268e-5
107.67	1.67988e-5
108.64	1.00000e-13
109.61	7.76218e-6
110.58	1.00000e-13
111.55	1.00000e-13
112.52	9.61584e-6
113.49	1.62195e-6
114.46	2.47926e-5
115.43	1.00000e-13
116.40	1.74939e-5
117.37	2.24756e-5
118.34	4.30975e-5
119.31	9.38413e-6
120.28	1.00000e-13
121.25	1.27439e-5
122.22	1.00000e-13
123.19	2.42134e-5
124.16	1.00000e-13
125.13	1.00000e-13
126.10	1.00000e-13
127.07	1.00000e-13
128.04	8.10974e-7
129.01	2.31707e-7
129.98	2.78048e-5
130.95	3.37134e-5
131.92	3.23231e-5
132.89	1.00000e-13
133.86	1.00000e-13
134.83	1.00000e-13
135.80	3.03536e-5
136.77	1.00000e-13
137.74	1.00000e-13
138.71	1.00000e-13
139.68	1.00000e-13
140.65	2.13170e-5
141.62	1.83048e-5
142.59	1.00000e-13
143.56	1.00000e-13
144.53	1.00000e-13
145.50	1.00000e-13
146.47	8.10974e-7
147.44	1.00000e-13
148.41	1.00000e-13
149.38	1.00000e-13
150.35	1.00000e-13
151.32	1.00000e-13
152.29	1.15853e-6
153.26	1.00000e-13
154.23	1.84207e-5
155.20	2.20122e-5
156.17	1.00000e-13
157.14	1.00000e-13
158.11	1.00000e-13
159.08	2.12012e-5
160.05	1.00000e-13
161.02	1.00000e-13
161.99	1.00000e-13
162.96	1.00000e-13
163.93	1.00000e-13
164.90	1.00000e-13
165.87	1.00000e-13
166.84	1.15853e-7
167.81	1.41341e-5
168.78	1.00000e-13
169.75	1.00000e-13
170.72	1.00000e-13
171.69	1.00000e-13
172.66	1.00000e-13
173.63	1.00000e-13
174.60	1.00000e-13
175.57	1.00000e-13
176.54	1.00000e-13
177.51	1.05427e-5
178.48	1.00000e-13
179.45	1.00000e-13
180.42	1.28597e-5
181.39	1.73780e-5
182.36	1.00000e-13
183.33	1.00000e-13
184.30	1.00000e-13
185.27	1.00000e-13
186.23	1.00000e-13
187.21	8.34145e-6
188.18	5.32926e-6
189.15	1.00000e-13
190.12	3.01219e-6
191.09	1.00000e-13
192.06	1.00000e-13
193.03	1.00000e-13
194.00	1.05427e-5
194.96	3.47560e-7
195.94	5.79267e-6
196.91	1.00000e-13
197.88	1.00000e-13
198.84	1.00000e-13
199.81	1.00000e-13
200.79	1.00000e-13
201.76	1.00000e-13
202.73	1.00000e-13
203.69	3.86951e-5
204.66	1.00000e-13
205.63	1.99268e-5
206.60	1.00000e-13
207.57	1.00000e-13
208.55	1.00000e-13
209.51	4.40243e-6
210.49	1.00000e-13
211.46	2.71097e-5
212.42	1.00000e-13
213.39	1.00000e-13
214.36	1.00000e-13
215.34	2.54878e-6
216.31	1.00000e-13
217.27	1.00000e-13
218.24	2.08536e-5
219.21	3.12804e-6
220.19	1.00000e-13
221.15	1.00000e-13
222.13	1.00000e-13
223.10	1.00000e-13
224.06	1.00000e-13
225.04	1.00000e-13
226.00	1.00000e-13
226.98	1.00000e-13
227.94	1.00000e-13
228.91	3.13963e-5
229.89	1.00000e-13
230.85	3.47560e-7
231.82	1.00000e-13
232.80	1.00000e-13
233.76	1.00000e-13
234.74	1.00000e-13
235.71	1.00000e-13
236.68	5.09755e-6
237.64	1.00000e-13
238.61	1.00000e-13
239.58	1.00000e-13
240.56	1.00000e-13
241.52	1.00000e-13
242.49	1.00000e-13
243.46	1.21646e-5
244.43	1.00000e-13
245.40	1.00000e-13
246.38	1.00000e-13
247.34	1.00000e-13
248.31	1.00000e-13
249.29	1.00000e-13
250.25	1.00000e-13
251.22	8.34145e-6
252.20	1.00000e-13
253.16	1.00000e-13
254.13	1.00000e-13
255.10	1.00000e-13
256.07	4.79633e-5
257.04	1.00000e-13
258.01	1.00000e-13
258.98	1.00000e-13
259.95	1.00000e-13
260.92	1.00000e-13
261.89	1.01951e-5
262.86	1.00000e-13
263.83	1.96951e-5
264.80	1.00000e-13
265.77	1.00000e-13
266.74	1.00000e-13
267.71	1.00000e-13
268.68	1.00000e-13
269.65	1.00000e-13
270.62	1.96951e-6
271.59	1.00000e-13
272.56	6.37194e-6
273.54	1.00000e-13
274.50	1.00000e-13
275.47	1.00000e-13
276.44	1.00000e-13
277.41	1.00000e-13
278.38	1.00000e-13
279.35	1.50610e-6
280.32	1.85366e-6
281.29	2.32865e-5
282.26	1.00000e-13
283.23	1.00000e-13
284.20	1.00000e-13
285.17	1.00000e-13
286.14	1.00000e-13
287.11	1.00000e-13
288.08	1.07744e-5
289.05	1.00000e-13
290.02	1.00000e-13
290.99	1.00000e-13
291.96	1.00000e-13
292.93	1.00000e-13
293.90	1.00000e-13
294.87	1.00000e-13
295.84	1.00000e-13
296.81	1.00000e-13
297.78	1.00000e-13
298.75	1.00000e-13
299.72	1.00000e-13
300.69	1.00000e-13
301.66	1.15853e-6
302.63	2.78048e-6
303.60	1.00000e-13
304.57	1.00000e-13
305.54	2.20122e-6
306.51	1.00000e-13
307.48	1.00000e-13
308.45	3.35975e-6
309.42	1.00000e-13
310.39	1.00000e-13
311.36	1.41341e-5
312.33	1.00000e-13
313.30	1.00000e-13
314.27	1.00000e-13
315.24	2.66463e-6
316.21	1.39024e-6
317.18	1.00000e-13
318.15	1.00000e-13
319.12	1.63353e-5
320.09	1.00000e-13
321.06	1.00000e-13
322.03	1.00000e-13
323.00	1.00000e-13
323.97	1.00000e-13
324.94	1.00000e-13
325.91	1.00000e-13
326.88	1.00000e-13
327.85	1.00000e-13
328.82	1.19329e-5
329.79	1.00000e-13
330.76	1.00000e-13
331.73	1.00000e-13
332.70	1.00000e-13
333.67	7.99389e-6
334.64	1.00000e-13
335.61	1.00000e-13
336.58	6.37194e-6
337.55	1.00000e-13
338.52	1.00000e-13
339.49	1.00000e-13
340.46	1.00000e-13
341.43	1.00000e-13
342.40	1.00000e-13
343.37	1.00000e-13
344.34	1.00000e-13
345.31	1.00000e-13
346.28	1.00000e-13
347.25	1.00000e-13
348.22	1.00000e-13
349.19	1.00000e-13
350.16	1.00000e-13
351.13	9.26828e-7
352.10	1.00000e-13
353.07	1.00000e-13
354.04	1.00000e-13
355.01	1.00000e-13
355.98	1.00000e-13
356.95	2.56036e-5
357.92	3.59146e-6
358.89	1.35549e-5
359.86	1.00000e-13
360.83	1.00000e-13
361.80	3.11646e-5
362.77	1.00000e-13
363.74	1.00000e-13
364.71	1.00000e-13
365.68	1.00000e-13
366.65	1.00000e-13
367.62	1.00000e-13
368.59	1.00000e-13
369.56	1.00000e-13
370.53	1.00000e-13
371.50	1.00000e-13
372.47	1.00000e-13
373.44	1.00000e-13
374.41	1.00000e-13
375.38	1.00000e-13
376.35	1.00000e-13
377.32	1.00000e-13
378.29	1.00000e-13
379.26	1.00000e-13
380.23	1.00000e-13
381.20	1.00000e-13
382.17	1.00000e-13
383.14	1.00000e-13
384.11	1.00000e-13
385.08	3.35975e-6
386.05	1.00000e-13
387.02	9.49998e-6
387.99	1.00000e-13
388.96	1.00000e-13
389.93	1.00000e-13
390.90	1.00000e-13
391.87	1.00000e-13
392.84	1.00000e-13
393.81	1.00000e-13
394.78	7.06706e-6
395.75	1.00000e-13
396.72	1.00000e-13
397.69	2.31707e-6
398.66	1.00000e-13
399.63	1.00000e-13
400.60	1.00000e-13
401.57	1.00000e-13
402.54	4.63414e-7
403.51	1.44817e-5
404.48	1.00000e-13
405.45	2.03902e-5
406.42	1.00000e-13
407.39	1.00000e-13
408.36	1.00000e-13
409.33	2.15487e-5
410.30	1.00000e-13
411.27	1.00000e-13
412.24	1.78414e-5
413.21	9.15242e-6
414.18	1.00000e-13
415.15	1.12378e-5
416.12	1.00000e-13
417.09	1.00000e-13
418.06	2.32865e-5
419.03	1.00000e-13
420.00	1.00000e-13
420.97	2.66463e-6
421.94	1.00000e-13
422.91	2.66463e-6
423.88	1.00000e-13
424.85	1.00000e-13
425.82	1.00000e-13
426.79	1.00000e-13
427.76	1.00000e-13
428.73	1.00000e-13
429.70	1.00000e-13
430.67	1.00000e-13
431.64	1.22805e-5
432.61	1.00000e-13
433.58	1.00000e-13
434.55	1.00000e-13
435.52	1.00000e-13
436.49	1.00000e-13
437.46	1.00000e-13
438.43	1.48292e-5
439.40	1.00000e-13
440.37	7.06706e-6
441.34	1.00000e-13
442.31	1.00000e-13
443.28	1.00000e-13
444.25	1.00000e-13
445.22	1.00000e-13
446.19	1.00000e-13
447.16	1.00000e-13
448.13	1.00000e-13
449.10	1.00000e-13
450.07	1.00000e-13
451.04	1.00000e-13
452.01	1.00000e-13
452.98	1.00000e-13
453.95	1.00000e-13
454.92	1.00000e-13
455.89	1.00000e-13
456.86	1.27439e-6
457.83	7.64633e-6
458.80	1.00000e-13
459.77	1.00000e-13
460.74	1.50610e-6
461.71	1.00000e-13
462.68	1.00000e-13
463.65	1.00000e-13
464.62	1.00000e-13
465.59	1.00000e-13
466.56	1.00000e-13
467.53	1.00000e-13
468.50	1.00000e-13
469.47	1.00000e-13
470.44	1.00000e-13
471.41	1.00000e-13
472.38	1.00000e-13
473.35	4.63414e-6
474.32	1.00000e-13
475.29	1.00000e-13
476.26	1.00000e-13
477.23	1.00000e-13
478.19	1.00000e-13
479.17	1.00000e-13
480.14	1.00000e-13
481.11	1.00000e-13
482.08	1.00000e-13
483.05	1.00000e-13
484.02	1.00000e-13
484.99	1.15853e-6
485.96	1.00000e-13
486.92	1.00000e-13
487.90	7.53048e-6
488.87	7.53048e-6
489.84	1.00000e-13
490.81	1.00000e-13
491.77	9.73169e-6
492.74	1.00000e-13
493.72	1.00000e-13
494.68	1.00000e-13
495.65	1.00000e-13
496.63	1.00000e-13
497.60	1.00000e-13
498.56	1.00000e-13
499.53	1.00000e-13
500.51	1.00000e-13
501.48	1.00000e-13
502.45	1.00000e-13
503.42	1.00000e-13
504.38	1.00000e-13
505.35	1.00000e-13
506.33	1.00000e-13
507.30	1.00000e-13
508.26	1.00000e-13
509.24	1.00000e-13
510.20	1.00000e-13
511.18	1.00000e-13
512.15	1.00000e-13
513.11	1.00000e-13
514.08	1.00000e-13
515.06	1.00000e-13
516.03	1.00000e-13
517.00	2.44451e-5
517.96	1.00000e-13
518.94	1.00000e-13
519.91	1.00000e-13
520.87	5.09755e-6
521.85	1.00000e-13
522.82	1.94634e-5
523.79	1.00000e-13
524.75	1.00000e-13
525.72	1.00000e-13
526.69	1.00000e-13
527.66	1.00000e-13
528.64	1.23963e-5
529.60	1.00000e-13
530.57	1.00000e-13
531.54	1.00000e-13
532.51	1.00000e-13
533.48	1.00000e-13
534.45	1.00000e-13
535.43	1.00000e-13
536.40	1.00000e-13
537.37	1.00000e-13
538.33	1.00000e-13
539.30	1.00000e-13
540.27	1.84207e-5
541.24	1.00000e-13
542.21	1.00000e-13
543.19	1.00000e-13
544.15	1.00000e-13
545.12	1.69146e-5
546.09	1.00000e-13
547.06	1.00000e-13
548.03	1.00000e-13
549.01	1.00000e-13
549.97	1.00000e-13
550.94	1.00000e-13
551.91	1.00000e-13
552.88	3.63780e-5
553.85	4.86585e-6
554.83	1.00000e-13
555.79	1.00000e-13
556.76	1.00000e-13
557.74	1.00000e-13
558.70	1.00000e-13
559.67	7.99389e-6
560.64	1.00000e-13
561.61	1.00000e-13
562.58	1.00000e-13
563.55	1.39024e-5
564.52	1.00000e-13
565.49	1.00000e-13
566.46	1.00000e-13
567.43	1.00000e-13
568.40	1.00000e-13
569.37	1.35549e-5
570.34	2.31707e-6
571.31	1.00000e-13
572.28	1.00000e-13
573.25	1.00000e-13
574.22	1.00000e-13
575.19	1.00000e-13
576.16	1.50610e-5
577.13	1.00000e-13
578.10	1.00000e-13
579.07	1.00000e-13
580.04	1.00000e-13
581.01	1.00000e-13
581.98	1.00000e-13
582.95	1.00000e-13
583.92	1.00000e-13
584.89	1.00000e-13
585.86	1.00000e-13
586.83	1.00000e-13
587.80	1.00000e-13
588.77	1.00000e-13
589.74	1.00000e-13
590.71	1.00000e-13
591.68	1.00000e-13
592.65	1.00000e-13
593.62	1.27439e-6
594.59	1.00000e-13
595.56	1.00000e-13
596.53	1.00000e-13
597.50	1.00000e-13
598.47	5.87377e-5
599.44	1.35549e-5
600.41	1.00000e-13
601.38	1.00000e-13
602.35	1.00000e-13
603.32	1.00000e-13
604.29	1.00000e-13
605.26	4.40243e-6
606.23	1.73780e-6
607.20	2.37500e-5
608.17	1.47134e-5
609.14	1.00000e-13
610.11	1.00000e-13
611.08	1.00000e-13
612.05	1.00000e-13
613.02	1.00000e-13
613.99	1.00000e-13
614.96	2.01585e-5
615.93	1.00000e-13
616.90	1.00000e-13
617.87	1.00000e-13
618.84	1.00000e-13
619.81	1.00000e-13
620.78	9.26828e-7
621.75	1.00000e-13
622.72	1.00000e-13
623.69	1.00000e-13
624.66	1.00000e-13
625.63	1.00000e-13
626.60	1.00000e-13
627.57	1.00000e-13
628.54	1.00000e-13
629.51	1.00000e-13
630.48	1.00000e-13
631.45	1.00000e-13
632.42	3.12804e-6
633.39	1.00000e-13
634.36	1.00000e-13
635.33	5.79267e-7
636.30	6.37194e-6
637.27	1.00000e-13
638.24	1.29756e-5
639.21	1.00000e-13
640.18	1.00000e-13
641.15	1.00000e-13
642.12	1.00000e-13
643.09	1.00000e-13
644.06	1.00000e-13
645.03	9.96340e-6
646.00	1.00000e-13
646.97	1.00000e-13
647.94	1.00000e-13
648.91	1.00000e-13
649.88	1.00000e-13
650.85	1.00000e-13
651.82	1.00000e-13
652.79	1.00000e-13
653.76	1.00000e-13
654.73	1.00000e-13
655.70	1.00000e-13
656.67	1.00000e-13
657.64	1.00000e-13
658.61	1.00000e-13
659.58	1.00000e-13
660.55	1.15853e-6
661.52	1.00000e-13
662.49	1.00000e-13
663.46	7.53048e-6
664.43	1.00000e-13
665.40	1.00000e-13
666.37	1.00000e-13
667.34	1.00000e-13
668.31	3.35975e-5
669.28	1.00000e-13
670.25	1.00000e-13
671.22	1.00000e-13
672.19	1.00000e-13
673.16	1.00000e-13
674.13	1.00000e-13
675.10	1.00000e-13
676.07	1.00000e-13
677.04	1.00000e-13
678.01	1.00000e-13
678.98	1.00000e-13
679.95	2.54878e-6
680.92	1.00000e-13
681.89	1.00000e-13
682.86	1.62195e-5
683.83	1.00000e-13
684.80	1.00000e-13
685.77	1.00000e-13
686.74	1.00000e-13
687.71	1.00000e-13
688.68	1.00000e-13
689.65	1.00000e-13
690.62	1.00000e-13
691.59	1.00000e-13
692.56	1.00000e-13
693.53	1.00000e-13
694.50	1.35549e-5
695.47	1.00000e-13
696.44	1.28597e-5
697.41	1.00000e-13
698.38	8.68901e-6
699.35	1.00000e-13
700.32	8.22560e-6
701.29	1.00000e-13
702.26	1.00000e-13
703.23	1.00000e-13
704.20	1.00000e-13
705.17	1.00000e-13
706.14	1.00000e-13
707.11	1.00000e-13
708.08	1.00000e-13
709.05	1.00000e-13
710.02	1.00000e-13
710.99	1.00000e-13
711.96	1.00000e-13
712.93	2.31707e-6
713.90	1.00000e-13
714.87	1.20488e-5
715.84	1.00000e-13
716.81	1.00000e-13
717.78	1.00000e-13
718.75	1.00000e-13
719.72	1.00000e-13
720.69	1.00000e-13
721.66	1.00000e-13
722.63	1.00000e-13
723.60	1.00000e-13
724.57	1.00000e-13
725.54	1.49451e-5
726.51	1.43658e-5
727.48	1.00000e-13
728.45	1.00000e-13
729.42	1.00000e-13
730.39	1.00000e-13
731.36	1.00000e-13
732.33	1.00000e-13
733.30	1.00000e-13
734.27	1.00000e-13
735.24	1.00000e-13
736.21	1.00000e-13
737.18	1.00000e-13
738.15	1.00000e-13
739.12	1.00000e-13
740.09	1.00000e-13
741.06	1.00000e-13
742.03	1.00000e-13
743.00	1.00000e-13
743.97	1.00000e-13
744.94	5.79267e-6
745.91	1.00000e-13
746.88	1.00000e-13
747.85	1.00000e-13
748.82	1.00000e-13
749.79	1.00000e-13
750.76	1.00000e-13
751.73	1.00000e-13
752.70	1.00000e-13
753.67	1.00000e-13
754.64	1.00000e-13
755.61	1.00000e-13
756.58	1.00000e-13
757.55	1.00000e-13
758.52	1.00000e-13
759.49	1.42500e-5
760.46	1.00000e-13
761.43	1.00000e-13
762.40	1.40183e-5
763.37	4.17073e-6
764.34	3.82316e-5
765.31	1.94634e-5
766.28	1.00000e-13
767.25	1.00000e-13
768.22	1.00000e-13
769.19	1.00000e-13
770.16	2.88475e-5
771.13	1.00000e-13
772.10	1.00000e-13
773.07	1.00000e-13
774.04	1.00000e-13
775.01	1.00000e-13
775.98	1.00000e-13
776.95	1.00000e-13
777.92	1.00000e-13
778.89	1.00000e-13
779.86	1.00000e-13
780.83	1.00000e-13
781.80	1.00000e-13
782.77	1.00000e-13
783.74	1.00000e-13
784.71	1.00000e-13
785.68	1.00000e-13
786.65	1.77256e-5
787.62	1.00000e-13
788.59	1.00000e-13
789.56	1.00000e-13
790.53	1.00000e-13
791.50	1.00000e-13
792.47	1.00000e-13
793.44	1.00000e-13
794.41	1.00000e-13
795.38	1.00000e-13
796.35	1.00000e-13
797.32	1.00000e-13
798.29	1.00000e-13
799.26	1.00000e-13
800.23	1.15853e-7
801.20	1.00000e-13
802.17	1.00000e-13
803.14	1.00000e-13
804.11	1.00000e-13
805.08	1.00000e-13
806.05	1.00000e-13
807.02	1.00000e-13
807.99	1.00000e-13
808.96	1.00000e-13
809.92	1.00000e-13
810.90	4.63414e-6
811.86	1.00000e-13
812.84	1.00000e-13
813.80	2.31707e-7
814.77	1.00000e-13
815.75	1.00000e-13
816.72	1.00000e-13
817.69	1.00000e-13
818.66	1.00000e-13
819.63	1.00000e-13
820.60	1.00000e-13
821.56	1.00000e-13
822.54	1.00000e-13
823.50	1.67988e-5
824.48	2.18963e-5
825.44	8.10974e-7
826.42	1.00000e-13
827.39	1.00000e-13
828.35	1.00000e-13
829.33	1.04268e-6
830.29	1.00000e-13
831.27	1.00000e-13
832.23	1.00000e-13
833.21	1.00000e-13
834.18	1.00000e-13
835.14	1.39024e-5
836.11	1.00000e-13
837.08	1.00000e-13
838.05	4.51829e-6
839.02	1.00000e-13
839.99	8.34145e-6
840.96	1.00000e-13
841.93	1.00000e-13
842.90	1.27439e-5
843.87	1.11219e-5
844.85	1.00000e-13
845.82	1.00000e-13
846.79	1.00000e-13
847.76	6.95121e-6
848.73	1.00000e-13
849.70	1.00000e-13
850.66	4.98170e-6
851.64	9.61584e-6
852.61	1.00000e-13
853.57	1.00000e-13
854.54	1.00000e-13
855.52	1.00000e-13
856.48	4.40243e-6
857.45	1.00000e-13
858.42	1.00000e-13
859.39	1.00000e-13
860.37	1.00000e-13
861.34	1.00000e-13
862.30	1.00000e-13
863.28	1.00000e-13
864.25	1.00000e-13
865.21	1.00000e-13
866.18	1.00000e-13
867.15	3.47560e-6
868.12	1.00000e-13
869.10	1.00000e-13
870.06	1.00000e-13
871.04	1.00000e-13
872.00	1.00000e-13
872.97	1.00000e-13
873.94	1.90000e-5
874.91	1.00000e-13
875.88	1.28597e-5
876.86	1.00000e-13
877.83	1.00000e-13
878.79	7.29877e-6
879.76	1.00000e-13
880.74	3.69573e-5
881.70	1.00000e-13
882.67	2.07378e-5
883.65	1.00000e-13
884.62	1.00000e-13
885.58	1.00000e-13
886.55	1.00000e-13
887.53	1.00000e-13
888.49	9.38413e-6
889.46	1.00000e-13
890.43	1.00000e-13
891.40	1.00000e-13
892.38	1.00000e-13
893.34	4.05487e-6
894.31	1.00000e-13
895.28	1.00000e-13
896.26	1.00000e-13
897.22	1.00000e-13
898.20	1.00000e-13
899.16	2.16646e-5
900.14	1.00000e-13
901.10	1.00000e-13
902.08	1.00000e-13
903.05	1.00000e-13
904.01	1.00000e-13
904.98	1.00000e-13
905.95	2.43292e-6
906.93	1.00000e-13
907.89	1.00000e-13
908.86	1.00000e-13
909.83	1.00000e-13
910.80	1.00000e-13
911.77	1.00000e-13
912.74	1.00000e-13
913.71	1.00000e-13
914.68	1.00000e-13
915.65	1.00000e-13
916.62	1.00000e-13
917.59	5.79267e-7
918.56	1.00000e-13
919.54	1.00000e-13
920.50	1.00000e-13
921.47	1.00000e-13
922.44	1.00000e-13
923.41	1.00000e-13
924.38	1.00000e-13
925.35	1.00000e-13
926.32	1.00000e-13
927.29	1.00000e-13
928.27	1.00000e-13
929.23	1.00000e-13
930.21	1.00000e-13
931.17	1.00000e-13
932.14	6.14023e-6
933.11	1.00000e-13
934.08	1.00000e-13
935.05	1.00000e-13
936.03	1.00000e-13
936.99	1.00000e-13
937.96	1.00000e-13
938.94	1.00000e-13
939.90	1.00000e-13
940.87	1.00000e-13
941.85	1.00000e-13
942.81	1.96951e-6
943.78	1.00000e-13
944.76	1.00000e-13
945.72	1.00000e-13
946.69	1.00000e-13
947.66	1.11219e-5
948.63	1.00000e-13
949.60	1.00000e-13
950.58	1.00000e-13
951.54	1.00000e-13
952.51	1.00000e-13
953.48	1.00000e-13
954.46	1.00000e-13
955.42	1.00000e-13
956.39	2.89634e-6
957.36	1.00000e-13
958.33	1.00000e-13
959.30	1.00000e-13
960.27	1.00000e-13
961.24	2.66463e-6
962.21	1.00000e-13
963.18	1.00000e-13
964.15	1.00000e-13
965.12	1.00000e-13
966.09	4.63414e-7
967.06	1.00000e-13
968.03	1.00000e-13
969.00	1.00000e-13
969.97	3.05853e-5
970.94	1.00000e-13
971.91	6.60365e-6
972.88	1.00000e-13
973.85	1.00000e-13
974.82	1.00000e-13
975.79	1.61036e-5
976.76	1.00000e-13
977.73	1.65670e-5
978.70	1.00000e-13
979.67	6.71950e-6
980.64	1.00000e-13
981.61	1.00000e-13
982.58	2.54878e-6
983.55	1.00000e-13
984.52	1.00000e-13
985.49	1.30914e-5
986.46	1.00000e-13
987.43	1.00000e-13
988.40	1.00000e-13
989.37	1.20488e-5
990.34	1.00000e-13
991.31	1.00000e-13
992.28	1.00000e-13
993.25	1.00000e-13
994.22	1.00000e-13
995.19	1.00000e-13
996.16	1.00000e-13
997.13	9.26828e-6
998.10	1.00000e-13
999.07	1.00000e-13
1000.04	1.00000e-13
1001.01	1.00000e-13
1001.98	1.00000e-13
1002.95	1.00000e-13
1003.92	1.00000e-13
1004.89	1.00000e-13
1005.86	1.00000e-13
1006.83	1.00000e-13
1007.80	1.00000e-13
1008.77	3.93902e-6
1009.74	1.00000e-13
1010.71	1.00000e-13
1011.68	3.01219e-6
1012.65	1.12378e-5
1013.62	1.00000e-13
1014.59	1.00000e-13
1015.56	1.00000e-13
1016.53	1.00000e-13
1017.50	1.00000e-13
1018.47	1.00000e-13
1019.44	1.00000e-13
1020.41	9.61584e-6
1021.38	4.63414e-6
1022.35	1.57561e-5
1023.32	1.96951e-6
1024.29	1.00000e-13
1025.26	1.00000e-13
1026.23	1.00000e-13
1027.20	1.00000e-13
1028.17	1.00000e-13
1029.14	1.00000e-13
1030.11	1.00000e-13
1031.08	8.10974e-7
1032.05	1.06585e-5
1033.02	1.00000e-13
1033.99	1.00000e-13
1034.96	1.00000e-13
1035.93	2.20122e-6
1036.90	5.21341e-6
1037.87	1.00000e-13
1038.84	1.00000e-13
1039.81	1.00000e-13
1040.78	1.00000e-13
1041.75	1.00000e-13
1042.72	1.00000e-13
1043.69	1.00000e-13
1044.66	1.00000e-13
1045.63	1.00000e-13
1046.60	1.00000e-13
1047.57	1.00000e-13
1048.54	1.00000e-13
1049.51	1.00000e-13
1050.48	1.00000e-13
1051.45	1.00000e-13
1052.42	1.00000e-13
1053.39	1.00000e-13
1054.36	1.00000e-13
1055.33	1.00000e-13
1056.30	1.00000e-13
1057.27	1.00000e-13
1058.24	1.00000e-13
1059.21	1.00000e-13
1060.18	1.00000e-13
1061.15	1.00000e-13
1062.12	9.26828e-7
1063.09	1.64512e-5
1064.06	2.50244e-5
1065.03	1.00000e-13
1066.00	1.00000e-13
1066.97	1.00000e-13
1067.94	1.00000e-13
1068.91	4.74999e-6
1069.88	1.00000e-13
1070.85	1.00000e-13
1071.82	1.00000e-13
1072.79	1.00000e-13
1073.76	1.00000e-13
1074.73	1.00000e-13
1075.70	1.00000e-13
1076.67	1.00000e-13
1077.64	1.00000e-13
1078.61	1.00000e-13
1079.58	1.00000e-13
1080.55	1.00000e-13
1081.52	1.00000e-13
1082.49	1.00000e-13
1083.46	1.00000e-13
1084.43	1.00000e-13
1085.40	1.00000e-13
1086.37	1.00000e-13
1087.34	1.00000e-13
1088.31	1.00000e-13
1089.28	1.00000e-13
1090.25	1.00000e-13
1091.22	5.90853e-6
1092.19	1.00000e-13
1093.16	1.00000e-13
1094.13	1.00000e-13
1095.10	3.82316e-6
1096.07	2.66463e-6
1097.04	1.00000e-13
1098.01	1.00000e-13
1098.98	1.00000e-13
1099.95	1.00000e-13
1100.92	1.00000e-13
1101.89	1.69146e-5
1102.86	1.00000e-13
1103.83	1.54085e-5
1104.80	1.00000e-13
1105.77	1.00000e-13
1106.74	1.00000e-13
1107.71	1.00000e-13
1108.68	1.00000e-13
1109.65	1.00000e-13
1110.62	1.00000e-13
1111.59	2.16646e-5
1112.56	1.00000e-13
1113.53	1.00000e-13
1114.50	1.00000e-13
1115.47	1.00000e-13
1116.44	1.00000e-13
1117.41	1.00000e-13
1118.38	1.00000e-13
1119.35	1.00000e-13
1120.32	1.00000e-13
1121.29	1.00000e-13
1122.26	1.00000e-13
1123.23	7.64633e-6
1124.20	1.35549e-5
1125.17	1.00000e-13
1126.14	1.00000e-13
1127.11	1.00000e-13
1128.08	1.00000e-13
1129.05	2.08536e-6
1130.02	1.00000e-13
1130.99	1.00000e-13
1131.96	5.44511e-6
1132.93	1.00000e-13
1133.90	1.00000e-13
1134.87	1.00000e-13
1135.84	1.00000e-13
1136.81	1.00000e-13
1137.78	1.00000e-13
1138.75	8.10974e-6
1139.72	1.00000e-13
1140.69	1.00000e-13
1141.66	6.25609e-6
1142.63	1.00000e-13
1143.60	1.00000e-13
1144.57	1.00000e-13
1145.54	1.00000e-13
1146.51	1.00000e-13
1147.48	1.00000e-13
1148.45	1.00000e-13
1149.42	1.00000e-13
1150.39	1.00000e-13
1151.36	6.14023e-6
1152.33	1.00000e-13
1153.30	1.58719e-5
1154.27	5.79267e-7
1155.24	1.00000e-13
1156.21	1.00000e-13
1157.18	1.00000e-13
1158.15	1.00000e-13
1159.12	3.13963e-5
1160.09	1.00000e-13
1161.06	1.00000e-13
1162.03	1.00000e-13
1163.00	3.56829e-5
1163.97	1.00000e-13
1164.94	1.00000e-13
1165.91	4.58780e-5
1166.88	1.00000e-13
1167.85	1.00000e-13
1168.82	1.00000e-13
1169.79	1.00000e-13
1170.76	1.00000e-13
1171.73	1.00000e-13
1172.70	1.00000e-13
1173.67	6.48779e-6
1174.64	1.00000e-13
1175.61	1.00000e-13
1176.58	1.00000e-13
1177.55	1.00000e-13
1178.52	1.00000e-13
1179.49	1.00000e-13
1180.46	1.00000e-13
1181.43	1.00000e-13
1182.40	7.99389e-6
1183.37	1.00000e-13
1184.34	1.00000e-13
1185.31	1.00000e-13
1186.28	9.38413e-6
1187.25	1.00000e-13
1188.22	1.00000e-13
1189.19	1.00000e-13
1190.16	1.00000e-13
1191.13	2.71097e-5
1192.10	1.00000e-13
1193.07	1.00000e-13
1194.04	1.00000e-13
1195.01	1.00000e-13
1195.98	1.00000e-13
1196.95	1.00000e-13
1197.92	1.00000e-13
1198.89	1.00000e-13
1199.86	1.00000e-13
1200.83	2.79207e-5
1201.80	1.00000e-13
1202.77	1.00000e-13
1203.74	1.73780e-5
1204.71	1.00000e-13
1205.68	1.00000e-13
1206.65	1.00000e-13
1207.62	1.00000e-13
1208.59	1.00000e-13
1209.56	1.00000e-13
1210.53	1.00000e-13
1211.50	1.00000e-13
1212.47	1.00000e-13
1213.44	1.00000e-13
1214.41	1.00000e-13
1215.38	1.00000e-13
1216.35	1.00000e-13
1217.32	1.00000e-13
1218.29	1.00000e-13
1219.26	1.00000e-13
1220.23	1.00000e-13
1221.20	1.00000e-13
1222.17	1.94634e-5
1223.14	1.00000e-13
1224.11	1.00000e-13
1225.08	1.00000e-13
1226.05	1.00000e-13
1227.02	3.35975e-6
1227.99	1.39024e-6
1228.96	1.00000e-13
1229.93	1.00000e-13
1230.90	1.00000e-13
1231.87	1.00000e-13
1232.84	1.00000e-13
1233.81	1.00000e-13
1234.78	1.00000e-13
1235.75	1.00000e-13
1236.72	3.47560e-7
1237.69	1.00000e-13
1238.66	6.71950e-6
1239.63	1.00000e-13
1240.60	1.00000e-13
1241.57	1.67988e-5
1242.54	1.00000e-13
1243.51	1.00000e-13
1244.48	1.00000e-13
1245.45	1.00000e-13
1246.42	1.00000e-13
1247.39	1.00000e-13
1248.36	1.00000e-13
1249.33	1.00000e-13
1250.29	1.00000e-13
1251.26	1.00000e-13
1252.24	1.00000e-13
1253.21	1.00000e-13
1254.18	1.00000e-13
1255.15	1.00000e-13
1256.12	1.00000e-13
1257.09	1.00000e-13
1258.06	1.00000e-13
1259.03	1.00000e-13
1260.00	1.00000e-13
1260.97	3.03536e-5
1261.94	1.91158e-5
1262.91	1.00000e-13
1263.88	1.00000e-13
1264.84	2.85000e-5
1265.81	1.00000e-13
1266.79	1.00000e-13
1267.76	1.00000e-13
1268.72	6.23292e-5
1269.70	1.04036e-4
1270.67	2.92298e-4
1271.63	6.79365e-4
1272.61	1.06458e-3
1273.57	2.48471e-3
1274.54	3.84900e-3
1275.52	6.84034e-3
1276.49	0.0112853
1277.46	0.0159640
1278.43	0.0204653
1279.40	0.0205722
1280.36	0.0169345
1281.34	0.0101376
1282.31	5.57244e-3
1283.27	2.28451e-3
1284.25	6.26767e-4
1285.21	3.02725e-4
1286.19	1.93128e-4
1287.15	8.01706e-5
1288.13	7.35670e-5
1289.09	5.36402e-5
1290.06	2.81524e-5
1291.03	1.59878e-5
1292.00	3.76524e-5
1292.98	1.76097e-5
1293.95	1.00000e-13
1294.92	1.00000e-13
1295.88	1.00000e-13
1296.86	1.00000e-13
1297.82	3.24390e-6
1298.80	1.00000e-13
1299.77	1.00000e-13
1300.73	1.00000e-13
1301.70	1.00000e-13
1302.68	1.00000e-13
1303.64	1.00000e-13
1304.61	1.00000e-13
1305.58	1.00000e-13
1306.56	1.00000e-13
1307.52	1.00000e-13
1308.49	1.00000e-13
1309.47	1.00000e-13
1310.44	1.00000e-13
1311.41	1.00000e-13
1312.38	1.00000e-13
1313.34	1.00000e-13
1314.32	1.00000e-13