File: data/TGA/005d-B/005dB1-toyopearls TG.txt
Filename	005dB1-toyopearls
Instrument name
Operator	Gwenael
rundate	2025-01-13
Sample name	005dB1-toyopearls
[step]
Step 1
Time	Temperature	Weight	Weight	Deriv. Weight
min	°C	mg	%	% / °C
0.01	26.66	4.224	99.944	-2.07129e-3
0.98	27.89	4.238	100.287	-2.62622e-3
2.03	29.82	4.239	100.313	-3.21805e-3
3.08	33.38	4.240	100.324	-3.81550e-3
4.13	38.20	4.240	100.323	-4.37792e-3
5.18	43.53	4.240	100.324	-4.89410e-3
6.23	48.84	4.239	100.304	-5.36378e-3
7.28	53.97	4.239	100.306	-5.79198e-3
8.33	58.93	4.238	100.283	-6.18517e-3
9.38	63.85	4.238	100.277	-6.54825e-3
10.43	68.84	4.237	100.270	-6.87552e-3
11.48	73.95	4.236	100.236	-7.14318e-3
12.53	79.16	4.234	100.201	-7.36235e-3
13.58	84.45	4.232	100.148	-7.53984e-3
14.63	89.77	4.231	100.110	-7.68250e-3
15.68	95.12	4.228	100.059	-8.34952e-3
16.73	99.58	4.225	99.988	-8.97518e-3
17.78	102.10	4.223	99.927	-9.58825e-3
18.83	102.99	4.221	99.871	-0.0102663
19.88	102.92	4.219	99.841	-0.0109946
20.93	102.39	4.217	99.793	-0.0117817
21.98	101.70	4.216	99.764	-0.0126626
23.03	101.01	4.215	99.737	-0.0136769
24.08	100.41	4.214	99.711	-0.0147896
25.13	100.02	4.213	99.698	-0.0160316
26.18	101.16	4.214	99.710	-0.0173820
27.23	104.61	4.214	99.711	-0.0188194
28.28	109.38	4.213	99.690	-0.0202987
29.33	114.46	4.212	99.675	-0.0218100
30.38	119.46	4.211	99.643	-0.0232513
31.43	124.43	4.209	99.588	-0.0246535
32.47	129.45	4.206	99.535	-0.0260238
33.53	134.59	4.203	99.448	-0.0273885
34.58	139.81	4.199	99.351	-0.0287621
35.63	145.09	4.193	99.224	-0.0301693
36.68	150.41	4.187	99.089	-0.0316300
37.73	155.73	4.180	98.918	-0.0331621
38.78	161.04	4.173	98.742	-0.0347898
39.83	166.33	4.164	98.539	-0.0365517
40.88	171.59	4.154	98.301	-0.0384536
41.93	176.85	4.144	98.056	-0.0404126
42.98	182.11	4.133	97.801	-0.0423130
44.03	187.38	4.122	97.529	-0.0440816
45.08	192.64	4.111	97.267	-0.0456965
46.13	197.89	4.098	96.981	-0.0471708
47.18	203.13	4.086	96.697	-0.0484619
48.23	208.37	4.074	96.415	-0.0494256
49.28	213.62	4.063	96.136	-0.0502700
50.33	218.88	4.051	95.856	-0.0510093
51.38	224.14	4.039	95.574	-0.0516882
52.43	229.39	4.027	95.300	-0.0524401
53.48	234.66	4.016	95.026	-0.0533223
54.53	239.92	4.004	94.749	-0.0543427
55.58	245.18	3.992	94.471	-0.0555071
56.63	250.44	3.981	94.193	-0.0568217
57.68	255.70	3.969	93.915	-0.0582873
58.73	260.96	3.956	93.621	-0.0598893
59.78	266.22	3.944	93.334	-0.0616451
60.83	271.47	3.932	93.042	-0.0635476
61.88	276.73	3.919	92.745	-0.0656403
62.93	281.99	3.914	92.605	-0.0679500
63.98	287.25	3.901	92.310	-0.0705143
65.03	292.53	3.887	91.975	-0.0733744
66.07	297.35	3.873	91.637	-0.0765898
67.13	300.05	3.858	91.297	-0.0802388
68.18	301.34	3.846	91.003	-0.0844073
69.23	301.87	3.834	90.728	-0.0892111
70.28	301.81	3.824	90.489	-0.0948223
71.33	301.36	3.815	90.279	-0.101451
72.38	300.80	3.807	90.087	-0.109430
73.43	300.28	3.800	89.915	-0.119307
74.48	299.91	3.794	89.767	-0.131826
75.53	299.71	3.787	89.616	-0.148271
76.58	299.66	3.781	89.481	-0.170895
77.63	299.71	3.776	89.348	-0.200439
78.68	299.82	3.771	89.226	-0.231245
79.73	299.92	3.765	89.098	-0.215354
80.78	300.01	3.760	88.976	0.265259
81.83	300.06	3.755	88.857	1.08469
82.88	300.08	3.750	88.744	1.13604
83.93	300.07	3.746	88.638	1.06375
84.98	300.05	3.742	88.537	1.04449
86.03	300.02	3.737	88.421	0.989736
87.08	300.00	3.733	88.324	0.313047
88.13	299.99	3.728	88.219	-2.50197
89.18	299.99	3.724	88.121	-4.58722
90.23	299.99	3.720	88.019	-4.44761
91.28	299.99	3.716	87.929	-4.19466
92.33	300.00	3.712	87.829	-3.86516
93.38	300.00	3.708	87.741	-1.58423
94.43	300.00	3.704	87.645	8.50759
95.48	300.01	3.700	87.555	19.2459
96.53	300.00	3.696	87.465	19.6617
97.58	300.00	3.693	87.379	19.0204
98.63	300.00	3.689	87.294	19.2479
99.68	300.00	3.685	87.206	16.9876
100.73	300.00	3.682	87.121	-5.35705
101.78	300.00	3.678	87.030	-55.4831
102.83	300.00	3.674	86.937	-64.7326
103.88	300.00	3.671	86.866	-51.2469
104.93	300.00	3.668	86.785	-23.7776
105.98	300.00	3.664	86.703	50.5510
107.03	300.00	3.660	86.615	188.632
108.08	300.00	3.657	86.534	266.136
109.13	300.00	3.653	86.443	262.319
110.18	300.00	3.650	86.380	259.625
111.23	300.00	3.647	86.307	271.175
112.28	300.00	3.643	86.214	232.571
113.33	300.00	3.640	86.144	217.397
114.38	300.00	3.637	86.063	209.097
115.43	300.00	3.634	85.991	162.507
116.48	300.00	3.631	85.910	97.3596
117.53	300.00	3.627	85.834	48.0090
118.58	300.00	3.624	85.759	35.9896
119.63	300.00	3.621	85.683	-19.2403
120.68	300.00	3.618	85.610	-70.8345
121.73	300.00	3.615	85.532	-102.722
122.78	300.00	3.611	85.459	-127.553
123.83	300.00	3.608	85.384	-158.851
124.88	300.00	3.605	85.313	-151.988
125.93	300.00	3.602	85.235	-152.565
126.98	300.00	3.600	85.176	-127.158
128.02	300.00	3.596	85.093	-143.984
129.08	300.00	3.593	85.020	-196.409
130.13	300.00	3.590	84.949	-222.996
131.18	300.00	3.587	84.878	-187.156
132.23	300.00	3.583	84.795	-153.465
133.27	300.00	3.581	84.742	-157.898
134.33	300.00	3.578	84.674	-148.500
135.38	300.00	3.574	84.583	-128.990
136.43	300.00	3.572	84.525	-113.183
137.48	300.00	3.569	84.462	-119.159
138.53	300.00	3.566	84.388	-87.7891
139.58	300.00	3.563	84.322	-46.7488
140.63	300.00	3.561	84.253	41.7073
141.68	300.00	3.558	84.186	77.8709
142.73	300.00	3.555	84.111	96.7723
143.78	300.00	3.552	84.046	124.796
144.83	300.00	3.549	83.976	199.493
145.88	300.00	3.546	83.915	240.262
146.93	300.00	3.543	83.844	234.774
147.98	300.00	3.541	83.781	241.392
149.03	300.00	3.538	83.709	248.193
150.08	300.00	3.535	83.651	225.276
151.13	300.00	3.532	83.577	211.314
152.18	300.00	3.529	83.517	170.283
153.23	300.00	3.527	83.448	132.722
154.28	300.00	3.524	83.383	97.8035
155.33	300.00	3.521	83.328	58.2692
156.38	300.00	3.518	83.250	4.36559
157.43	300.00	3.516	83.188	-23.1015
158.48	300.00	3.513	83.137	-38.4357
159.53	300.00	3.510	83.068	-65.7437
160.58	300.00	3.507	82.992	-86.8554
161.63	300.00	3.505	82.936	-69.6027
162.68	300.00	3.502	82.864	-93.8964
163.73	300.00	3.499	82.801	-131.206
164.78	300.00	3.497	82.746	-163.953
165.83	300.00	3.494	82.668	-193.331
166.88	300.00	3.491	82.606	-260.640
167.93	300.00	3.488	82.544	-292.057
168.98	300.00	3.486	82.482	-299.463
170.03	300.00	3.483	82.416	-290.416
171.08	300.00	3.480	82.352	-228.190
172.13	300.00	3.478	82.291	-178.017
173.18	300.00	3.475	82.230	-118.490
174.23	300.00	3.472	82.161	-85.2217
175.28	300.00	3.470	82.103	-31.7887
176.33	300.00	3.467	82.045	-1.61623
177.38	300.00	3.464	81.979	-14.0618
178.43	300.00	3.462	81.919	-6.39217
179.48	300.00	3.459	81.857	15.7568
180.53	300.00	3.457	81.802	52.1586
181.58	300.00	3.454	81.737	108.673
182.63	300.00	3.452	81.685	131.508
183.68	300.00	3.449	81.615	164.559
184.73	300.00	3.446	81.553	180.774
185.78	300.00	3.444	81.499	161.663
186.83	300.00	3.441	81.434	130.246
187.88	300.00	3.439	81.376	116.460
188.93	300.00	3.436	81.314	83.7300
189.98	300.00	3.434	81.262	59.1711
191.03	300.00	3.431	81.189	69.6711
192.08	300.00	3.429	81.142	87.9931
193.13	300.00	3.427	81.086	104.279
194.18	300.00	3.424	81.026	94.9055
195.23	300.00	3.422	80.967	107.694
196.28	300.00	3.419	80.907	93.8713
197.33	300.00	3.417	80.851	51.2243
198.38	300.00	3.414	80.789	20.9880
199.43	300.00	3.412	80.736	-40.5595
200.48	300.00	3.409	80.674	-71.6638
201.53	300.00	3.407	80.622	-77.9662
202.58	300.00	3.405	80.564	-85.8984
203.63	300.00	3.402	80.513	-52.2346
204.68	300.00	3.400	80.450	-31.3981
205.73	300.00	3.397	80.388	-0.171500
206.78	300.00	3.395	80.347	-6.18932
207.83	300.00	3.393	80.280	-42.3752
208.88	300.00	3.390	80.222	-84.7156
209.93	300.00	3.388	80.164	-70.6367
210.98	300.00	3.386	80.116	-42.2278
212.03	300.00	3.383	80.053	38.8262
213.08	300.00	3.381	80.004	77.8523
214.13	300.00	3.379	79.946	75.2252
215.18	300.00	3.376	79.890	65.7768
216.23	300.00	3.374	79.830	35.6611
217.28	300.00	3.371	79.780	-12.4851
218.33	300.00	3.369	79.726	-57.4727
219.38	300.00	3.367	79.670	-102.342
220.43	300.00	3.364	79.612	-129.006
221.48	300.00	3.362	79.559	-120.143
222.53	300.00	3.360	79.501	-93.6196
223.58	300.00	3.357	79.441	-49.1670
224.63	300.00	3.356	79.404	1.11513
225.68	300.00	3.353	79.342	38.2926
226.73	300.00	3.351	79.287	-1.80154
227.78	300.00	3.348	79.231	11.2991
228.83	300.00	3.346	79.179	70.1880
229.88	300.00	3.344	79.123	67.0178
230.93	300.00	3.341	79.067	65.0456
231.98	300.00	3.339	79.021	59.0079
233.03	300.00	3.337	78.968	37.5001
234.08	300.00	3.335	78.917	-10.6534
235.13	300.00	3.333	78.863	-26.0625
236.18	300.00	3.331	78.812	-35.9974
237.23	300.00	3.328	78.756	-44.8560
238.28	300.00	3.326	78.706	-82.0877
239.33	300.00	3.323	78.642	-82.3642
240.38	300.00	3.322	78.600	-85.2498
241.43	300.00	3.320	78.550	-64.3736
242.48	300.00	3.317	78.496	12.2303
243.53	300.00	3.315	78.444	48.8656
244.58	300.00	3.313	78.391	63.6966
245.63	300.00	3.311	78.343	93.1308
246.68	300.00	3.308	78.288	109.526
247.73	300.00	3.306	78.241	125.086
248.78	300.00	3.304	78.183	116.316
249.83	300.00	3.302	78.136	72.5580
250.88	300.00	3.300	78.086	6.51857
251.93	300.00	3.298	78.035	-22.6913
252.98	300.00	3.295	77.976	-20.0195
254.03	300.00	3.294	77.940	-17.6399
255.08	300.00	3.291	77.881	-24.5016
256.13	300.00	3.289	77.831	-36.8824
257.17	300.00	3.287	77.780	-84.4457
258.23	300.00	3.284	77.721	-78.4211
259.28	300.00	3.283	77.690	-53.0003
260.33	300.00	3.281	77.630	-24.5113
261.38	300.00	3.278	77.578	-0.605926
262.42	300.00	3.277	77.536	21.0584
263.48	300.00	3.274	77.478	24.5629
264.53	300.00	3.272	77.429	-16.6564
265.58	300.00	3.270	77.380	-41.4535
266.63	300.00	3.268	77.329	-43.2800
267.67	300.00	3.266	77.281	-28.0377
268.73	300.00	3.264	77.228	-44.3028
269.78	300.00	3.261	77.177	-34.6493
270.83	300.00	3.260	77.135	-29.7508
271.88	300.00	3.257	77.078	-24.8744
272.92	300.00	3.256	77.038	-19.6592
273.98	300.00	3.253	76.983	-22.2731
275.03	300.00	3.251	76.933	-0.430314
276.08	300.00	3.249	76.885	33.4020
277.13	300.00	3.247	76.831	44.4858
278.18	300.00	3.245	76.785	86.2327
279.23	300.00	3.243	76.734	116.651
280.28	300.00	3.240	76.677	114.646
281.33	300.00	3.239	76.646	90.5407
282.38	300.00	3.236	76.578	102.599
283.43	300.00	3.235	76.545	102.687
284.48	300.00	3.233	76.497	93.0331
285.53	300.00	3.231	76.448	82.0361
286.58	300.00	3.229	76.399	79.3732
287.63	300.00	3.227	76.349	53.8677
288.68	300.00	3.224	76.301	34.5517
289.73	300.00	3.222	76.253	32.4989
290.78	300.00	3.221	76.209	16.7943
291.83	300.00	3.219	76.161	-11.2040
292.88	300.00	3.217	76.114	-41.8565
293.93	300.00	3.214	76.063	-59.9846
294.98	300.00	3.213	76.020	-118.066
296.03	300.00	3.210	75.965	-157.126
297.08	300.00	3.209	75.926	-148.063
298.13	300.00	3.206	75.873	-99.3952
299.18	300.00	3.205	75.829	-11.9685
300.23	300.00	3.203	75.782	49.0132
301.28	300.00	3.201	75.746	101.977
302.33	300.00	3.199	75.693	71.9552
303.38	300.00	3.197	75.644	12.6122
304.43	300.00	3.195	75.601	-47.3259
305.48	300.00	3.194	75.570	-85.8519
306.53	300.00	3.191	75.506	-88.2364
307.58	300.00	3.189	75.468	-102.069
308.63	300.00	3.187	75.411	-106.327
309.68	300.00	3.185	75.362	-58.8914
310.73	300.00	3.183	75.313	-5.90037
311.78	300.00	3.181	75.275	32.2102
312.83	300.00	3.179	75.227	61.0801
313.88	300.00	3.177	75.179	73.0420
314.93	300.00	3.175	75.133	73.6407
315.98	300.00	3.173	75.087	92.9324
317.03	300.00	3.171	75.043	118.332
318.08	300.00	3.169	74.997	124.206
319.13	300.00	3.167	74.949	112.650
320.18	300.00	3.166	74.905	77.5980
321.23	300.00	3.164	74.859	44.4892
322.28	300.00	3.162	74.818	26.6366
323.33	300.00	3.160	74.772	17.5595
324.38	300.00	3.158	74.726	11.8762
325.43	300.00	3.156	74.685	3.04898
326.48	300.00	3.154	74.642	22.3769
327.53	300.00	3.152	74.582	11.8210
328.58	300.00	3.150	74.538	17.0367
329.63	300.00	3.149	74.509	22.5050
330.68	300.00	3.147	74.467	7.34570
331.73	300.00	3.145	74.416	36.5330
332.78	300.00	3.143	74.369	24.7645
333.83	300.00	3.141	74.318	16.3696
334.88	300.00	3.139	74.270	-14.9885
335.93	300.00	3.137	74.234	-78.4716
336.98	300.00	3.135	74.195	-85.3376
338.03	300.00	3.133	74.146	-128.309
339.08	300.00	3.131	74.101	-151.070
340.13	300.00	3.130	74.059	-150.054
341.18	300.00	3.128	74.012	-121.354
342.23	300.00	3.126	73.969	-75.0834
343.28	300.00	3.124	73.928	-47.3535
344.33	300.00	3.122	73.879	-59.3463
345.38	300.00	3.120	73.835	-76.8085
346.43	300.00	3.119	73.795	-72.5953
347.48	300.00	3.117	73.751	-74.8779
348.53	300.00	3.115	73.709	-46.6728
349.58	300.00	3.113	73.662	-17.8550
350.63	300.00	3.111	73.619	-12.8534
351.68	300.00	3.109	73.579	-18.3717
352.73	300.00	3.108	73.540	-15.7536
353.78	300.00	3.106	73.491	-10.9002
354.83	300.00	3.104	73.443	-20.3478
355.88	300.00	3.102	73.397	-28.8531
356.93	300.00	3.100	73.358	-27.9068
357.98	300.00	3.098	73.318	-42.3851
359.03	300.00	3.097	73.276	-24.3071
360.08	300.00	3.095	73.239	-8.60257
361.13	300.00	3.092	73.172	-18.5834
362.18	300.00	3.091	73.146	21.7145
363.23	300.00	3.089	73.105	47.7863
364.28	300.00	3.088	73.062	64.7070
365.33	300.00	3.086	73.020	66.0424
366.38	300.00	3.084	72.977	65.2120
367.43	300.00	3.082	72.936	68.7601
368.48	300.00	3.080	72.891	25.7424
369.53	300.00	3.079	72.849	9.66061
370.58	300.00	3.077	72.800	-15.3998
371.63	300.00	3.075	72.764	-10.4550
372.68	300.00	3.073	72.721	-13.7719
373.73	300.00	3.071	72.680	-36.6962
374.78	300.00	3.070	72.637	-59.0246
375.83	300.00	3.068	72.603	-76.5564
376.88	300.00	3.066	72.559	-112.843
377.93	300.00	3.064	72.508	-140.508
378.98	300.00	3.063	72.468	-108.621
380.03	300.00	3.061	72.426	-49.4032
381.08	300.00	3.059	72.388	26.0993
382.13	300.00	3.057	72.342	85.0602
383.18	300.00	3.056	72.305	110.194
384.23	300.00	3.054	72.263	101.073
385.28	300.00	3.052	72.215	60.9009
386.33	300.00	3.050	72.179	-3.45998
387.38	300.00	3.049	72.137	-69.5611
388.43	300.00	3.047	72.094	-79.5563
389.48	300.00	3.045	72.056	-71.8374
390.53	300.00	3.043	72.013	-58.8937
391.58	300.00	3.042	71.971	-41.3445
392.63	300.00	3.040	71.932	-0.478545
393.68	300.00	3.038	71.895	17.7084
394.73	300.00	3.036	71.846	13.2024
395.78	300.00	3.035	71.806	18.4194
396.83	300.00	3.033	71.765	46.6023
397.88	300.00	3.031	71.720	58.4561
398.93	300.00	3.029	71.684	51.5286
399.98	300.00	3.027	71.639	30.7087
401.03	300.00	3.026	71.608	30.2791
402.08	300.00	3.024	71.559	3.68016
403.13	300.00	3.023	71.525	-22.0200
404.18	300.00	3.021	71.482	-38.1806
405.23	300.00	3.019	71.441	-62.1983
406.28	300.00	3.017	71.395	-39.1494
407.33	300.00	3.015	71.353	-47.6126
408.38	300.00	3.014	71.323	-70.6090
409.43	300.00	3.012	71.271	-73.7342
410.48	300.00	3.010	71.236	-55.2659
411.53	300.00	3.009	71.196	-41.4504
412.58	300.00	3.007	71.157	-5.46461
413.63	300.00	3.005	71.119	23.2216
414.68	300.00	3.004	71.080	61.0235
415.73	300.00	3.002	71.037	85.7985
416.78	300.00	3.000	70.997	68.5967
417.83	300.00	2.999	70.957	29.4747
418.88	300.00	2.997	70.915	45.7988
419.93	300.00	2.995	70.878	50.3208
420.98	300.00	2.994	70.838	59.6988
422.03	300.00	2.992	70.799	46.0674
423.08	300.00	2.990	70.758	53.5380
424.13	300.00	2.988	70.713	85.2377
425.18	300.00	2.987	70.673	84.4623
426.23	300.00	2.985	70.633	116.972
427.28	300.00	2.984	70.615	144.237
428.33	300.00	2.982	70.565	153.604
429.38	300.00	2.981	70.528	123.771
430.43	300.00	2.979	70.485	122.299
431.48	300.00	2.977	70.441	91.3543
432.53	300.00	2.975	70.401	81.4374
433.58	300.00	2.974	70.373	65.9636
434.63	300.00	2.972	70.320	23.5304
435.68	300.00	2.970	70.284	5.28495
436.73	300.00	2.969	70.248	47.8499
437.78	300.00	2.967	70.208	45.7630
438.83	300.00	2.965	70.169	30.3880
439.88	300.00	2.964	70.131	22.5614
440.93	300.00	2.962	70.092	47.1025
441.98	300.00	2.961	70.055	28.0313
443.03	300.00	2.959	70.017	-12.9990
444.08	300.00	2.957	69.976	-56.0786
445.13	300.00	2.956	69.936	-65.4417
446.18	300.00	2.954	69.896	-80.2515
447.23	300.00	2.952	69.862	-97.6802
448.28	300.00	2.950	69.815	-107.229
449.33	300.00	2.949	69.788	-86.9922
450.38	300.00	2.947	69.738	-52.1383
451.43	300.00	2.946	69.705	-30.0119
452.48	300.00	2.944	69.660	-21.7611
453.53	300.00	2.943	69.630	-30.1963
454.58	300.00	2.941	69.586	-31.0394
455.63	300.00	2.939	69.549	-31.3969
456.68	300.00	2.938	69.515	-38.3369
457.73	300.00	2.936	69.474	-36.2576
458.78	300.00	2.934	69.439	-29.5008
459.83	300.00	2.933	69.397	-23.1269
460.88	300.00	2.931	69.360	-14.0446
461.93	300.00	2.930	69.325	-8.91539
462.98	300.00	2.928	69.287	-7.33314
464.03	300.00	2.926	69.244	2.31585
465.08	300.00	2.925	69.210	-1.41445
466.13	300.00	2.923	69.175	10.4497
467.18	300.00	2.921	69.127	13.4553
468.23	300.00	2.920	69.087	14.0979
469.28	300.00	2.918	69.059	29.1135
470.33	300.00	2.917	69.020	41.9655
471.38	300.00	2.915	68.988	72.3507
472.43	300.00	2.914	68.951	78.4085
473.48	300.00	2.912	68.907	77.4740
474.53	300.00	2.911	68.890	66.2923
475.58	300.00	2.909	68.845	28.1842
476.63	300.00	2.907	68.798	-47.9603
477.68	300.00	2.906	68.769	-99.6133
478.73	300.00	2.904	68.721	-128.297
479.78	300.00	2.903	68.684	-131.335
480.83	300.00	2.901	68.651	-132.025
481.88	300.00	2.899	68.608	-127.656
482.93	300.00	2.898	68.575	-85.3749
483.98	300.00	2.896	68.539	-64.6436
485.03	300.00	2.895	68.500	-29.4202
486.08	300.00	2.893	68.465	3.12662
487.13	300.00	2.892	68.425	14.8553
488.18	300.00	2.890	68.385	29.2385
489.23	300.00	2.888	68.350	53.1424
490.28	300.00	2.887	68.314	47.5080
491.33	300.00	2.885	68.272	61.4702
492.38	300.00	2.884	68.254	71.5784
493.43	300.00	2.882	68.206	83.1118
494.48	300.00	2.881	68.168	96.1187
495.53	300.00	2.879	68.122	101.013
496.58	300.00	2.878	68.095	73.9077
497.63	300.00	2.876	68.051	30.1872
498.68	300.00	2.875	68.023	18.2696
499.73	300.00	2.873	67.986	14.9512
500.78	300.00	2.871	67.941	26.6065
501.83	300.00	2.870	67.901	36.1761
502.88	300.00	2.868	67.877	40.1420
503.93	300.00	2.867	67.840	48.6894
504.98	300.00	2.865	67.801	53.2498
506.03	300.00	2.864	67.764	37.6574
507.08	300.00	2.863	67.736	6.94814
508.13	300.00	2.861	67.694	-5.49752
509.18	300.00	2.859	67.657	-26.1004
510.23	300.00	2.858	67.623	-55.1284
511.28	300.00	2.856	67.588	-80.0915
512.33	300.00	2.855	67.549	-83.6778
513.38	300.00	2.853	67.514	-79.3123
514.43	300.00	2.852	67.479	-64.9488
515.47	300.00	2.850	67.440	-50.7538
516.53	300.00	2.848	67.399	-30.0235
517.58	300.00	2.847	67.372	-12.6311
518.63	300.00	2.846	67.335	14.9493
519.68	300.00	2.844	67.306	25.1423
520.72	300.00	2.842	67.258	17.4233
521.78	300.00	2.841	67.226	35.0916
522.83	300.00	2.839	67.188	38.5124
523.88	300.00	2.838	67.160	28.2665
524.93	300.00	2.837	67.121	11.1215
525.97	300.00	2.835	67.087	-4.05979
527.03	300.00	2.834	67.050	-42.9809
528.08	300.00	2.832	67.014	-84.0671
529.13	300.00	2.830	66.977	-89.2406
530.18	300.00	2.829	66.941	-63.9347
531.22	300.00	2.827	66.900	-36.5950
532.28	300.00	2.826	66.872	-16.6143
533.33	300.00	2.824	66.835	-7.38043
534.38	300.00	2.823	66.801	4.78593
535.43	300.00	2.822	66.766	7.78987
536.47	300.00	2.820	66.729	-1.52874
537.53	300.00	2.818	66.691	-25.5162
538.58	300.00	2.817	66.658	-18.2362
539.63	300.00	2.815	66.618	-10.7434
540.68	300.00	2.814	66.588	-3.60221
541.72	300.00	2.813	66.553	37.0581
542.78	300.00	2.811	66.516	42.4926
543.83	300.00	2.810	66.482	42.6152
544.88	300.00	2.808	66.442	33.0187
545.93	300.00	2.807	66.416	65.3235
546.98	300.00	2.805	66.372	77.7208
548.03	300.00	2.804	66.343	83.6127
549.08	300.00	2.802	66.308	84.7204
550.13	300.00	2.801	66.272	36.5228
551.18	300.00	2.799	66.222	22.8613
552.23	300.00	2.798	66.209	15.5721
553.28	300.00	2.796	66.171	0.634184
554.33	300.00	2.795	66.133	-16.3333
555.38	300.00	2.793	66.102	-43.1917
556.43	300.00	2.792	66.065	-61.5261
557.48	300.00	2.790	66.030	-71.0523
558.53	300.00	2.789	65.995	-78.4718
559.58	300.00	2.788	65.961	-36.3470
560.63	300.00	2.786	65.926	7.90793
561.68	300.00	2.785	65.893	39.3410
562.73	300.00	2.783	65.856	44.2882
563.78	300.00	2.782	65.830	37.4233
564.83	300.00	2.780	65.781	4.41951
565.88	300.00	2.779	65.752	-34.0435
566.93	300.00	2.777	65.718	-56.5936
567.98	300.00	2.776	65.685	-55.0680
569.03	300.00	2.774	65.644	-59.5288
570.08	300.00	2.773	65.614	-48.0679
571.13	300.00	2.771	65.580	-32.5885
572.18	300.00	2.770	65.543	-12.2081
573.23	300.00	2.769	65.515	7.08451
574.28	300.00	2.767	65.485	28.3667
575.33	300.00	2.766	65.450	40.2306
576.38	300.00	2.764	65.411	57.1773
577.43	300.00	2.763	65.380	66.2526
578.48	300.00	2.762	65.352	82.3754
579.53	300.00	2.760	65.310	74.6735
580.58	300.00	2.759	65.276	38.6647
581.63	300.00	2.757	65.243	-0.223493
582.68	300.00	2.756	65.209	-24.9589
583.73	300.00	2.754	65.174	-44.2588
584.78	300.00	2.753	65.142	-64.7953
585.83	300.00	2.751	65.104	-76.4507
586.88	300.00	2.750	65.073	-77.1744
587.93	300.00	2.748	65.036	-68.2200
588.98	300.00	2.747	65.011	-44.9515
590.03	300.00	2.745	64.959	-15.9122
591.08	300.00	2.744	64.936	15.4430
592.13	300.00	2.743	64.904	53.5236
593.18	300.00	2.741	64.864	69.6796
594.23	300.00	2.740	64.832	84.5686
595.28	300.00	2.738	64.794	86.5413
596.33	300.00	2.737	64.774	82.1652
597.38	300.00	2.736	64.735	81.4290
598.43	300.00	2.734	64.704	85.7446
599.48	300.00	2.733	64.669	72.9169
600.53	300.00	2.731	64.633	44.5525
601.58	300.00	2.730	64.605	5.13790
602.63	300.00	2.728	64.563	-1.66651
603.68	300.00	2.727	64.534	-3.58071
604.73	300.00	2.725	64.493	21.1540
605.78	300.00	2.724	64.469	29.2449
606.83	300.00	2.723	64.437	29.9859
607.88	300.00	2.722	64.403	33.2804
608.93	300.00	2.720	64.370	47.5693
609.98	300.00	2.719	64.335	40.9649
611.03	300.00	2.717	64.301	5.30761
612.08	300.00	2.716	64.270	-21.2414
613.13	300.00	2.715	64.243	-47.4487
614.18	300.00	2.713	64.199	-68.7138
615.23	300.00	2.712	64.172	-104.123
616.28	300.00	2.711	64.141	-138.350
617.33	300.00	2.709	64.093	-150.599
618.38	300.00	2.708	64.071	-145.443
619.43	300.00	2.707	64.053	-108.247
620.48	300.00	2.705	64.006	-88.0358
621.53	300.00	2.704	63.977	-46.9306
622.58	300.00	2.702	63.945	-32.8753
623.63	300.00	2.701	63.913	-39.0104
624.68	300.00	2.699	63.876	-29.6738
625.73	300.00	2.698	63.844	-3.71810
626.78	300.00	2.697	63.808	6.58676
627.83	300.00	2.695	63.774	17.4423
628.88	300.00	2.694	63.750	31.5736
629.93	300.00	2.693	63.718	35.6038
630.98	300.00	2.691	63.684	12.9834
632.03	300.00	2.690	63.650	-31.9100
633.08	300.00	2.689	63.620	-42.6282
634.13	300.00	2.687	63.583	-39.4328
635.18	300.00	2.686	63.559	-48.4303
636.23	300.00	2.684	63.521	-41.1504
637.28	300.00	2.683	63.489	-47.0568
638.33	300.00	2.682	63.456	-50.0957
639.38	300.00	2.680	63.425	-51.9103
640.43	300.00	2.679	63.390	-28.9952
641.48	300.00	2.677	63.357	-22.0272
642.53	300.00	2.676	63.322	-1.42105
643.58	300.00	2.675	63.296	27.5264
644.63	300.00	2.674	63.264	47.0322
645.68	300.00	2.672	63.228	54.5734
646.73	300.00	2.671	63.197	44.1472
647.78	300.00	2.669	63.163	12.2547
648.83	300.00	2.668	63.138	10.1424
649.88	300.00	2.667	63.105	25.2133
650.93	300.00	2.665	63.068	44.2852
651.98	300.00	2.664	63.031	68.6637
653.03	300.00	2.662	62.997	82.9732
654.08	300.00	2.661	62.974	83.7162
655.13	300.00	2.660	62.943	80.7140
656.18	300.00	2.659	62.911	75.6532
657.23	300.00	2.657	62.879	44.5778
658.28	300.00	2.656	62.848	11.3641
659.33	300.00	2.654	62.812	6.62207
660.38	300.00	2.653	62.784	7.05078
661.43	300.00	2.652	62.747	6.14383
662.48	300.00	2.651	62.733	11.1372
663.53	300.00	2.649	62.689	14.6434
664.58	300.00	2.648	62.658	18.9591
665.63	300.00	2.647	62.626	18.9303
666.68	300.00	2.645	62.597	6.74869
667.73	300.00	2.644	62.555	-14.8529
668.78	300.00	2.642	62.529	-38.8375
669.83	300.00	2.641	62.493	-52.3941
670.88	300.00	2.639	62.455	-44.9816
671.93	300.00	2.638	62.430	-32.5830
672.98	300.00	2.637	62.405	-19.9333
674.03	300.00	2.636	62.375	-1.99783
675.08	300.00	2.635	62.342	9.00954
676.13	300.00	2.633	62.308	-4.30094
677.18	300.00	2.632	62.276	-18.5347
678.23	300.00	2.631	62.255	-36.7037
679.28	300.00	2.629	62.220	-46.3526
680.33	300.00	2.628	62.188	-52.8742
681.38	300.00	2.627	62.155	-50.1047
682.43	300.00	2.625	62.125	-29.8494
683.48	300.00	2.624	62.092	-10.8146
684.53	300.00	2.623	62.064	3.24643
685.58	300.00	2.621	62.031	5.28782
686.63	300.00	2.620	62.008	10.8179
687.68	300.00	2.619	61.968	-1.22981
688.73	300.00	2.618	61.938	-21.3495
689.78	300.00	2.616	61.909	-4.45989
690.83	300.00	2.615	61.882	-8.70656
691.88	300.00	2.614	61.848	0.617548
692.93	300.00	2.612	61.818	27.6638
693.98	300.00	2.611	61.781	43.7389
695.03	300.00	2.610	61.753	56.6789
696.08	300.00	2.608	61.722	81.6679
697.13	300.00	2.607	61.691	84.4126
698.18	300.00	2.606	61.661	64.3495
699.23	300.00	2.604	61.630	46.1566
700.28	300.00	2.604	61.608	35.9981
701.33	300.00	2.602	61.571	65.6146
702.38	300.00	2.601	61.538	100.067
703.43	300.00	2.599	61.506	108.159
704.48	300.00	2.598	61.475	92.9539
705.53	300.00	2.596	61.441	74.3627
706.58	300.00	2.595	61.417	39.1486
707.63	300.00	2.594	61.384	17.2883
708.68	300.00	2.593	61.357	-8.50979
709.73	300.00	2.592	61.332	-45.9036
710.78	300.00	2.590	61.293	-75.4825
711.83	300.00	2.589	61.261	-89.3619
712.88	300.00	2.588	61.230	-76.9411
713.93	300.00	2.586	61.202	-77.6925
714.98	300.00	2.585	61.164	-84.7513
716.03	300.00	2.584	61.139	-94.1469
717.08	300.00	2.582	61.104	-89.0120
718.13	300.00	2.581	61.084	-92.9761
719.18	300.00	2.580	61.053	-76.3477
720.23	300.00	2.579	61.030	-33.4256
721.28	300.00	2.578	60.995	-36.8489
722.33	300.00	2.576	60.958	-12.5516
723.38	300.00	2.575	60.931	1.71451
724.43	300.00	2.574	60.899	-0.744156
725.48	300.00	2.572	60.854	-14.3117
726.53	300.00	2.571	60.841	-20.3712
727.58	300.00	2.570	60.812	-30.6079
728.63	300.00	2.569	60.781	-55.0808
729.68	300.00	2.567	60.749	-60.3854
730.73	300.00	2.566	60.719	-32.2023
731.78	300.00	2.565	60.692	-13.2991
732.83	300.00	2.563	60.655	22.3104
733.88	300.00	2.562	60.627	39.9613
734.93	300.00	2.561	60.589	32.6646
735.98	300.00	2.560	60.578	31.9376
737.03	300.00	2.558	60.541	5.32223
738.08	300.00	2.557	60.510	1.87735
739.13	300.00	2.556	60.474	0.215744
740.18	300.00	2.555	60.448	-8.50202
741.23	300.00	2.554	60.429	-2.31548
742.28	300.00	2.552	60.391	3.32332
743.33	300.00	2.551	60.365	10.6375
744.38	300.00	2.550	60.331	5.82106
745.43	300.00	2.549	60.316	7.03041
746.48	300.00	2.547	60.278	9.35908
747.53	300.00	2.546	60.245	13.7586
748.58	300.00	2.545	60.224	1.58678
749.63	300.00	2.544	60.195	13.2736
750.68	300.00	2.542	60.162	34.4001
751.73	300.00	2.541	60.126	31.1106
752.78	300.00	2.540	60.099	23.7160
753.83	300.00	2.539	60.069	25.9026
754.88	300.00	2.537	60.041	43.8854
755.93	300.00	2.536	60.010	37.0058
756.98	300.00	2.535	59.982	35.6822
758.03	300.00	2.533	59.949	11.5701
759.08	300.00	2.532	59.922	-20.8810
760.13	300.00	2.531	59.892	-19.3032
761.18	300.00	2.530	59.865	1.11821
762.23	300.00	2.528	59.829	-0.0281233
763.28	300.00	2.528	59.812	27.7293
764.33	300.00	2.527	59.785	19.0415
765.38	300.00	2.525	59.754	13.4745
766.43	300.00	2.524	59.715	-28.5546
767.48	300.00	2.522	59.688	-67.3145
768.53	300.00	2.521	59.652	-61.8676
769.58	300.00	2.520	59.633	-21.1317
770.63	300.00	2.519	59.598	-17.4647
771.68	300.00	2.517	59.569	-29.0487
772.73	300.00	2.516	59.539	-43.3035
773.78	300.00	2.515	59.524	-69.3655
774.83	300.00	2.514	59.482	-81.8398
775.88	300.00	2.512	59.448	-72.3369
776.93	300.00	2.511	59.423	-44.4738
777.98	300.00	2.510	59.392	-31.6514
779.03	300.00	2.509	59.363	-32.4435
780.08	300.00	2.508	59.337	-9.65977
781.13	300.00	2.506	59.308	9.32579
782.18	300.00	2.505	59.278	-11.1671
783.23	300.00	2.504	59.245	-41.2508
784.28	300.00	2.503	59.219	-45.1674
785.33	300.00	2.501	59.189	-59.7886
786.38	300.00	2.500	59.161	-74.5845
787.43	300.00	2.499	59.140	-73.9931
788.48	300.00	2.498	59.104	-34.7847
789.53	300.00	2.497	59.080	-8.21716
790.58	300.00	2.495	59.037	-0.139404
791.63	300.00	2.494	59.021	1.36401
792.68	300.00	2.493	58.996	-1.96618
793.73	300.00	2.492	58.978	-8.73753
794.78	300.00	2.491	58.933	-14.7718
795.83	300.00	2.489	58.905	-22.1514
796.88	300.00	2.488	58.874	-30.3154
797.93	300.00	2.487	58.843	-24.2109
798.98	300.00	2.486	58.828	20.4391
800.03	300.00	2.485	58.792	50.4594
801.08	300.00	2.483	58.767	73.9439
802.13	300.00	2.482	58.733	88.8360
803.18	300.00	2.481	58.708	76.6625
804.23	300.00	2.480	58.676	68.4570
805.28	300.00	2.479	58.649	61.0808
806.33	300.00	2.477	58.621	73.5999
807.38	300.00	2.476	58.600	53.9641
808.43	300.00	2.475	58.562	25.1867
809.48	300.00	2.474	58.537	22.5910
810.53	300.00	2.473	58.511	20.4103
811.58	300.00	2.471	58.481	29.7132
812.63	300.00	2.470	58.453	34.2834
813.68	300.00	2.469	58.421	37.6209
814.73	300.00	2.468	58.405	19.0153
815.78	300.00	2.467	58.370	-0.713418
816.83	300.00	2.465	58.334	-42.3643
817.88	300.00	2.465	58.331	-40.9131
818.93	300.00	2.463	58.284	-22.3939
819.98	300.00	2.462	58.261	12.1640
821.03	300.00	2.461	58.233	17.8398
822.08	300.00	2.459	58.196	12.6293
823.13	300.00	2.459	58.179	-22.3976
824.18	300.00	2.457	58.148	-40.8540
825.23	300.00	2.456	58.118	-59.3780
826.28	300.00	2.455	58.093	-69.1677
827.33	300.00	2.454	58.063	-74.6056
828.38	300.00	2.453	58.038	-58.4898
829.43	300.00	2.451	58.008	-30.8819
830.48	300.00	2.450	57.981	-21.5275
831.53	300.00	2.449	57.957	3.99017
832.58	300.00	2.448	57.924	46.1431
833.63	300.00	2.447	57.899	54.8677
834.68	300.00	2.446	57.873	53.0518
835.73	300.00	2.444	57.844	51.7525
836.78	300.00	2.443	57.815	56.5850
837.83	300.00	2.443	57.798	49.1694
838.88	300.00	2.441	57.762	43.6661
839.93	300.00	2.440	57.739	26.3321
840.98	300.00	2.438	57.698	28.0254
842.03	300.00	2.438	57.685	15.4327
843.08	300.00	2.436	57.652	17.3410
844.13	300.00	2.435	57.625	17.0023
845.18	300.00	2.434	57.597	9.09416
846.23	300.00	2.433	57.568	2.63237
847.28	300.00	2.432	57.540	-28.1533
848.33	300.00	2.431	57.514	-29.9139
849.38	300.00	2.430	57.490	-18.3169
850.43	300.00	2.428	57.462	17.7467
851.48	300.00	2.427	57.433	39.8899
852.53	300.00	2.426	57.405	39.4752
853.58	300.00	2.425	57.379	-25.1946
854.63	300.00	2.424	57.351	-70.8961
855.68	300.00	2.422	57.323	-101.676
856.73	300.00	2.421	57.296	-117.923
857.78	300.00	2.420	57.263	-132.188
858.83	300.00	2.419	57.242	-119.226
859.88	300.00	2.418	57.214	-98.6169
860.93	300.00	2.417	57.195	-62.8570
861.98	300.00	2.416	57.173	-35.6680
863.03	300.00	2.415	57.145	4.19138
864.08	300.00	2.414	57.114	13.4311
865.13	300.00	2.412	57.081	10.0813
866.18	300.00	2.411	57.054	5.52603
867.23	300.00	2.410	57.022	6.88616
868.28	300.00	2.409	57.005	44.3295
869.33	300.00	2.408	56.972	52.7050
870.38	300.00	2.407	56.946	48.3449
871.43	300.00	2.405	56.917	48.9350
872.48	300.00	2.404	56.897	27.2753
873.53	300.00	2.403	56.869	23.3676
874.58	300.00	2.402	56.842	34.1214
875.63	300.00	2.401	56.818	49.7256
876.68	300.00	2.400	56.789	55.5681
877.73	300.00	2.399	56.762	50.9571
878.78	300.00	2.398	56.735	31.0530
879.83	300.00	2.397	56.715	29.8722
880.88	300.00	2.396	56.685	27.8284
881.93	300.00	2.394	56.660	25.4363
882.98	300.00	2.393	56.627	24.2698
884.03	300.00	2.392	56.601	19.7132
885.08	300.00	2.391	56.575	-5.03883
886.13	300.00	2.390	56.545	-20.6559
887.18	300.00	2.389	56.520	-43.2985
888.23	300.00	2.387	56.495	-78.0336
889.28	300.00	2.386	56.467	-81.0395
890.33	300.00	2.385	56.444	-69.9717
891.38	300.00	2.384	56.413	-41.0239
892.43	300.00	2.383	56.390	-15.7478
893.48	300.00	2.382	56.366	6.91954
894.53	300.00	2.381	56.343	-11.4191
895.58	300.00	2.380	56.310	-27.1320
896.63	300.00	2.378	56.280	-34.9989
897.68	300.00	2.377	56.258	-18.0425
898.73	300.00	2.376	56.231	-3.36351
899.78	300.00	2.375	56.207	-13.2234
900.83	300.00	2.374	56.178	-16.0053
901.88	300.00	2.373	56.152	-35.2426
902.93	300.00	2.372	56.124	-51.0467
903.98	300.00	2.371	56.097	-46.7895
905.03	300.00	2.370	56.072	-26.3305
906.08	300.00	2.369	56.047	-8.57254
907.13	300.00	2.367	56.019	21.7260
908.18	300.00	2.366	55.995	42.1280
909.23	300.00	2.365	55.961	33.9723
910.28	300.00	2.364	55.944	26.6996
911.33	300.00	2.363	55.911	7.27751
912.38	300.00	2.361	55.875	-0.635580
913.43	300.00	2.361	55.871	4.19630
914.48	300.00	2.360	55.840	25.6834
915.53	300.00	2.358	55.802	24.0243
916.58	300.00	2.357	55.782	-1.14316
917.63	300.00	2.356	55.757	-0.307246
918.68	300.00	2.355	55.722	-2.36202
919.73	300.00	2.354	55.697	3.28326
920.78	300.00	2.353	55.688	14.7833
921.83	300.00	2.352	55.654	36.0900
922.88	300.00	2.351	55.630	54.7271
923.93	300.00	2.350	55.603	75.5672
924.98	300.00	2.349	55.577	76.5605
926.03	300.00	2.348	55.552	54.7037
927.08	300.00	2.346	55.522	12.4553
928.13	300.00	2.345	55.501	14.1384
929.18	300.00	2.344	55.473	-31.0538
930.23	300.00	2.343	55.451	-54.1805
931.28	300.00	2.342	55.423	-63.1819
932.33	300.00	2.341	55.399	-67.0062
933.38	300.00	2.340	55.376	-55.0837
934.43	300.00	2.338	55.335	-37.4517
935.48	300.00	2.338	55.322	-8.79631
936.53	300.00	2.337	55.302	4.87459
937.58	300.00	2.336	55.279	15.1996
938.63	300.00	2.335	55.243	21.2483
939.68	300.00	2.333	55.218	12.2330
940.73	300.00	2.332	55.192	2.60761
941.78	300.00	2.331	55.167	-0.138840
942.83	300.00	2.330	55.144	9.99645
943.88	300.00	2.329	55.114	16.4072
944.93	300.00	2.328	55.081	32.8263
945.98	300.00	2.327	55.069	41.3889
947.03	300.00	2.326	55.042	41.4261
948.08	300.00	2.325	55.017	54.2919
949.13	300.00	2.324	54.994	61.3708
950.18	300.00	2.323	54.967	67.0134
951.23	300.00	2.322	54.942	67.1698
952.28	300.00	2.321	54.920	61.1267
953.33	300.00	2.320	54.892	48.4413
954.38	300.00	2.318	54.858	43.9669
955.43	300.00	2.318	54.844	46.5774
956.48	300.00	2.317	54.821	40.1626
957.53	300.00	2.316	54.796	15.9122
958.58	300.00	2.314	54.762	-0.622526
959.63	300.00	2.313	54.728	-26.4297
960.68	300.00	2.313	54.726	-50.9086
961.73	300.00	2.311	54.686	-65.2844
962.78	300.00	2.310	54.669	-67.2889
963.83	300.00	2.309	54.640	-53.8310
964.88	300.00	2.308	54.619	-41.7883
965.93	300.00	2.307	54.581	-21.9562
966.98	300.00	2.306	54.562	-8.81691
968.03	300.00	2.304	54.525	-28.8287
969.08	300.00	2.303	54.507	-34.2838
970.13	300.00	2.303	54.487	-47.8264
971.18	300.00	2.301	54.459	-62.5552
972.23	300.00	2.300	54.434	-70.3205
973.28	300.00	2.299	54.408	-69.3718
974.33	300.00	2.298	54.379	-68.5111
975.38	300.00	2.297	54.358	-68.6198
976.43	300.00	2.296	54.331	-67.8074
977.48	300.00	2.296	54.319	-57.6136
978.53	300.00	2.294	54.282	-24.7573
979.58	300.00	2.293	54.254	-9.40184
980.63	300.00	2.292	54.233	13.5925
981.68	300.00	2.291	54.207	1.48907
982.73	300.00	2.289	54.177	-24.8698
983.78	300.00	2.289	54.172	-51.2126
984.83	300.00	2.288	54.141	-62.2439
985.88	300.00	2.287	54.114	-37.1584
986.93	300.00	2.286	54.088	-23.7340
987.98	300.00	2.285	54.061	-21.8392
989.03	300.00	2.284	54.037	-17.8297
990.08	300.00	2.282	54.006	-17.1233
991.13	300.00	2.281	53.981	-3.83117
992.18	300.00	2.281	53.964	-5.08610
993.23	300.00	2.279	53.937	-6.63072
994.28	300.00	2.278	53.911	-1.04177
995.33	300.00	2.277	53.882	17.0645
996.38	300.00	2.276	53.860	42.0000
997.43	300.00	2.275	53.838	49.0670
998.48	300.00	2.274	53.813	47.5137
999.53	300.00	2.273	53.789	65.1524
1000.58	300.00	2.272	53.761	94.9709
1001.63	300.00	2.271	53.743	97.0161
1002.68	300.00	2.270	53.710	91.7116
1003.73	300.00	2.269	53.696	86.6177
1004.78	300.00	2.268	53.669	72.4878
1005.83	300.00	2.267	53.643	52.4659
1006.88	300.00	2.266	53.611	27.2081
1007.93	300.00	2.265	53.595	24.1083
1008.98	300.00	2.264	53.571	27.7459
1010.03	300.00	2.263	53.553	29.9445
1011.08	300.00	2.262	53.524	29.8001
1012.13	300.00	2.261	53.504	4.81014
1013.18	300.00	2.260	53.469	-21.1422
1014.23	300.00	2.259	53.450	-48.5785
1015.28	300.00	2.258	53.420	-62.5980
1016.33	300.00	2.257	53.404	-68.7185
1017.38	300.00	2.256	53.381	-66.7624
1018.43	300.00	2.255	53.353	-76.7070
1019.48	300.00	2.254	53.328	-84.7896
1020.53	300.00	2.252	53.300	-88.4422
1021.58	300.00	2.252	53.279	-89.0365
1022.63	300.00	2.250	53.253	-80.8423
1023.68	300.00	2.249	53.223	-87.9490
1024.73	300.00	2.248	53.206	-80.0041
1025.78	300.00	2.247	53.182	-60.9639
1026.82	300.00	2.246	53.155	-64.8215
1027.88	300.00	2.246	53.136	-71.7805
1028.93	300.00	2.244	53.107	-48.3569
1029.98	300.00	2.243	53.084	-26.0425
1031.03	300.00	2.242	53.056	11.6454
1032.07	300.00	2.241	53.038	18.3029
1033.13	300.00	2.240	53.015	19.0678
1034.18	300.00	2.240	53.001	21.0587
1035.23	300.00	2.239	52.971	14.7904
1036.28	300.00	2.238	52.947	16.7352
1037.32	300.00	2.237	52.930	22.9425
1038.38	300.00	2.235	52.895	35.0282
1039.43	300.00	2.234	52.867	48.7699
1040.48	300.00	2.233	52.846	76.8434
1041.53	300.00	2.232	52.821	89.2540
1042.57	300.00	2.232	52.811	79.8620
1043.63	300.00	2.230	52.773	57.0728
1044.68	300.00	2.229	52.751	57.3548
1045.73	300.00	2.228	52.728	61.5894
1046.78	300.00	2.227	52.706	57.2881
1047.82	300.00	2.226	52.679	62.0313
1048.88	300.00	2.225	52.662	62.6053
1049.93	300.00	2.224	52.634	56.5487
1050.98	300.00	2.223	52.611	47.2291
1052.03	300.00	2.223	52.596	37.7030
1053.07	300.00	2.221	52.565	31.1215
1054.13	300.00	2.220	52.541	12.3988
1055.18	300.00	2.219	52.520	-1.84320
1056.23	300.00	2.219	52.501	-17.6535
1057.28	300.00	2.218	52.481	-19.6849
1058.32	300.00	2.217	52.456	-16.2891
1059.38	300.00	2.215	52.425	-6.89094
1060.43	300.00	2.214	52.400	6.07017
1061.48	300.00	2.214	52.380	12.7683
1062.53	300.00	2.213	52.356	2.83478
1063.57	300.00	2.212	52.336	-12.8916
1064.63	300.00	2.211	52.323	-31.3055
1065.68	300.00	2.210	52.288	-40.9917
1066.73	300.00	2.208	52.260	-43.4248
1067.78	300.00	2.208	52.239	-41.3396
1068.82	300.00	2.207	52.216	-36.7248
1069.88	300.00	2.206	52.194	-37.4171
1070.93	300.00	2.205	52.172	-38.8964
1071.98	300.00	2.204	52.146	-46.5261
1073.03	300.00	2.203	52.124	-62.7678
1074.07	300.00	2.202	52.104	-70.7024
1075.13	300.00	2.200	52.070	-60.3927
1076.18	300.00	2.200	52.054	-40.4492
1077.23	300.00	2.199	52.034	-32.2493
1078.28	300.00	2.198	52.010	-14.4026
1079.32	300.00	2.197	51.986	-6.05740
1080.38	300.00	2.196	51.974	2.04273
1081.43	300.00	2.195	51.948	16.2234
1082.48	300.00	2.194	51.912	26.3485
1083.53	300.00	2.193	51.894	27.2812
1084.57	300.00	2.192	51.868	15.1405
1085.63	300.00	2.191	51.844	-6.19079
1086.68	300.00	2.190	51.832	-10.8682
1087.73	300.00	2.189	51.807	11.6221
1088.78	300.00	2.188	51.782	24.9564
1089.82	300.00	2.187	51.749	37.0752
1090.88	300.00	2.186	51.725	51.2269
1091.93	300.00	2.185	51.713	63.3970
1092.98	300.00	2.185	51.692	71.8174
1094.03	300.00	2.183	51.667	66.3479
1095.08	300.00	2.182	51.642	57.1238
1096.13	300.00	2.182	51.622	46.2825
1097.18	300.00	2.181	51.598	39.8380
1098.23	300.00	2.180	51.577	28.0533
1099.28	300.00	2.178	51.546	28.7248
1100.33	300.00	2.178	51.530	2.55043
1101.38	300.00	2.177	51.509	-30.4640
1102.43	300.00	2.176	51.488	-79.3601
1103.48	300.00	2.175	51.464	-108.839
1104.53	300.00	2.174	51.438	-109.308
1105.58	300.00	2.173	51.414	-103.989
1106.63	300.00	2.172	51.396	-68.4983
1107.68	300.00	2.171	51.370	-20.8802
1108.73	300.00	2.170	51.360	12.6450
1109.78	300.00	2.169	51.333	14.7177
1110.83	300.00	2.168	51.308	17.3419
1111.88	300.00	2.167	51.286	44.3962
1112.93	300.00	2.167	51.269	56.1474
1113.98	300.00	2.166	51.243	69.9559
1115.03	300.00	2.164	51.218	66.9865
1116.08	300.00	2.164	51.198	22.7255
1117.13	300.00	2.163	51.174	9.74897
1118.18	300.00	2.162	51.151	6.75814
1119.23	300.00	2.161	51.131	-11.7718
1120.28	300.00	2.160	51.109	-4.53954
1121.33	300.00	2.159	51.086	1.31811
1122.38	300.00	2.158	51.068	25.0708
1123.43	300.00	2.157	51.048	32.5590
1124.48	300.00	2.156	51.021	23.4958
1125.53	300.00	2.155	51.002	14.8234
1126.58	300.00	2.154	50.978	-1.39322
1127.63	300.00	2.153	50.956	-24.7066
1128.68	300.00	2.153	50.935	-40.2168
1129.73	300.00	2.152	50.917	-20.8241
1130.78	300.00	2.150	50.879	-22.7766
1131.83	300.00	2.150	50.880	-19.3534
1132.88	300.00	2.149	50.845	-3.38798
1133.93	300.00	2.148	50.827	-4.28929
1134.98	300.00	2.147	50.809	-5.85822
1136.03	300.00	2.146	50.777	-11.1084
1137.08	300.00	2.145	50.755	-15.6772
1138.13	300.00	2.144	50.732	-8.09607
1139.18	300.00	2.143	50.714	-9.39908
1140.23	300.00	2.142	50.690	-12.8382
1141.28	300.00	2.141	50.669	-17.3869
1142.33	300.00	2.140	50.647	-16.1872
1143.38	300.00	2.139	50.626	-9.70470
1144.43	300.00	2.138	50.603	11.8109
1145.48	300.00	2.137	50.579	26.3645
1146.53	300.00	2.137	50.561	15.0813
1147.58	300.00	2.136	50.542	9.70731
1148.63	300.00	2.135	50.515	2.80450
1149.68	300.00	2.134	50.492	-1.67428
1150.73	300.00	2.133	50.470	-0.293418
1151.78	300.00	2.132	50.446	-3.46333
1152.83	300.00	2.131	50.431	5.04338
1153.88	300.00	2.130	50.392	4.51271
1154.93	300.00	2.129	50.375	-11.0155
1155.98	300.00	2.128	50.359	-12.1344
1157.03	300.00	2.127	50.340	-7.92309
1158.08	300.00	2.126	50.319	-17.7999
1159.13	300.00	2.126	50.303	-15.5153
1160.18	300.00	2.125	50.276	-9.21720
1161.23	300.00	2.124	50.254	-21.8441
1162.28	300.00	2.123	50.236	-22.4724
1163.33	300.00	2.122	50.209	-22.8690
1164.38	300.00	2.121	50.185	-22.1653
1165.43	300.00	2.120	50.168	-13.3305
1166.48	300.00	2.119	50.146	-16.2274
1167.53	300.00	2.118	50.126	-12.9226
1168.58	300.00	2.117	50.104	0.962535
1169.63	300.00	2.116	50.082	7.45654
1170.68	300.00	2.115	50.058	13.0807
1171.73	300.00	2.114	50.034	8.63399
1172.78	300.00	2.114	50.017	7.14671
1173.83	300.00	2.113	50.003	5.13955
1174.88	300.00	2.112	49.975	12.5856
1175.93	300.00	2.111	49.953	27.0842
1176.98	300.00	2.111	49.948	26.6026
1178.03	300.00	2.109	49.917	26.8414
1179.08	300.00	2.108	49.891	31.9552
1180.13	300.00	2.107	49.862	36.6242
1181.18	300.00	2.106	49.833	34.6098
1182.23	300.00	2.106	49.838	33.0998
1183.28	300.00	2.105	49.813	33.1662
1184.33	300.00	2.104	49.784	16.6799
1185.38	300.00	2.103	49.757	-5.13745
1186.43	300.00	2.102	49.741	-9.52963
1187.48	300.00	2.101	49.715	-4.05939
1188.53	300.00	2.100	49.697	-0.943818
1189.58	300.00	2.099	49.676	-0.112013
1190.63	300.00	2.098	49.656	5.66936
1191.68	300.00	2.097	49.633	0.530871
1192.73	300.00	2.097	49.615	1.09088
1193.78	300.00	2.096	49.593	-4.68612
1194.83	300.00	2.095	49.574	-5.70039
1195.88	300.00	2.094	49.550	-12.4970
1196.93	300.00	2.093	49.526	-29.9888
1197.98	300.00	2.092	49.506	-33.7271
1199.03	300.00	2.091	49.486	-33.8871
1200.08	300.00	2.090	49.464	-33.3543
1201.13	300.00	2.089	49.431	-31.5777
1202.18	300.00	2.088	49.413	-21.1240
1203.23	300.00	2.088	49.403	-19.6854
1204.28	300.00	2.087	49.382	-12.1206
1205.33	300.00	2.086	49.362	-9.13414
1206.38	300.00	2.085	49.341	-5.56291
1207.43	300.00	2.085	49.328	-12.3725
1208.48	300.00	2.083	49.295	-13.3514
1209.53	300.00	2.082	49.273	-4.08870
1210.58	300.00	2.081	49.252	0.517285
1211.63	300.00	2.081	49.241	13.2492
1212.68	300.00	2.080	49.209	20.8115
1213.73	300.00	2.079	49.192	20.9649
1214.78	300.00	2.078	49.171	16.8647
1215.83	300.00	2.077	49.149	7.47327
1216.88	300.00	2.076	49.130	0.680739
1217.93	300.00	2.075	49.106	-5.05361
1218.98	300.00	2.074	49.087	-10.6082
1220.03	300.00	2.073	49.065	-19.2701
1221.08	300.00	2.073	49.052	-19.5894
1222.13	300.00	2.071	49.018	-18.1988
1223.18	300.00	2.071	49.004	5.27728
1224.23	300.00	2.070	48.982	34.1751
1225.28	300.00	2.070	48.972	61.5946
1226.33	300.00	2.068	48.939	63.3591
1227.38	300.00	2.067	48.911	56.7224
1228.43	300.00	2.066	48.890	41.6968
1229.48	300.00	2.065	48.872	19.8956
1230.53	300.00	2.065	48.852	-20.6832
1231.58	300.00	2.064	48.830	14.2692
1232.63	300.00	2.063	48.820	14.1632
1233.68	300.00	2.062	48.798	18.6334
1234.73	300.00	2.061	48.779	35.4352
1235.78	300.00	2.060	48.756	39.2031
1236.83	300.00	2.059	48.728	42.5075
1237.88	300.00	2.059	48.718	29.0153
1238.93	300.00	2.058	48.697	24.4416
1239.98	300.00	2.057	48.676	34.6760
1241.03	300.00	2.056	48.656	35.1411
1242.08	300.00	2.055	48.635	38.2780
1243.13	300.00	2.054	48.614	29.3788
1244.18	300.00	2.054	48.595	29.8341
1245.23	300.00	2.053	48.575	41.7672
1246.28	300.00	2.052	48.555	48.6481
1247.33	300.00	2.051	48.533	49.0278
1248.38	300.00	2.050	48.514	53.4270
1249.43	300.00	2.049	48.492	38.9571
1250.48	300.00	2.048	48.463	-0.282398
1251.53	300.00	2.047	48.447	-0.0502416
1252.58	300.00	2.047	48.443	-0.0246151
1253.63	300.00	2.046	48.416	-0.0174076
1254.68	300.00	2.045	48.383	-0.0150230
1255.73	300.00	2.044	48.371	-0.0149702
1256.78	300.00	2.043	48.348	-0.0167205
1257.83	300.00	2.043	48.334	-0.0204338
1258.88	300.00	2.042	48.309	-0.0266386
1259.93	300.00	2.041	48.303	-0.0361058
1260.98	300.00	2.040	48.271	-0.0497929
1262.03	300.00	2.039	48.250	-0.0686278
1263.08	300.00	2.038	48.231	-0.0930445
1264.13	300.00	2.037	48.210	-0.122204
1265.18	300.48	2.037	48.205	-0.153192
1266.23	305.76	2.037	48.196	-0.181832
1267.28	314.64	2.035	48.155	-0.205043
1268.33	324.22	2.032	48.084	-0.221818
1269.38	334.03	2.027	47.954	-0.232706
1270.43	344.16	2.017	47.733	-0.238986
1271.48	354.60	2.000	47.333	-0.241932
1272.53	365.24	1.971	46.641	-0.242460
1273.58	375.96	1.921	45.448	-0.241232
1274.63	386.66	1.837	43.478	-0.238716
1275.68	397.31	1.704	40.330	-0.235241
1276.73	407.91	1.507	35.664	-0.231047
1277.78	418.46	1.237	29.268	-0.226296
1278.83	428.99	0.910	21.536	-0.221094
1279.88	439.51	0.589	13.943	-0.215496
1280.93	450.04	0.348	8.237	-0.209327
1281.98	460.56	0.209	4.945	-0.201783
1283.03	471.09	0.149	3.534	-0.192369
1284.08	481.62	0.135	3.185	-0.180991
1285.13	492.16	0.132	3.133	-0.167636
1286.18	502.70	0.131	3.104	-0.152324
1287.23	513.24	0.130	3.083	-0.135161
1288.28	523.77	0.129	3.061	-0.116386
1289.33	534.29	0.129	3.044	-0.0964232
1290.38	544.82	0.128	3.030	-0.0759411
1291.43	555.35	0.128	3.018	-0.0559208
1292.48	565.87	0.127	3.006	-0.0376421
1293.53	576.40	0.127	3.004	-0.0225622
1294.58	586.92	0.126	2.992	-0.0118105
1295.63	597.44	0.126	2.985	-5.47655e-3
1296.68	607.96	0.125	2.970	-2.48527e-3
1297.73	618.48	0.125	2.951	-1.41431e-3
1298.78	629.00	0.124	2.938	-1.15208e-3
1299.83	639.52	0.123	2.915	-1.07899e-3
1300.88	650.04	0.123	2.914	-1.04807e-3
1301.93	660.56	0.123	2.911	-1.02724e-3
1302.98	671.08	0.122	2.883	-1.01053e-3
1304.03	681.60	0.121	2.866	-9.97660e-4
1305.08	692.11	0.120	2.851	-9.87736e-4
1306.13	702.63	0.120	2.842	-9.79922e-4
1307.18	713.15	0.120	2.842	-9.70807e-4
1308.23	723.66	0.120	2.836	-9.57941e-4
1309.28	734.18	0.120	2.834	-9.35483e-4
1310.33	744.69	0.119	2.827	-9.00600e-4
1311.38	755.20	0.119	2.822	-8.66375e-4
1312.43	765.71	0.119	2.819	-8.19770e-4
1313.48	776.23	0.119	2.827	-7.72750e-4
1314.53	786.74	0.119	2.827	-7.23981e-4