File: data/TGA/005d-B/005dB1-toyopearls MS_104 AMU_XIC
Time	Ion Current
min	mA
0.00	1.00000e-13
0.97	1.00000e-13
1.94	1.00000e-13
2.91	1.00000e-13
3.88	1.00000e-13
4.85	1.00000e-13
5.82	1.00000e-13
6.79	1.00000e-13
7.76	1.00000e-13
8.73	1.00000e-13
9.70	1.00000e-13
10.67	9.26828e-6
11.64	1.00000e-13
12.61	1.00000e-13
13.58	1.00000e-13
14.55	1.00000e-13
15.52	1.00000e-13
16.49	1.00000e-13
17.46	1.00000e-13
18.43	1.00000e-13
19.40	1.00000e-13
20.37	1.00000e-13
21.34	7.87804e-6
22.31	1.00000e-13
23.28	1.00000e-13
24.25	1.00000e-13
25.22	1.00000e-13
26.19	1.00000e-13
27.16	1.00000e-13
28.13	1.00000e-13
29.10	1.00000e-13
30.07	1.39024e-6
31.04	1.00000e-13
32.01	1.00000e-13
32.98	1.00000e-13
33.95	1.00000e-13
34.92	1.00000e-13
35.89	1.00000e-13
36.86	1.00000e-13
37.83	1.00000e-13
38.80	1.00000e-13
39.77	1.00000e-13
40.74	1.00000e-13
41.71	1.00000e-13
42.68	1.00000e-13
43.65	1.00000e-13
44.62	1.00000e-13
45.59	1.00000e-13
46.56	1.00000e-13
47.53	1.00000e-13
48.50	1.00000e-13
49.47	1.00000e-13
50.44	1.00000e-13
51.41	1.00000e-13
52.38	1.00000e-13
53.35	1.00000e-13
54.32	1.00000e-13
55.29	1.00000e-13
56.26	1.00000e-13
57.23	1.00000e-13
58.20	1.00000e-13
59.17	1.00000e-13
60.14	1.00000e-13
61.11	1.00000e-13
62.08	1.00000e-13
63.05	7.64633e-6
64.02	1.00000e-13
64.99	1.07744e-5
65.96	1.45975e-5
66.93	5.79267e-7
67.90	1.27439e-6
68.87	4.79633e-5
69.84	8.92072e-6
70.81	3.35975e-6
71.78	1.00000e-13
72.75	8.68901e-6
73.72	1.00000e-13
74.69	2.66463e-6
75.66	2.79207e-5
76.63	1.00000e-13
77.60	8.10974e-6
78.57	1.00000e-13
79.54	1.64512e-5
80.51	1.00000e-13
81.48	5.25975e-5
82.45	1.00000e-13
83.42	1.00000e-13
84.39	1.00000e-13
85.36	1.50610e-6
86.33	5.93170e-5
87.30	1.55244e-5
88.27	8.34145e-6
89.24	9.84755e-6
90.21	1.00000e-13
91.18	5.67682e-6
92.15	1.00000e-13
93.12	2.78048e-6
94.09	1.00000e-13
95.06	9.84755e-6
96.03	3.88109e-5
97.00	2.79207e-5
97.97	1.00000e-13
98.94	1.00000e-13
99.91	2.27073e-5
100.88	1.07744e-5
101.85	1.66829e-5
102.82	1.91158e-5
103.79	8.34145e-6
104.76	5.21341e-5
105.73	1.00000e-13
106.70	1.25122e-5
107.67	1.00000e-13
108.64	1.00000e-13
109.61	1.00000e-13
110.58	1.00000e-13
111.55	1.00000e-13
112.52	1.17012e-5
113.49	1.85366e-6
114.46	2.32865e-5
115.43	1.00000e-13
116.40	1.00000e-13
117.37	1.00000e-13
118.34	1.21646e-5
119.31	1.00000e-13
120.28	1.00000e-13
121.25	1.76097e-5
122.22	1.77256e-5
123.19	5.35243e-5
124.16	2.72256e-5
125.12	1.03110e-5
126.10	2.08536e-5
127.07	1.87683e-5
128.03	1.00000e-13
129.01	3.98536e-5
129.98	1.00000e-13
130.95	1.00000e-13
131.92	4.94694e-5
132.89	3.82316e-6
133.85	1.00000e-13
134.83	1.00000e-13
135.79	1.79573e-5
136.76	3.27865e-5
137.73	3.23231e-5
138.71	1.00000e-13
139.68	1.00000e-13
140.65	2.74573e-5
141.61	1.15853e-6
142.59	1.40183e-5
143.56	1.00000e-13
144.52	1.00000e-13
145.49	1.19329e-5
146.47	1.00000e-13
147.43	3.70731e-5
148.41	1.00000e-13
149.37	1.00000e-13
150.34	1.00000e-13
151.31	1.00000e-13
152.28	1.00000e-13
153.25	1.00000e-13
154.23	7.53048e-6
155.20	1.00000e-13
156.17	4.74999e-6
157.13	1.00000e-13
158.10	1.00000e-13
159.07	1.00000e-13
160.04	6.48779e-6
161.02	2.89634e-6
161.99	2.53719e-5
162.95	1.00000e-13
163.93	1.00000e-13
164.89	1.00000e-13
165.87	1.00000e-13
166.84	2.05061e-5
167.81	1.00000e-13
168.78	2.00427e-5
169.75	6.60365e-6
170.72	5.67682e-6
171.68	2.40975e-5
172.65	1.00000e-13
173.63	1.32073e-5
174.60	2.31707e-7
175.56	2.32865e-5
176.53	1.00000e-13
177.50	3.12804e-6
178.47	1.00000e-13
179.44	1.00000e-13
180.41	4.72682e-5
181.39	1.00000e-13
182.35	1.00000e-13
183.33	2.66463e-6
184.29	2.31707e-6
185.27	1.00000e-13
186.23	1.59878e-5
187.21	1.25122e-5
188.17	3.47560e-6
189.14	1.00000e-13
190.11	5.90853e-6
191.08	9.49998e-6
192.05	1.20488e-5
193.03	1.00000e-13
194.00	1.00000e-13
194.97	5.67682e-6
195.93	2.07378e-5
196.91	1.00000e-13
197.88	6.48779e-6
198.84	2.30548e-5
199.82	1.00000e-13
200.78	1.00000e-13
201.76	1.00000e-13
202.72	1.00000e-13
203.70	1.00000e-13
204.67	1.00000e-13
205.63	1.00000e-13
206.60	1.00000e-13
207.57	7.41462e-6
208.55	2.62987e-5
209.51	1.00000e-13
210.48	2.08536e-5
211.45	1.17012e-5
212.42	1.00000e-13
213.40	1.00000e-13
214.36	1.00000e-13
215.33	1.00000e-13
216.30	1.00000e-13
217.27	2.31707e-7
218.24	1.00000e-13
219.21	1.15853e-7
220.18	3.44085e-5
221.15	1.00000e-13
222.12	1.00000e-13
223.10	1.00000e-13
224.07	1.00000e-13
225.03	3.47560e-6
226.00	1.00000e-13
226.97	1.00000e-13
227.95	1.00000e-13
228.91	1.73780e-6
229.88	1.74939e-5
230.85	1.00000e-13
231.82	1.00000e-13
232.79	1.00000e-13
233.77	1.00000e-13
234.73	1.00000e-13
235.70	1.00000e-13
236.68	1.00000e-13
237.64	1.00000e-13
238.61	1.00000e-13
239.59	1.00000e-13
240.55	1.00000e-13
241.53	1.00000e-13
242.49	1.00000e-13
243.46	7.64633e-6
244.43	1.00000e-13
245.40	3.95060e-5
246.38	1.00000e-13
247.34	1.62195e-6
248.31	1.00000e-13
249.28	1.00000e-13
250.25	1.00000e-13
251.22	1.92317e-5
252.19	1.61036e-5
253.16	1.00000e-13
254.13	1.00000e-13
255.10	5.32926e-6
256.07	1.00000e-13
257.04	1.00000e-13
258.01	1.66829e-5
258.98	1.00000e-13
259.95	1.00000e-13
260.92	1.06585e-5
261.89	1.00000e-13
262.86	1.00000e-13
263.83	8.57316e-6
264.80	1.00000e-13
265.77	1.00000e-13
266.74	1.00000e-13
267.71	1.00000e-13
268.68	1.00000e-13
269.65	1.00000e-13
270.62	1.00000e-13
271.59	1.00000e-13
272.56	1.00000e-13
273.53	1.00000e-13
274.50	3.96219e-5
275.47	2.86158e-5
276.44	1.00000e-13
277.41	1.00000e-13
278.38	1.00000e-13
279.35	2.76890e-5
280.32	1.00000e-13
281.29	1.34390e-5
282.26	1.00000e-13
283.23	1.70305e-5
284.20	2.90792e-5
285.17	1.00000e-13
286.14	1.00000e-13
287.11	1.00000e-13
288.08	1.00000e-13
289.05	1.00000e-13
290.02	1.00000e-13
290.99	1.00000e-13
291.96	1.00000e-13
292.93	6.95121e-7
293.90	1.00000e-13
294.87	1.00000e-13
295.84	1.00000e-13
296.81	1.00000e-13
297.78	1.00000e-13
298.75	1.00000e-13
299.72	1.00000e-13
300.69	1.00000e-13
301.66	1.00000e-13
302.63	1.00000e-13
303.60	1.00000e-13
304.57	7.41462e-6
305.54	8.22560e-6
306.51	1.00000e-13
307.48	1.00000e-13
308.45	5.67682e-6
309.42	1.00000e-13
310.39	1.00000e-13
311.36	1.00000e-13
312.33	1.00000e-13
313.30	1.00000e-13
314.27	1.00000e-13
315.24	1.00000e-13
316.21	1.00000e-13
317.18	1.00000e-13
318.15	1.00000e-13
319.12	1.85366e-5
320.09	1.00000e-13
321.06	1.00000e-13
322.03	1.96951e-6
323.00	1.00000e-13
323.97	1.30914e-5
324.94	2.54878e-6
325.91	1.03110e-5
326.88	1.00000e-13
327.85	1.00000e-13
328.82	2.08536e-6
329.79	1.00000e-13
330.76	8.68901e-6
331.73	1.00000e-13
332.70	4.44877e-5
333.67	1.00000e-13
334.64	1.00000e-13
335.61	1.00000e-13
336.58	1.00000e-13
337.55	1.00000e-13
338.52	1.00000e-13
339.49	2.36341e-5
340.46	1.00000e-13
341.43	1.00000e-13
342.40	1.00000e-13
343.37	1.00000e-13
344.34	1.74939e-5
345.31	1.00000e-13
346.28	9.03657e-6
347.25	2.43292e-5
348.22	1.00000e-13
349.19	1.00000e-13
350.16	1.00000e-13
351.13	1.00000e-13
352.10	2.18963e-5
353.07	2.44451e-5
354.04	1.00000e-13
355.01	1.00000e-13
355.98	1.00000e-13
356.95	1.00000e-13
357.92	1.00000e-13
358.89	1.26280e-5
359.86	1.00000e-13
360.83	3.86951e-5
361.80	1.17012e-5
362.77	1.00000e-13
363.74	1.05427e-5
364.71	1.00000e-13
365.68	1.00000e-13
366.65	1.00000e-13
367.62	1.00000e-13
368.59	1.00000e-13
369.56	4.05487e-6
370.53	1.00000e-13
371.50	1.00000e-13
372.47	1.00000e-13
373.44	1.51768e-5
374.41	1.00000e-13
375.38	1.15853e-6
376.35	1.00000e-13
377.32	1.00000e-13
378.29	9.84755e-6
379.26	1.00000e-13
380.23	1.00000e-13
381.20	9.15242e-6
382.17	1.00000e-13
383.14	4.74999e-6
384.11	1.00000e-13
385.08	1.00000e-13
386.05	1.00000e-13
387.02	5.74633e-5
387.99	1.00000e-13
388.96	1.00000e-13
389.93	1.00000e-13
390.90	1.00000e-13
391.87	1.00000e-13
392.84	1.00000e-13
393.81	1.00000e-13
394.78	1.00000e-13
395.75	1.45975e-5
396.72	2.08536e-6
397.69	1.00000e-13
398.66	1.00000e-13
399.63	1.00000e-13
400.60	1.00000e-13
401.57	1.00000e-13
402.54	1.00000e-13
403.51	1.00000e-13
404.48	1.00000e-13
405.45	1.00000e-13
406.42	1.00000e-13
407.39	1.00000e-13
408.36	6.60365e-6
409.33	1.00000e-13
410.30	1.00000e-13
411.27	1.00000e-13
412.24	1.00000e-13
413.21	2.39817e-5
414.18	1.00000e-13
415.15	1.00000e-13
416.12	1.00000e-13
417.09	1.79573e-5
418.06	2.05061e-5
419.03	1.00000e-13
420.00	6.95121e-7
420.97	1.00000e-13
421.94	1.00000e-13
422.91	1.00000e-13
423.88	1.00000e-13
424.85	1.00000e-13
425.82	1.00000e-13
426.79	1.00000e-13
427.76	8.57316e-6
428.73	1.00000e-13
429.70	1.00000e-13
430.67	1.00000e-13
431.64	1.00000e-13
432.61	2.91951e-5
433.58	1.00000e-13
434.55	7.76218e-6
435.52	1.00000e-13
436.49	1.00000e-13
437.46	1.00000e-13
438.43	1.00000e-13
439.40	3.47560e-6
440.37	1.00000e-13
441.34	1.00000e-13
442.31	2.74573e-5
443.28	9.38413e-6
444.25	1.00000e-13
445.22	1.39024e-5
446.19	1.00000e-13
447.16	1.00000e-13
448.13	1.00000e-13
449.10	6.02438e-6
450.07	1.00000e-13
451.04	1.00000e-13
452.01	1.00000e-13
452.98	1.00000e-13
453.95	1.00000e-13
454.92	1.00000e-13
455.89	1.00000e-13
456.86	1.00000e-13
457.83	1.00000e-13
458.80	3.47560e-7
459.77	1.00000e-13
460.74	1.00000e-13
461.71	1.00000e-13
462.68	1.00000e-13
463.65	1.00000e-13
464.62	1.00000e-13
465.59	1.96951e-6
466.56	5.32926e-6
467.53	1.00000e-13
468.50	1.00000e-13
469.47	1.00000e-13
470.44	1.00000e-13
471.41	1.00000e-13
472.38	1.00000e-13
473.35	1.00000e-13
474.32	1.00000e-13
475.29	1.00000e-13
476.26	1.00000e-13
477.23	9.26828e-7
478.20	1.00000e-13
479.17	1.00000e-13
480.14	9.03657e-6
481.11	1.00000e-13
482.08	1.00000e-13
483.05	1.00000e-13
484.02	1.00000e-13
484.99	1.00000e-13
485.96	1.00000e-13
486.93	1.00000e-13
487.90	1.00000e-13
488.87	1.00000e-13
489.84	1.00000e-13
490.81	1.00000e-13
491.78	1.00000e-13
492.75	1.00000e-13
493.72	6.95121e-7
494.68	7.87804e-6
495.66	1.00000e-13
496.63	1.00000e-13
497.60	1.08902e-5
498.57	1.00000e-13
499.54	1.00000e-13
500.51	1.00000e-13
501.47	2.17805e-5
502.44	1.00000e-13
503.42	1.00000e-13
504.39	1.23963e-5
505.35	1.00000e-13
506.33	1.00000e-13
507.29	1.00000e-13
508.27	1.00000e-13
509.23	1.00000e-13
510.20	1.62195e-6
511.18	1.00000e-13
512.14	2.18963e-5
513.12	1.00000e-13
514.08	1.00000e-13
515.06	1.00000e-13
516.03	1.62195e-6
517.00	3.47560e-6
517.96	1.00000e-13
518.94	1.00000e-13
519.91	1.00000e-13
520.88	1.00000e-13
521.84	1.00000e-13
522.81	1.00000e-13
523.79	1.00000e-13
524.76	1.00000e-13
525.73	1.00000e-13
526.69	2.78048e-6
527.66	1.77256e-5
528.63	1.00000e-13
529.60	1.05427e-5
530.57	1.00000e-13
531.55	1.00000e-13
532.52	1.00000e-13
533.49	1.00000e-13
534.45	1.00000e-13
535.42	1.00000e-13
536.39	1.00000e-13
537.36	5.79267e-6
538.33	1.00000e-13
539.31	1.62195e-5
540.27	1.00000e-13
541.25	1.00000e-13
542.22	1.00000e-13
543.19	1.00000e-13
544.15	1.00000e-13
545.12	1.00000e-13
546.09	1.00000e-13
547.06	1.00000e-13
548.03	1.00000e-13
549.00	1.00000e-13
549.98	7.41462e-6
550.95	1.00000e-13
551.91	1.00000e-13
552.89	1.00000e-13
553.85	1.00000e-13
554.83	1.00000e-13
555.79	1.00000e-13
556.76	1.00000e-13
557.73	1.00000e-13
558.70	1.00000e-13
559.67	1.40183e-5
560.64	1.26280e-5
561.62	1.00000e-13
562.58	1.00000e-13
563.56	1.00000e-13
564.52	1.00000e-13
565.49	6.02438e-6
566.46	3.35975e-6
567.43	7.64633e-6
568.40	1.00000e-13
569.37	1.00000e-13
570.34	1.00000e-13
571.31	1.00000e-13
572.28	1.00793e-5
573.25	1.00000e-13
574.22	1.00000e-13
575.19	1.00000e-13
576.16	1.04268e-6
577.13	1.00000e-13
578.10	1.00000e-13
579.07	1.00000e-13
580.04	1.00000e-13
581.01	1.00000e-13
581.98	1.00000e-13
582.95	1.00000e-13
583.92	1.00000e-13
584.89	1.00000e-13
585.86	1.00000e-13
586.83	1.00000e-13
587.80	4.05487e-6
588.77	2.54878e-6
589.74	1.00000e-13
590.71	1.00000e-13
591.68	1.00000e-13
592.65	1.96951e-6
593.62	1.00000e-13
594.59	1.00000e-13
595.56	2.78048e-6
596.53	2.29390e-5
597.50	1.00000e-13
598.47	1.00000e-13
599.44	1.00000e-13
600.41	1.00000e-13
601.38	1.00000e-13
602.35	1.00000e-13
603.32	1.00000e-13
604.29	1.00000e-13
605.26	1.00000e-13
606.23	1.00000e-13
607.20	1.00000e-13
608.17	1.00000e-13
609.14	1.00000e-13
610.11	1.00000e-13
611.08	1.00000e-13
612.05	1.00000e-13
613.02	1.00000e-13
613.99	7.29877e-6
614.96	1.00000e-13
615.93	1.00000e-13
616.90	1.00000e-13
617.87	1.00000e-13
618.84	1.85366e-5
619.81	1.00000e-13
620.78	1.00000e-13
621.75	1.00000e-13
622.72	1.00000e-13
623.69	1.00000e-13
624.66	1.30914e-5
625.63	1.00000e-13
626.60	1.00000e-13
627.57	1.00000e-13
628.54	4.98170e-6
629.51	1.00000e-13
630.48	1.00000e-13
631.45	1.00000e-13
632.42	1.00000e-13
633.39	1.00000e-13
634.36	1.00000e-13
635.33	1.00000e-13
636.30	5.44511e-6
637.27	1.96951e-6
638.24	1.00000e-13
639.21	1.00000e-13
640.18	1.00000e-13
641.15	1.00000e-13
642.12	1.00000e-13
643.09	1.00000e-13
644.06	1.00000e-13
645.03	1.00000e-13
646.00	5.90853e-6
646.97	1.00000e-13
647.94	1.00000e-13
648.91	3.01219e-6
649.88	1.00000e-13
650.85	1.00000e-13
651.82	1.61036e-5
652.79	1.00000e-13
653.76	1.00000e-13
654.73	1.00000e-13
655.70	1.00000e-13
656.67	1.00000e-13
657.64	1.00000e-13
658.61	1.00000e-13
659.58	1.00000e-13
660.55	2.08536e-6
661.52	1.00000e-13
662.49	1.00000e-13
663.46	1.96951e-6
664.43	1.00000e-13
665.40	1.00000e-13
666.37	1.19329e-5
667.34	1.00000e-13
668.31	1.00000e-13
669.28	1.00000e-13
670.25	1.00000e-13
671.22	1.00000e-13
672.19	5.09755e-6
673.16	1.12378e-5
674.13	1.00000e-13
675.10	1.00000e-13
676.07	1.00000e-13
677.04	1.00000e-13
678.01	1.81890e-5
678.98	1.00000e-13
679.95	1.00000e-13
680.92	1.00000e-13
681.89	1.00000e-13
682.86	1.00000e-13
683.83	1.00000e-13
684.80	1.00000e-13
685.77	1.00000e-13
686.74	3.24390e-5
687.71	1.00000e-13
688.68	1.00000e-13
689.65	1.00000e-13
690.62	1.00000e-13
691.59	1.00000e-13
692.56	1.00000e-13
693.53	1.00000e-13
694.50	8.34145e-6
695.47	1.00000e-13
696.44	1.00000e-13
697.41	2.36341e-5
698.38	1.12378e-5
699.35	1.00000e-13
700.32	2.34024e-5
701.29	1.00000e-13
702.26	1.00000e-13
703.23	1.00000e-13
704.20	1.00000e-13
705.17	1.00000e-13
706.14	1.00000e-13
707.11	1.00000e-13
708.08	4.65731e-5
709.05	1.00000e-13
710.02	1.00000e-13
710.99	3.93902e-6
711.96	1.00000e-13
712.93	1.00000e-13
713.90	1.00000e-13
714.87	1.00000e-13
715.84	1.00000e-13
716.81	1.00000e-13
717.78	1.00000e-13
718.75	1.00000e-13
719.72	1.00000e-13
720.69	1.00000e-13
721.66	1.00000e-13
722.63	1.00000e-13
723.60	1.00000e-13
724.57	1.00000e-13
725.54	1.00000e-13
726.51	1.00000e-13
727.48	6.25609e-6
728.45	1.00000e-13
729.42	1.00000e-13
730.39	6.95121e-6
731.36	1.00000e-13
732.33	1.00000e-13
733.30	1.00000e-13
734.27	1.00000e-13
735.24	1.00000e-13
736.21	1.00000e-13
737.18	1.00000e-13
738.15	3.24390e-6
739.12	5.30146e-4
740.09	1.00000e-13
741.06	1.00000e-13
742.03	1.00000e-13
743.00	2.21280e-5
743.97	1.00000e-13
744.94	1.00000e-13
745.91	6.48779e-6
746.88	1.00000e-13
747.85	1.00000e-13
748.82	1.00000e-13
749.79	1.00000e-13
750.76	1.00000e-13
751.73	1.00000e-13
752.70	1.00000e-13
753.67	1.10061e-5
754.64	5.37560e-5
755.61	1.00000e-13
756.58	1.00000e-13
757.55	1.00000e-13
758.52	2.34024e-5
759.49	1.00000e-13
760.46	1.15853e-5
761.43	1.00000e-13
762.40	1.50610e-6
763.37	1.00000e-13
764.34	1.00000e-13
765.31	1.00000e-13
766.28	1.00000e-13
767.25	1.00000e-13
768.22	1.00000e-13
769.19	1.00000e-13
770.16	1.00000e-13
771.13	6.95121e-6
772.10	1.00000e-13
773.07	1.00000e-13
774.04	1.00000e-13
775.01	1.00000e-13
775.98	1.00000e-13
776.95	1.00000e-13
777.92	1.00000e-13
778.89	1.00000e-13
779.86	1.00000e-13
780.83	1.00000e-13
781.80	1.00000e-13
782.77	4.28658e-5
783.74	1.00000e-13
784.71	1.00000e-13
785.68	1.00000e-13
786.65	1.79573e-5
787.62	1.00000e-13
788.59	1.00000e-13
789.56	1.58719e-5
790.53	1.00000e-13
791.50	1.00000e-13
792.47	1.00000e-13
793.44	2.20122e-6
794.41	1.00000e-13
795.38	1.00000e-13
796.35	1.00000e-13
797.32	6.48779e-6
798.29	1.00000e-13
799.26	1.00000e-13
800.23	1.00000e-13
801.20	1.00000e-13
802.17	1.00000e-13
803.14	1.00000e-13
804.11	1.00000e-13
805.08	1.70305e-5
806.05	1.00000e-13
807.02	1.00000e-13
807.99	1.00000e-13
808.96	1.00000e-13
809.93	1.00000e-13
810.90	1.00000e-13
811.87	1.00000e-13
812.84	1.00000e-13
813.81	1.00000e-13
814.78	1.00000e-13
815.75	1.00000e-13
816.72	1.00000e-13
817.69	1.00000e-13
818.66	1.00000e-13
819.63	1.00000e-13
820.60	1.00000e-13
821.57	1.22805e-5
822.54	3.01219e-6
823.51	1.00000e-13
824.48	1.00000e-13
825.45	1.00000e-13
826.42	1.00000e-13
827.39	1.00000e-13
828.35	1.00000e-13
829.33	1.00000e-13
830.30	1.00000e-13
831.27	1.00000e-13
832.24	1.00000e-13
833.21	1.00000e-13
834.18	1.00000e-13
835.15	1.00000e-13
836.12	1.00000e-13
837.09	1.00000e-13
838.05	1.00000e-13
839.03	5.21341e-6
840.00	1.00000e-13
840.97	1.00000e-13
841.94	1.00000e-13
842.91	1.00000e-13
843.88	1.00000e-13
844.85	1.00000e-13
845.82	1.00000e-13
846.78	1.00000e-13
847.76	1.00000e-13
848.73	2.08536e-5
849.70	1.00000e-13
850.67	1.00000e-13
851.63	1.00000e-13
852.60	1.00000e-13
853.57	1.00000e-13
854.55	5.79267e-6
855.52	1.00000e-13
856.49	1.00000e-13
857.46	1.00000e-13
858.43	1.00000e-13
859.40	1.00000e-13
860.37	1.00000e-13
861.34	9.38413e-6
862.31	1.00000e-13
863.27	1.00000e-13
864.25	1.00000e-13
865.22	1.00000e-13
866.19	1.00000e-13
867.15	1.00000e-13
868.13	1.00000e-13
869.10	1.00000e-13
870.07	1.00000e-13
871.03	1.00000e-13
872.01	1.00000e-13
872.98	1.00000e-13
873.94	1.00000e-13
874.92	1.00000e-13
875.88	4.97011e-5
876.86	1.00000e-13
877.83	1.00000e-13
878.80	1.00000e-13
879.77	1.00000e-13
880.73	1.00000e-13
881.71	1.00000e-13
882.67	1.00000e-13
883.65	1.00000e-13
884.61	1.00000e-13
885.59	1.00000e-13
886.56	1.00000e-13
887.53	1.00000e-13
888.49	8.34145e-6
889.46	1.00000e-13
890.44	1.00000e-13
891.41	6.02438e-6
892.38	1.00000e-13
893.35	1.00000e-13
894.31	3.82316e-6
895.28	1.00000e-13
896.26	1.00000e-13
897.23	1.00000e-13
898.19	1.00000e-13
899.16	1.00000e-13
900.14	1.00000e-13
901.10	1.00000e-13
902.07	1.00000e-13
903.05	1.55244e-5
904.01	1.00000e-13
904.98	1.00000e-13
905.95	1.00000e-13
906.92	1.00000e-13
907.90	1.00000e-13
908.87	1.00000e-13
909.83	1.00000e-13
910.81	1.00000e-13
911.77	1.00000e-13
912.75	1.00000e-13
913.72	2.81524e-5
914.69	1.00000e-13
915.65	1.00000e-13
916.63	1.00000e-13
917.60	1.00000e-13
918.56	1.00000e-13
919.53	1.00000e-13
920.50	1.00000e-13
921.48	7.76218e-6
922.44	2.30548e-5
923.41	1.00000e-13
924.38	1.00000e-13
925.35	1.00000e-13
926.32	1.39024e-6
927.29	1.00000e-13
928.26	1.00000e-13
929.23	1.00000e-13
930.20	1.00000e-13
931.17	9.49998e-6
932.14	1.00000e-13
933.11	3.93902e-6
934.08	1.00000e-13
935.06	1.00000e-13
936.03	1.00000e-13
937.00	1.00000e-13
937.96	1.00000e-13
938.93	1.00000e-13
939.90	5.21341e-6
940.88	1.00000e-13
941.84	2.91951e-5
942.81	1.00000e-13
943.79	1.00000e-13
944.75	1.00000e-13
945.72	1.00000e-13
946.69	1.00000e-13
947.66	1.00000e-13
948.63	1.00000e-13
949.60	1.00000e-13
950.57	1.00000e-13
951.55	1.00000e-13
952.51	2.08536e-6
953.48	1.00000e-13
954.45	1.00000e-13
955.42	1.00000e-13
956.39	1.00000e-13
957.36	1.00000e-13
958.34	2.05061e-5
959.30	1.00000e-13
960.27	1.00000e-13
961.24	1.00000e-13
962.21	1.73780e-6
963.18	1.00000e-13
964.16	1.00000e-13
965.12	1.00000e-13
966.09	1.00000e-13
967.06	1.00000e-13
968.03	1.00000e-13
969.00	1.00000e-13
969.97	1.00000e-13
970.94	1.00000e-13
971.91	8.68901e-6
972.88	1.00000e-13
973.85	1.00000e-13
974.82	1.00000e-13
975.79	1.00000e-13
976.76	5.21341e-6
977.74	6.37194e-6
978.70	1.00000e-13
979.67	1.00000e-13
980.64	1.00000e-13
981.61	1.00000e-13
982.58	1.00000e-13
983.55	1.12378e-5
984.52	1.00000e-13
985.49	1.00000e-13
986.46	1.00000e-13
987.43	1.00000e-13
988.40	1.00000e-13
989.37	1.00000e-13
990.34	1.00000e-13
991.31	1.00000e-13
992.28	1.00000e-13
993.25	1.00000e-13
994.22	1.00000e-13
995.19	1.00000e-13
996.16	1.00000e-13
997.13	1.00000e-13
998.10	1.00000e-13
999.07	6.83536e-6
1000.05	1.00000e-13
1001.01	1.00000e-13
1001.98	1.15853e-5
1002.95	1.00000e-13
1003.92	1.00000e-13
1004.89	8.45730e-6
1005.86	1.00000e-13
1006.83	1.00000e-13
1007.80	1.00000e-13
1008.77	1.00000e-13
1009.74	3.47560e-6
1010.71	1.00000e-13
1011.68	1.00000e-13
1012.65	1.29756e-5
1013.62	1.00000e-13
1014.59	1.00000e-13
1015.56	1.00000e-13
1016.53	1.15853e-6
1017.50	1.00000e-13
1018.47	1.73780e-5
1019.44	3.01219e-6
1020.41	1.00000e-13
1021.38	1.00000e-13
1022.35	1.00000e-13
1023.32	1.00000e-13
1024.29	1.00000e-13
1025.26	1.00000e-13
1026.23	1.55244e-5
1027.20	1.00000e-13
1028.17	1.00000e-13
1029.14	1.00000e-13
1030.11	1.00000e-13
1031.08	1.00000e-13
1032.05	1.00000e-13
1033.02	1.00000e-13
1033.99	1.00000e-13
1034.96	1.00000e-13
1035.93	1.00000e-13
1036.90	1.00000e-13
1037.87	1.00000e-13
1038.84	1.00000e-13
1039.81	1.00000e-13
1040.78	1.00000e-13
1041.75	1.00000e-13
1042.72	1.47134e-5
1043.69	1.00000e-13
1044.66	1.00000e-13
1045.63	1.00000e-13
1046.60	1.00000e-13
1047.57	1.00000e-13
1048.54	1.00000e-13
1049.51	1.00000e-13
1050.48	1.00000e-13
1051.45	1.00000e-13
1052.42	1.00000e-13
1053.39	1.00000e-13
1054.36	1.00000e-13
1055.33	1.00000e-13
1056.30	1.00000e-13
1057.27	1.00000e-13
1058.24	1.00000e-13
1059.21	1.00000e-13
1060.18	1.00000e-13
1061.15	1.52927e-5
1062.12	1.62195e-6
1063.09	7.41462e-6
1064.06	1.00000e-13
1065.03	1.00000e-13
1066.00	1.00000e-13
1066.97	1.00000e-13
1067.94	1.00000e-13
1068.91	1.11219e-5
1069.88	1.00000e-13
1070.85	1.00000e-13
1071.82	1.00000e-13
1072.79	1.00000e-13
1073.76	1.00000e-13
1074.73	1.00000e-13
1075.70	1.00000e-13
1076.67	1.00000e-13
1077.64	1.00000e-13
1078.61	1.00000e-13
1079.58	1.00000e-13
1080.55	1.00000e-13
1081.52	1.00000e-13
1082.49	1.00000e-13
1083.46	1.00000e-13
1084.43	1.00000e-13
1085.40	1.00000e-13
1086.37	1.00000e-13
1087.34	1.00000e-13
1088.31	1.00000e-13
1089.28	1.00000e-13
1090.25	1.00000e-13
1091.22	1.71463e-5
1092.19	1.00000e-13
1093.16	1.00000e-13
1094.13	1.00000e-13
1095.10	1.00000e-13
1096.07	1.00000e-13
1097.04	1.00000e-13
1098.01	1.00000e-13
1098.98	1.00000e-13
1099.95	1.39024e-6
1100.92	1.00000e-13
1101.89	1.00000e-13
1102.86	1.00000e-13
1103.83	1.00000e-13
1104.80	1.00000e-13
1105.77	1.00000e-13
1106.74	1.00000e-13
1107.71	1.00000e-13
1108.68	1.00000e-13
1109.65	1.00000e-13
1110.62	7.99389e-6
1111.59	1.00000e-13
1112.56	1.00000e-13
1113.53	6.60365e-6
1114.50	1.00000e-13
1115.47	1.00000e-13
1116.44	1.00000e-13
1117.41	1.00000e-13
1118.38	1.00000e-13
1119.35	2.54878e-6
1120.32	1.00000e-13
1121.29	1.00000e-13
1122.26	1.00000e-13
1123.23	1.00000e-13
1124.20	1.00000e-13
1125.17	1.00000e-13
1126.14	1.00000e-13
1127.11	1.00000e-13
1128.08	1.73780e-6
1129.05	1.00000e-13
1130.02	1.00000e-13
1130.99	1.00000e-13
1131.96	1.00000e-13
1132.93	1.00000e-13
1133.90	1.00000e-13
1134.87	1.00000e-13
1135.84	1.00000e-13
1136.81	1.00000e-13
1137.78	1.00000e-13
1138.75	1.00000e-13
1139.72	2.76890e-5
1140.69	1.00000e-13
1141.66	1.00000e-13
1142.63	1.50610e-5
1143.60	1.39024e-6
1144.57	1.00000e-13
1145.54	1.00000e-13
1146.51	1.00000e-13
1147.48	1.00000e-13
1148.45	1.00000e-13
1149.42	4.05487e-6
1150.39	1.00000e-13
1151.36	1.00000e-13
1152.33	1.00000e-13
1153.30	1.00000e-13
1154.27	1.00000e-13
1155.24	1.00000e-13
1156.21	1.00000e-13
1157.18	1.00000e-13
1158.15	1.00000e-13
1159.12	1.00000e-13
1160.09	2.98902e-5
1161.06	1.00000e-13
1162.03	1.00000e-13
1163.00	1.00000e-13
1163.97	1.00000e-13
1164.94	1.00000e-13
1165.91	1.00000e-13
1166.88	1.00000e-13
1167.85	1.00000e-13
1168.82	1.00000e-13
1169.79	1.00000e-13
1170.76	1.00000e-13
1171.73	1.00000e-13
1172.70	1.00000e-13
1173.67	1.00000e-13
1174.64	1.00793e-5
1175.61	1.00000e-13
1176.58	1.00000e-13
1177.55	1.00000e-13
1178.52	1.00000e-13
1179.49	1.00000e-13
1180.46	1.00000e-13
1181.43	1.00000e-13
1182.40	1.00000e-13
1183.37	1.00000e-13
1184.34	1.00000e-13
1185.31	1.00000e-13
1186.28	1.00000e-13
1187.25	1.00000e-13
1188.22	1.00000e-13
1189.19	1.00000e-13
1190.16	1.00000e-13
1191.13	1.00000e-13
1192.10	1.00000e-13
1193.07	1.00000e-13
1194.04	1.00000e-13
1195.01	1.00000e-13
1195.98	1.00000e-13
1196.95	1.00000e-13
1197.92	1.00000e-13
1198.89	1.00000e-13
1199.86	1.00000e-13
1200.83	1.00000e-13
1201.80	1.00000e-13
1202.77	1.00000e-13
1203.74	1.00000e-13
1204.71	1.00000e-13
1205.68	4.17073e-6
1206.65	1.00000e-13
1207.62	1.00000e-13
1208.59	1.00000e-13
1209.56	1.00000e-13
1210.53	1.00000e-13
1211.50	1.00000e-13
1212.47	1.00000e-13
1213.44	1.00000e-13
1214.41	1.00000e-13
1215.38	1.00000e-13
1216.35	1.00000e-13
1217.32	1.00000e-13
1218.29	1.00000e-13
1219.26	1.00000e-13
1220.23	1.00000e-13
1221.20	1.00000e-13
1222.17	1.00000e-13
1223.14	1.00000e-13
1224.11	1.00000e-13
1225.08	1.00000e-13
1226.05	1.00000e-13
1227.02	1.00000e-13
1227.99	1.00000e-13
1228.96	1.00000e-13
1229.93	1.00000e-13
1230.90	1.00000e-13
1231.87	1.00000e-13
1232.84	1.00000e-13
1233.81	4.63414e-6
1234.78	1.00000e-13
1235.75	1.00000e-13
1236.72	1.00000e-13
1237.69	5.79267e-7
1238.66	1.00000e-13
1239.63	1.00000e-13
1240.60	1.00000e-13
1241.57	1.00000e-13
1242.54	1.00000e-13
1243.51	5.67682e-6
1244.48	1.00000e-13
1245.45	1.00000e-13
1246.42	7.99389e-6
1247.39	3.93902e-6
1248.36	1.00000e-13
1249.33	1.00000e-13
1250.30	1.15853e-7
1251.26	1.00000e-13
1252.24	1.00000e-13
1253.21	1.00000e-13
1254.18	1.00000e-13
1255.15	1.00000e-13
1256.12	1.00000e-13
1257.09	1.00000e-13
1258.06	1.00000e-13
1259.03	1.00000e-13
1259.99	1.00000e-13
1260.97	1.00000e-13
1261.94	1.00000e-13
1262.91	1.00000e-13
1263.88	1.29756e-5
1264.85	1.00000e-13
1265.82	1.00000e-13
1266.79	1.00000e-13
1267.76	1.00000e-13
1268.73	5.49146e-5
1269.70	1.20488e-4
1270.66	2.34835e-4
1271.63	5.03036e-4
1272.61	9.86608e-4
1273.57	1.95190e-3
1274.55	3.16882e-3
1275.52	5.01391e-3
1276.49	7.54681e-3
1277.45	0.0105367
1278.43	0.0134267
1279.40	0.0142047
1280.37	0.0117157
1281.34	7.69533e-3
1282.30	4.05649e-3
1283.28	1.38723e-3
1284.24	4.82066e-4
1285.21	1.42384e-4
1286.18	1.35433e-4
1287.15	3.00061e-5
1288.13	3.22073e-5
1289.10	4.40243e-6
1290.06	4.55304e-5
1291.04	4.59938e-5
1292.01	1.00000e-13
1292.98	1.00000e-13
1293.94	1.00000e-13
1294.92	1.00000e-13
1295.88	1.00000e-13
1296.85	1.00000e-13
1297.83	1.00000e-13
1298.79	1.00000e-13
1299.76	1.00000e-13
1300.73	1.00000e-13
1301.70	1.00000e-13
1302.67	1.00000e-13
1303.65	1.00000e-13
1304.62	1.00000e-13
1305.58	1.00000e-13
1306.55	1.00000e-13
1307.52	1.00000e-13
1308.50	1.00000e-13
1309.46	1.00000e-13
1310.43	1.00000e-13
1311.41	1.00000e-13
1312.37	1.00000e-13
1313.35	1.00000e-13
1314.15	1.00000e-13