File: data/TGA/005d-B/005dB1-rGPC MS_104 AMU_XIC
Time	Ion Current
min	mA
0.00	1.00000e-13
0.97	1.00000e-13
1.94	1.00000e-13
2.91	1.00000e-13
3.88	1.00000e-13
4.85	1.00000e-13
5.82	1.00000e-13
6.79	1.00000e-13
7.76	1.00000e-13
8.73	1.00000e-13
9.70	1.00000e-13
10.67	1.00000e-13
11.64	1.00000e-13
12.61	1.00000e-13
13.58	1.00000e-13
14.55	1.00000e-13
15.52	1.00000e-13
16.49	1.00000e-13
17.46	1.00000e-13
18.43	1.00000e-13
19.40	1.00000e-13
20.37	1.00000e-13
21.34	1.00000e-13
22.31	1.00000e-13
23.28	1.00000e-13
24.25	1.15853e-7
25.22	1.00000e-13
26.19	1.00000e-13
27.16	1.00000e-13
28.13	1.00000e-13
29.10	1.00000e-13
30.07	1.00000e-13
31.04	1.00000e-13
32.01	1.00000e-13
32.98	1.00000e-13
33.95	1.00000e-13
34.92	8.10974e-6
35.89	1.00000e-13
36.86	1.00000e-13
37.83	1.00000e-13
38.80	1.00000e-13
39.77	1.00000e-13
40.74	1.00000e-13
41.71	1.00000e-13
42.68	1.00000e-13
43.65	1.00000e-13
44.62	1.00000e-13
45.59	1.00000e-13
46.56	1.00000e-13
47.53	1.00000e-13
48.50	1.00000e-13
49.47	1.00000e-13
50.44	1.00000e-13
51.41	1.00000e-13
52.38	1.00000e-13
53.35	1.00000e-13
54.32	1.00000e-13
55.29	1.00000e-13
56.26	1.00000e-13
57.23	1.00000e-13
58.20	1.00000e-13
59.17	1.00000e-13
60.14	1.00000e-13
61.11	1.00000e-13
62.08	1.00000e-13
63.05	1.00000e-13
64.02	1.00000e-13
64.99	1.00000e-13
65.96	1.00000e-13
66.93	5.90853e-6
67.90	1.00000e-13
68.87	1.00000e-13
69.84	1.00000e-13
70.81	1.00000e-13
71.78	1.00000e-13
72.75	1.00000e-13
73.72	5.59572e-5
74.69	2.39817e-5
75.66	1.25122e-5
76.63	2.57195e-5
77.60	1.00000e-13
78.57	3.10487e-5
79.54	1.00000e-13
80.51	1.00000e-13
81.48	6.14023e-6
82.45	1.00000e-13
83.42	1.00000e-13
84.39	1.00000e-13
85.36	1.00000e-13
86.33	1.00000e-13
87.30	1.00000e-13
88.27	1.00000e-13
89.24	3.24390e-6
90.21	1.00000e-13
91.18	1.00000e-13
92.15	1.00000e-13
93.12	1.85366e-6
94.09	1.00000e-13
95.06	2.66463e-6
96.03	1.00000e-13
97.00	1.00000e-13
97.97	1.00000e-13
98.94	6.95121e-7
99.91	1.00000e-13
100.88	1.00000e-13
101.85	1.00000e-13
102.82	1.00000e-13
103.79	1.00000e-13
104.76	1.00000e-13
105.73	1.00000e-13
106.70	1.00000e-13
107.67	1.00000e-13
108.64	1.00000e-13
109.61	1.00000e-13
110.58	1.00000e-13
111.55	1.00000e-13
112.52	1.00000e-13
113.49	1.00000e-13
114.46	1.00000e-13
115.43	1.00000e-13
116.40	4.63414e-7
117.37	2.91951e-5
118.34	1.88841e-5
119.31	1.00000e-13
120.28	1.00000e-13
121.25	1.00000e-13
122.22	1.00000e-13
123.19	1.00000e-13
124.16	1.00000e-13
125.13	1.00000e-13
126.10	2.54878e-5
127.07	1.00000e-13
128.04	1.00000e-13
129.01	1.00000e-13
129.98	1.00000e-13
130.95	1.62195e-6
131.92	1.00000e-13
132.89	1.00000e-13
133.86	1.00000e-13
134.83	1.00000e-13
135.80	1.00000e-13
136.77	1.00000e-13
137.74	1.00000e-13
138.71	1.00000e-13
139.68	1.00000e-13
140.65	1.00000e-13
141.62	2.71097e-5
142.59	1.00000e-13
143.56	1.33232e-5
144.53	1.00000e-13
145.50	1.00000e-13
146.47	1.00000e-13
147.44	1.00000e-13
148.41	1.00000e-13
149.38	1.00000e-13
150.35	1.00000e-13
151.32	1.00000e-13
152.29	1.00000e-13
153.26	1.00000e-13
154.23	1.81890e-5
155.20	1.00000e-13
156.17	1.00000e-13
157.14	1.00000e-13
158.11	1.00000e-13
159.08	1.95792e-5
160.05	1.00000e-13
161.02	1.00000e-13
161.99	1.00000e-13
162.96	8.10974e-6
163.93	1.00000e-13
164.90	1.00000e-13
165.87	1.00000e-13
166.84	1.00000e-13
167.80	1.00000e-13
168.78	1.00000e-13
169.75	2.57195e-5
170.72	1.00000e-13
171.69	1.00000e-13
172.66	1.00000e-13
173.63	1.00000e-13
174.60	5.90853e-6
175.57	1.00000e-13
176.54	1.00000e-13
177.51	1.00000e-13
178.48	1.00000e-13
179.45	1.00000e-13
180.42	1.87683e-5
181.38	1.00000e-13
182.36	1.00000e-13
183.33	7.64633e-6
184.30	1.00000e-13
185.26	1.65670e-5
186.24	1.00000e-13
187.21	1.00000e-13
188.18	1.00000e-13
189.15	1.00000e-13
190.11	1.00000e-13
191.09	1.00000e-13
192.06	1.00000e-13
193.03	1.00000e-13
194.00	1.00000e-13
194.97	1.00000e-13
195.94	1.00000e-13
196.91	1.00000e-13
197.88	1.00000e-13
198.84	5.09755e-6
199.82	1.00000e-13
200.79	1.00000e-13
201.76	1.00000e-13
202.73	1.00000e-13
203.70	1.00000e-13
204.67	1.00000e-13
205.63	1.00000e-13
206.60	1.00000e-13
207.57	1.00000e-13
208.54	1.00000e-13
209.52	1.00000e-13
210.49	1.00000e-13
211.46	1.00000e-13
212.42	1.00000e-13
213.39	1.00000e-13
214.36	1.00000e-13
215.34	1.00000e-13
216.30	1.00000e-13
217.28	1.00000e-13
218.25	9.96340e-6
219.22	1.00000e-13
220.18	1.00000e-13
221.15	1.00000e-13
222.12	1.00000e-13
223.09	1.01951e-5
224.07	1.00000e-13
225.03	1.00000e-13
226.00	1.29756e-5
226.98	1.00000e-13
227.94	1.00000e-13
228.91	1.00000e-13
229.88	2.18963e-5
230.86	1.00000e-13
231.83	1.00000e-13
232.80	1.00000e-13
233.76	1.00000e-13
234.73	3.59146e-6
235.70	1.00000e-13
236.67	1.00000e-13
237.65	1.00000e-13
238.62	1.00000e-13
239.59	1.00000e-13
240.56	1.00000e-13
241.52	1.00000e-13
242.49	1.00000e-13
243.47	1.00000e-13
244.44	1.00000e-13
245.41	1.00000e-13
246.38	1.00000e-13
247.34	1.00000e-13
248.32	2.21280e-5
249.28	2.78048e-6
250.25	1.00000e-13
251.23	1.00000e-13
252.19	1.00000e-13
253.17	2.31707e-7
254.14	1.00000e-13
255.10	1.00000e-13
256.07	1.00000e-13
257.04	1.00000e-13
258.01	7.64633e-6
258.98	1.00000e-13
259.95	1.00000e-13
260.92	1.00000e-13
261.89	1.00000e-13
262.86	1.00000e-13
263.84	1.00000e-13
264.80	1.00000e-13
265.77	1.00000e-13
266.74	1.00000e-13
267.71	1.00000e-13
268.68	1.00000e-13
269.65	1.00000e-13
270.62	1.00000e-13
271.59	1.00000e-13
272.56	1.00000e-13
273.53	1.00000e-13
274.51	1.00000e-13
275.47	1.00000e-13
276.44	1.00000e-13
277.42	1.00000e-13
278.38	1.00000e-13
279.36	1.00000e-13
280.33	1.00000e-13
281.29	1.00000e-13
282.26	1.00000e-13
283.23	5.32926e-6
284.20	1.04268e-6
285.17	1.00000e-13
286.14	1.00000e-13
287.11	1.00000e-13
288.09	3.91585e-5
289.05	1.00000e-13
290.02	2.31707e-6
290.99	1.00000e-13
291.96	1.00000e-13
292.93	1.00000e-13
293.90	1.00000e-13
294.88	1.00000e-13
295.84	1.00000e-13
296.81	1.00000e-13
297.78	1.00000e-13
298.75	1.00000e-13
299.73	1.00000e-13
300.69	1.00000e-13
301.66	1.00000e-13
302.63	1.00000e-13
303.60	1.00000e-13
304.57	2.66463e-6
305.54	1.00000e-13
306.51	1.00000e-13
307.48	5.44511e-6
308.45	1.00000e-13
309.42	1.00000e-13
310.39	1.00000e-13
311.36	1.00000e-13
312.34	1.00000e-13
313.30	1.00000e-13
314.27	1.00000e-13
315.24	1.00000e-13
316.21	1.00000e-13
317.19	1.00000e-13
318.15	1.00000e-13
319.12	1.00000e-13
320.09	1.00000e-13
321.06	1.00000e-13
322.03	1.00000e-13
323.00	1.00000e-13
323.97	1.00000e-13
324.95	1.00000e-13
325.91	1.00000e-13
326.88	1.00000e-13
327.85	1.00000e-13
328.82	1.00000e-13
329.79	1.00000e-13
330.76	1.00000e-13
331.73	1.00000e-13
332.70	1.00000e-13
333.67	2.71097e-5
334.64	1.00000e-13
335.61	1.00000e-13
336.58	1.00000e-13
337.55	1.00000e-13
338.52	1.00000e-13
339.49	1.00000e-13
340.46	1.00000e-13
341.43	1.00000e-13
342.40	1.00000e-13
343.37	1.00000e-13
344.34	1.00000e-13
345.31	1.00000e-13
346.28	1.00000e-13
347.25	1.00000e-13
348.22	1.30914e-5
349.19	1.00000e-13
350.16	1.00000e-13
351.13	1.00000e-13
352.10	1.00000e-13
353.07	1.00000e-13
354.04	6.02438e-6
355.01	1.00000e-13
355.98	1.00000e-13
356.95	1.00000e-13
357.92	1.00000e-13
358.89	1.00000e-13
359.86	1.00000e-13
360.84	1.00000e-13
361.80	1.00000e-13
362.77	1.00000e-13
363.74	1.00000e-13
364.71	1.00000e-13
365.68	1.00000e-13
366.65	1.00000e-13
367.62	1.00000e-13
368.59	1.00000e-13
369.56	1.00000e-13
370.53	1.00000e-13
371.50	1.00000e-13
372.47	1.66829e-5
373.45	1.00000e-13
374.41	1.00000e-13
375.38	1.00000e-13
376.35	1.00000e-13
377.32	1.00000e-13
378.29	1.00000e-13
379.26	1.00000e-13
380.23	1.22805e-5
381.20	8.45730e-6
382.17	1.00000e-13
383.14	6.60365e-6
384.11	1.00000e-13
385.08	1.00000e-13
386.05	1.00000e-13
387.02	1.00000e-13
387.99	1.00000e-13
388.96	1.00000e-13
389.93	1.00000e-13
390.90	1.00000e-13
391.87	1.00000e-13
392.84	1.00000e-13
393.81	1.00000e-13
394.78	1.00000e-13
395.75	6.95121e-7
396.72	1.00000e-13
397.69	1.00000e-13
398.66	1.00000e-13
399.63	2.45609e-5
400.60	1.00000e-13
401.57	1.00000e-13
402.54	5.56097e-6
403.51	1.00000e-13
404.48	1.00000e-13
405.45	1.00000e-13
406.42	1.00000e-13
407.39	1.00000e-13
408.36	1.00000e-13
409.33	1.00000e-13
410.30	1.00000e-13
411.27	1.15853e-7
412.24	1.00000e-13
413.21	1.00000e-13
414.18	1.00000e-13
415.15	1.00000e-13
416.12	1.00000e-13
417.09	1.00000e-13
418.06	1.00000e-13
419.03	1.00000e-13
420.00	1.00000e-13
420.97	1.00000e-13
421.94	1.00000e-13
422.91	1.00000e-13
423.88	1.00000e-13
424.85	1.00000e-13
425.82	1.00000e-13
426.79	1.00000e-13
427.76	1.00000e-13
428.73	1.00000e-13
429.70	1.00000e-13
430.67	1.00000e-13
431.64	1.00000e-13
432.61	1.00000e-13
433.58	1.00000e-13
434.55	1.00000e-13
435.52	1.52927e-5
436.49	1.00000e-13
437.46	1.00000e-13
438.43	1.00000e-13
439.40	9.15242e-6
440.37	1.00000e-13
441.34	1.00000e-13
442.31	1.00000e-13
443.28	1.00000e-13
444.25	1.00000e-13
445.22	1.00000e-13
446.19	2.21280e-5
447.16	1.00000e-13
448.13	1.00000e-13
449.10	1.79573e-5
450.07	1.00000e-13
451.04	1.00000e-13
452.01	1.00000e-13
452.98	1.00000e-13
453.95	1.00000e-13
454.92	1.00000e-13
455.89	1.00000e-13
456.86	5.22499e-5
457.83	1.00000e-13
458.80	1.00000e-13
459.77	1.00000e-13
460.74	1.00000e-13
461.71	1.00000e-13
462.68	1.00000e-13
463.65	1.00000e-13
464.62	1.00000e-13
465.59	1.00000e-13
466.56	5.08597e-5
467.53	1.00000e-13
468.50	1.00000e-13
469.47	1.00000e-13
470.44	1.00000e-13
471.41	1.00000e-13
472.38	1.00000e-13
473.35	1.00000e-13
474.32	1.00000e-13
475.29	1.00000e-13
476.26	1.00000e-13
477.23	1.00000e-13
478.20	1.00000e-13
479.17	4.63414e-6
480.14	1.00000e-13
481.11	1.00000e-13
482.08	1.00000e-13
483.05	1.00000e-13
484.02	1.00000e-13
484.99	1.00000e-13
485.96	1.00000e-13
486.93	1.00000e-13
487.90	1.00000e-13
488.87	1.00000e-13
489.84	1.00000e-13
490.81	1.00000e-13
491.78	1.00000e-13
492.75	1.00000e-13
493.72	1.00000e-13
494.69	3.70731e-6
495.66	1.00000e-13
496.63	1.00000e-13
497.60	1.00000e-13
498.57	1.00000e-13
499.54	1.00000e-13
500.51	1.00000e-13
501.48	1.00000e-13
502.45	1.00000e-13
503.42	1.00000e-13
504.39	1.00000e-13
505.36	1.00000e-13
506.33	1.00000e-13
507.30	1.00000e-13
508.27	1.00000e-13
509.24	1.00000e-13
510.21	1.00000e-13
511.18	1.00000e-13
512.15	1.00000e-13
513.12	1.00000e-13
514.09	1.00000e-13
515.06	1.00000e-13
516.03	1.00000e-13
517.00	1.00000e-13
517.97	1.00000e-13
518.94	1.00000e-13
519.91	1.00000e-13
520.88	1.00000e-13
521.85	1.00000e-13
522.82	3.35975e-6
523.79	1.00000e-13
524.76	1.00000e-13
525.73	1.00000e-13
526.70	1.00000e-13
527.67	3.01219e-6
528.64	1.00000e-13
529.61	1.04268e-6
530.58	1.00000e-13
531.55	3.93902e-6
532.52	7.87804e-6
533.49	1.00000e-13
534.46	1.00000e-13
535.43	1.00000e-13
536.40	1.00000e-13
537.37	1.00000e-13
538.34	1.00000e-13
539.31	1.00000e-13
540.28	1.04268e-5
541.25	1.00000e-13
542.22	1.00000e-13
543.19	1.00000e-13
544.16	1.00000e-13
545.13	1.00000e-13
546.10	1.00000e-13
547.07	1.00000e-13
548.04	1.00000e-13
549.01	1.00000e-13
549.97	1.96951e-6
550.95	1.00000e-13
551.92	5.37560e-5
552.89	1.00000e-13
553.86	1.00000e-13
554.83	1.00000e-13
555.79	1.00000e-13
556.77	1.00000e-13
557.74	1.20488e-5
558.71	1.00000e-13
559.67	1.00000e-13
560.65	1.00000e-13
561.62	1.62195e-6
562.59	1.00000e-13
563.56	1.00000e-13
564.53	1.00000e-13
565.50	1.00000e-13
566.47	1.00000e-13
567.44	1.00000e-13
568.41	1.00000e-13
569.38	1.00000e-13
570.35	1.00000e-13
571.31	1.00000e-13
572.29	1.00000e-13
573.26	1.00000e-13
574.23	1.00000e-13
575.20	1.00000e-13
576.17	1.00000e-13
577.14	1.00000e-13
578.11	1.00000e-13
579.08	1.00000e-13
580.05	1.00000e-13
581.01	1.00000e-13
581.99	1.00000e-13
582.95	1.00000e-13
583.92	1.00000e-13
584.90	1.00000e-13
585.86	1.00000e-13
586.84	1.00000e-13
587.81	1.00000e-13
588.78	1.00000e-13
589.75	1.00000e-13
590.72	1.00000e-13
591.69	1.00000e-13
592.65	1.00000e-13
593.63	1.00000e-13
594.59	1.00000e-13
595.57	5.90853e-6
596.54	1.00000e-13
597.51	1.00000e-13
598.47	1.00000e-13
599.45	1.00000e-13
600.42	1.00000e-13
601.39	1.00000e-13
602.36	1.00000e-13
603.32	1.00000e-13
604.29	1.00000e-13
605.26	1.00000e-13
606.24	1.00000e-13
607.20	1.00000e-13
608.17	1.00000e-13
609.15	1.00000e-13
610.12	5.56097e-6
611.08	1.00000e-13
612.06	1.00000e-13
613.03	1.00000e-13
614.00	1.00000e-13
614.97	1.00000e-13
615.94	1.00000e-13
616.91	1.00000e-13
617.87	1.00000e-13
618.85	1.00000e-13
619.82	1.00000e-13
620.79	1.00000e-13
621.75	1.00000e-13
622.72	1.00000e-13
623.70	1.00000e-13
624.66	1.00000e-13
625.64	1.00000e-13
626.61	1.00000e-13
627.58	1.00000e-13
628.54	1.00000e-13
629.51	3.59146e-6
630.49	1.00000e-13
631.46	3.22073e-5
632.43	1.00000e-13
633.39	1.00000e-13
634.36	1.00000e-13
635.33	1.00000e-13
636.30	1.00000e-13
637.28	1.00000e-13
638.25	1.00000e-13
639.22	1.00000e-13
640.18	1.00000e-13
641.16	1.15853e-5
642.12	1.00000e-13
643.09	1.00000e-13
644.06	4.74999e-6
645.03	1.00000e-13
646.00	1.00000e-13
646.97	1.00000e-13
647.94	1.00000e-13
648.92	1.00000e-13
649.89	1.00000e-13
650.85	9.26828e-7
651.82	1.00000e-13
652.79	1.00000e-13
653.76	1.00000e-13
654.73	1.00000e-13
655.70	1.00000e-13
656.67	1.00000e-13
657.64	1.00000e-13
658.61	1.00000e-13
659.58	1.00000e-13
660.55	1.00000e-13
661.52	1.00000e-13
662.50	4.17073e-6
663.46	1.00000e-13
664.43	1.00000e-13
665.40	1.00000e-13
666.37	1.00000e-13
667.34	1.00000e-13
668.31	1.00000e-13
669.28	1.00000e-13
670.25	1.00000e-13
671.22	1.00000e-13
672.19	1.00000e-13
673.16	1.00000e-13
674.14	1.00000e-13
675.10	1.00000e-13
676.07	1.00000e-13
677.04	1.00000e-13
678.01	1.00000e-13
678.98	1.00000e-13
679.95	1.00000e-13
680.92	1.00000e-13
681.89	1.00000e-13
682.86	2.43292e-6
683.83	1.00000e-13
684.80	1.00000e-13
685.77	1.00000e-13
686.75	1.00000e-13
687.71	1.00000e-13
688.68	1.00000e-13
689.65	1.00000e-13
690.62	1.00000e-13
691.59	1.00000e-13
692.56	1.00000e-13
693.53	1.00000e-13
694.50	1.00000e-13
695.47	1.00000e-13
696.44	1.00000e-13
697.41	1.00000e-13
698.39	1.00000e-13
699.35	1.00000e-13
700.32	1.00000e-13
701.29	1.00000e-13
702.26	1.00000e-13
703.23	1.00000e-13
704.20	1.00000e-13
705.17	1.00000e-13
706.14	1.00000e-13
707.11	1.00000e-13
708.08	1.00000e-13
709.05	1.00000e-13
710.03	1.00000e-13
711.00	1.00000e-13
711.97	1.00000e-13
712.93	1.00000e-13
713.90	1.00000e-13
714.87	1.00000e-13
715.84	1.00000e-13
716.81	1.00000e-13
717.78	4.86585e-6
718.75	1.00000e-13
719.72	1.00000e-13
720.69	1.00000e-13
721.66	1.00000e-13
722.64	1.00000e-13
723.60	1.00000e-13
724.57	1.00000e-13
725.54	1.00000e-13
726.51	1.00000e-13
727.48	1.00000e-13
728.45	1.00000e-13
729.42	1.00000e-13
730.39	1.00000e-13
731.36	1.00000e-13
732.33	1.00000e-13
733.30	1.00000e-13
734.27	1.00000e-13
735.25	1.00000e-13
736.21	1.00000e-13
737.18	1.00000e-13
738.15	1.00000e-13
739.12	1.00000e-13
740.09	1.15853e-7
741.06	1.00000e-13
742.03	1.00000e-13
743.00	1.00000e-13
743.97	1.00000e-13
744.94	1.00000e-13
745.91	6.71950e-6
746.89	1.00000e-13
747.85	1.96951e-6
748.82	1.00000e-13
749.79	1.00000e-13
750.76	1.00000e-13
751.73	1.00000e-13
752.70	1.00000e-13
753.67	1.00000e-13
754.64	1.00000e-13
755.61	1.00000e-13
756.58	1.00000e-13
757.55	1.00000e-13
758.52	1.00000e-13
759.49	1.00000e-13
760.46	1.00000e-13
761.43	1.00000e-13
762.40	1.00000e-13
763.37	1.00000e-13
764.34	1.00000e-13
765.31	1.00000e-13
766.28	1.00000e-13
767.25	1.00000e-13
768.22	1.00000e-13
769.19	1.00000e-13
770.16	1.00000e-13
771.14	1.00000e-13
772.10	1.00000e-13
773.07	1.00000e-13
774.04	1.00000e-13
775.01	1.00000e-13
775.98	1.00000e-13
776.95	1.00000e-13
777.92	6.71950e-6
778.89	1.00000e-13
779.86	1.00000e-13
780.83	1.00000e-13
781.80	3.35975e-6
782.77	1.00000e-13
783.74	1.00000e-13
784.71	1.00000e-13
785.68	1.00000e-13
786.65	1.00000e-13
787.62	1.00000e-13
788.59	1.00000e-13
789.56	1.00000e-13
790.53	1.00000e-13
791.50	1.00000e-13
792.47	1.00000e-13
793.44	1.00000e-13
794.41	1.00000e-13
795.38	1.00000e-13
796.35	1.00000e-13
797.32	1.00000e-13
798.29	1.00000e-13
799.26	1.00000e-13
800.23	5.56097e-6
801.20	1.00000e-13
802.17	1.00000e-13
803.14	1.00000e-13
804.11	1.00000e-13
805.08	1.00000e-13
806.05	1.00000e-13
807.02	1.00000e-13
807.99	1.00000e-13
808.96	1.00000e-13
809.93	1.00000e-13
810.90	1.00000e-13
811.87	1.00000e-13
812.84	1.00000e-13
813.81	1.00000e-13
814.78	1.22805e-5
815.75	1.00000e-13
816.72	1.00000e-13
817.69	1.00000e-13
818.66	1.00000e-13
819.63	1.00000e-13
820.60	1.00000e-13
821.57	1.19329e-5
822.54	1.00000e-13
823.51	1.00000e-13
824.48	1.00000e-13
825.45	1.00000e-13
826.42	1.00000e-13
827.39	1.00000e-13
828.36	1.00000e-13
829.33	1.00000e-13
830.30	1.00000e-13
831.27	1.00000e-13
832.25	1.00000e-13
833.21	1.00000e-13
834.18	1.00000e-13
835.15	1.00000e-13
836.12	4.17073e-6
837.09	1.00000e-13
838.06	1.00000e-13
839.03	1.00000e-13
840.00	1.00000e-13
840.97	1.00000e-13
841.94	1.00000e-13
842.91	1.00000e-13
843.88	1.00000e-13
844.85	1.93475e-5
845.82	1.00000e-13
846.79	1.00000e-13
847.76	1.00000e-13
848.73	1.00000e-13
849.70	1.00000e-13
850.67	1.00000e-13
851.64	1.00000e-13
852.61	1.00000e-13
853.58	1.00000e-13
854.55	1.00000e-13
855.52	1.00000e-13
856.49	1.00000e-13
857.46	1.00000e-13
858.43	1.00000e-13
859.40	1.00000e-13
860.37	1.00000e-13
861.34	1.00000e-13
862.31	1.00000e-13
863.28	1.00000e-13
864.25	1.00000e-13
865.22	1.00000e-13
866.19	1.00000e-13
867.16	1.00000e-13
868.13	1.00000e-13
869.10	1.00000e-13
870.07	1.00000e-13
871.04	1.00000e-13
872.01	1.00000e-13
872.98	1.00000e-13
873.95	1.00000e-13
874.92	1.00000e-13
875.89	1.00000e-13
876.86	1.00000e-13
877.83	1.00000e-13
878.80	1.00000e-13
879.77	1.00000e-13
880.74	1.00000e-13
881.71	1.00000e-13
882.68	1.00000e-13
883.65	1.00000e-13
884.62	1.00000e-13
885.59	1.00000e-13
886.56	1.00000e-13
887.53	1.00000e-13
888.50	1.00000e-13
889.47	1.00000e-13
890.44	1.00000e-13
891.41	1.00000e-13
892.38	1.00000e-13
893.35	1.00000e-13
894.32	1.00000e-13
895.29	1.00000e-13
896.26	1.00000e-13
897.23	1.00000e-13
898.20	3.35975e-6
899.17	1.00000e-13
900.14	1.00000e-13
901.11	1.00000e-13
902.08	1.00000e-13
903.05	1.00000e-13
904.02	1.00000e-13
904.99	1.00000e-13
905.96	1.00000e-13
906.93	1.00000e-13
907.89	1.00000e-13
908.87	1.00000e-13
909.84	1.00000e-13
910.81	1.00000e-13
911.78	1.00000e-13
912.75	1.00000e-13
913.72	1.00000e-13
914.69	1.00000e-13
915.66	1.00000e-13
916.63	1.00000e-13
917.59	1.00000e-13
918.57	1.00000e-13
919.54	1.00000e-13
920.51	1.00000e-13
921.48	1.00000e-13
922.45	1.00000e-13
923.42	1.00000e-13
924.39	5.79267e-7
925.36	1.00000e-13
926.33	1.00000e-13
927.30	1.00000e-13
928.27	1.00000e-13
929.24	1.00000e-13
930.21	1.00000e-13
931.18	1.00000e-13
932.15	1.00000e-13
933.12	1.48292e-5
934.08	1.00000e-13
935.06	2.43292e-6
936.03	1.00000e-13
937.00	1.00000e-13
937.97	1.00000e-13
938.94	1.00000e-13
939.91	1.00000e-13
940.88	1.00000e-13
941.85	1.52927e-5
942.82	1.00000e-13
943.79	1.00000e-13
944.75	1.00000e-13
945.73	1.00000e-13
946.70	1.00000e-13
947.66	1.00000e-13
948.63	1.00000e-13
949.61	1.00000e-13
950.58	1.00000e-13
951.55	1.50610e-6
952.52	1.00000e-13
953.49	1.00000e-13
954.45	1.00000e-13
955.42	1.00000e-13
956.40	1.00000e-13
957.37	1.00000e-13
958.34	1.00000e-13
959.31	1.00000e-13
960.27	1.00000e-13
961.24	1.00000e-13
962.22	1.00000e-13
963.19	1.00000e-13
964.16	1.00000e-13
965.13	1.00000e-13
966.10	9.84755e-6
967.06	1.00000e-13
968.03	1.00000e-13
969.00	1.00000e-13
969.98	1.00000e-13
970.94	1.00000e-13
971.92	1.00000e-13
972.89	1.00000e-13
973.85	1.00000e-13
974.83	1.00000e-13
975.80	1.00000e-13
976.77	8.10974e-7
977.73	1.00000e-13
978.70	1.00000e-13
979.67	1.00000e-13
980.64	1.00000e-13
981.61	1.00000e-13
982.58	1.00000e-13
983.55	1.00000e-13
984.52	1.00000e-13
985.49	1.00000e-13
986.47	1.00000e-13
987.44	1.00000e-13
988.41	1.00000e-13
989.38	1.00000e-13
990.34	1.00000e-13
991.31	1.00000e-13
992.28	1.00000e-13
993.26	1.00000e-13
994.22	1.00000e-13
995.19	1.00000e-13
996.16	1.00000e-13
997.13	1.00000e-13
998.10	1.00000e-13
999.08	1.49451e-5
1000.05	1.00000e-13
1001.02	2.02744e-5
1001.98	1.00000e-13
1002.95	1.00000e-13
1003.92	1.00000e-13
1004.89	1.00000e-13
1005.86	1.00000e-13
1006.83	1.00000e-13
1007.80	1.93475e-5
1008.77	1.00000e-13
1009.74	1.00000e-13
1010.71	1.00000e-13
1011.69	1.00000e-13
1012.66	1.00000e-13
1013.63	1.00000e-13
1014.59	1.00000e-13
1015.56	1.00000e-13
1016.53	1.00000e-13
1017.50	1.00000e-13
1018.47	1.00000e-13
1019.44	1.00000e-13
1020.41	1.00000e-13
1021.38	1.00000e-13
1022.35	1.00000e-13
1023.33	1.00000e-13
1024.30	1.00000e-13
1025.27	1.00000e-13
1026.23	3.24390e-6
1027.20	1.00000e-13
1028.17	1.00000e-13
1029.14	1.00000e-13
1030.11	1.00000e-13
1031.08	4.40243e-6
1032.05	1.00000e-13
1033.02	1.00000e-13
1033.99	1.00000e-13
1034.96	1.00000e-13
1035.94	1.00000e-13
1036.91	1.00000e-13
1037.87	3.70731e-6
1038.84	1.00000e-13
1039.81	1.00000e-13
1040.78	1.00000e-13
1041.75	1.00000e-13
1042.72	1.00000e-13
1043.69	1.00000e-13
1044.66	1.00000e-13
1045.63	1.00000e-13
1046.60	1.00000e-13
1047.58	1.00000e-13
1048.55	1.00000e-13
1049.52	1.00000e-13
1050.48	1.00000e-13
1051.45	1.00000e-13
1052.42	1.00000e-13
1053.39	1.00000e-13
1054.36	1.00000e-13
1055.33	3.02378e-5
1056.30	1.00000e-13
1057.27	1.00000e-13
1058.24	1.00000e-13
1059.21	3.93902e-6
1060.19	1.00000e-13
1061.16	1.00000e-13
1062.12	1.00000e-13
1063.09	1.00000e-13
1064.06	1.00000e-13
1065.03	1.00000e-13
1066.00	1.00000e-13
1066.97	1.00000e-13
1067.94	1.00000e-13
1068.91	1.00000e-13
1069.88	2.80365e-5
1070.85	1.00000e-13
1071.82	1.00000e-13
1072.80	1.00000e-13
1073.76	1.00000e-13
1074.73	1.00000e-13
1075.70	1.00000e-13
1076.67	1.00000e-13
1077.64	1.00000e-13
1078.61	1.00000e-13
1079.58	1.00000e-13
1080.55	1.00000e-13
1081.52	1.00000e-13
1082.49	1.00000e-13
1083.46	1.00000e-13
1084.44	1.00000e-13
1085.41	1.00000e-13
1086.37	1.00000e-13
1087.34	1.00000e-13
1088.31	1.00000e-13
1089.28	1.00000e-13
1090.25	1.00000e-13
1091.22	1.00000e-13
1092.19	5.67682e-6
1093.16	1.00000e-13
1094.13	1.00000e-13
1095.10	1.00000e-13
1096.07	1.00000e-13
1097.05	1.00000e-13
1098.01	1.00000e-13
1098.98	1.00000e-13
1099.95	1.00000e-13
1100.92	1.00000e-13
1101.89	1.00000e-13
1102.86	1.00000e-13
1103.83	1.00000e-13
1104.80	1.00000e-13
1105.77	1.00000e-13
1106.74	1.00000e-13
1107.71	1.00000e-13
1108.69	1.00000e-13
1109.66	1.00000e-13
1110.62	1.00000e-13
1111.59	3.59146e-6
1112.56	1.00000e-13
1113.53	1.00000e-13
1114.50	3.59146e-6
1115.47	1.00000e-13
1116.44	1.00000e-13
1117.41	1.00000e-13
1118.38	1.00000e-13
1119.35	1.00000e-13
1120.32	1.00000e-13
1121.30	1.00000e-13
1122.27	1.00000e-13
1123.23	1.00000e-13
1124.20	1.00000e-13
1125.17	1.00000e-13
1126.14	1.00000e-13
1127.11	1.00000e-13
1128.08	1.00000e-13
1129.05	4.98170e-6
1130.02	1.00000e-13
1130.99	1.00000e-13
1131.96	1.00000e-13
1132.94	1.00000e-13
1133.91	1.00000e-13
1134.87	1.00000e-13
1135.84	1.00000e-13
1136.81	1.00000e-13
1137.78	1.00000e-13
1138.75	9.15242e-6
1139.72	1.00000e-13
1140.69	1.00000e-13
1141.66	1.00000e-13
1142.63	1.00000e-13
1143.60	1.00000e-13
1144.57	1.00000e-13
1145.55	1.00000e-13
1146.52	1.00000e-13
1147.48	1.00000e-13
1148.45	1.00000e-13
1149.42	1.00000e-13
1150.39	1.00000e-13
1151.36	1.00000e-13
1152.33	1.00000e-13
1153.30	1.00000e-13
1154.27	1.00000e-13
1155.24	1.00000e-13
1156.21	1.00000e-13
1157.19	1.00000e-13
1158.16	1.00000e-13
1159.12	1.00000e-13
1160.09	1.00000e-13
1161.06	1.00000e-13
1162.03	1.00000e-13
1163.00	1.00000e-13
1163.97	1.00000e-13
1164.94	1.00000e-13
1165.91	2.31707e-6
1166.88	1.00000e-13
1167.85	1.00000e-13
1168.82	1.00000e-13
1169.80	1.00000e-13
1170.76	1.00000e-13
1171.73	1.00000e-13
1172.70	1.00000e-13
1173.67	1.00000e-13
1174.64	1.41341e-5
1175.61	1.00000e-13
1176.58	1.00000e-13
1177.55	1.00000e-13
1178.52	1.00000e-13
1179.49	1.00000e-13
1180.46	1.00000e-13
1181.44	1.12378e-5
1182.41	1.00000e-13
1183.37	1.00000e-13
1184.34	1.00000e-13
1185.31	1.00000e-13
1186.28	1.00000e-13
1187.25	1.00000e-13
1188.22	1.00000e-13
1189.19	1.00000e-13
1190.16	1.00000e-13
1191.13	1.00000e-13
1192.10	1.00000e-13
1193.07	1.00000e-13
1194.05	1.00000e-13
1195.01	1.00000e-13
1195.98	1.00000e-13
1196.95	1.00000e-13
1197.92	1.00000e-13
1198.89	1.00000e-13
1199.86	1.00000e-13
1200.83	1.27439e-6
1201.80	1.00000e-13
1202.77	1.00000e-13
1203.74	1.81890e-5
1204.71	1.00000e-13
1205.68	1.00000e-13
1206.66	1.00000e-13
1207.62	1.00000e-13
1208.59	4.63414e-7
1209.56	1.00000e-13
1210.53	1.00000e-13
1211.50	1.00000e-13
1212.47	1.34390e-5
1213.44	2.08536e-6
1214.41	1.00000e-13
1215.38	1.00000e-13
1216.35	1.00000e-13
1217.32	1.00000e-13
1218.30	1.00000e-13
1219.26	1.00000e-13
1220.23	1.00000e-13
1221.20	1.00000e-13
1222.17	1.00000e-13
1223.14	1.00000e-13
1224.11	1.00000e-13
1225.08	7.18292e-6
1226.05	1.00000e-13
1227.02	1.00000e-13
1227.99	1.00000e-13
1228.96	1.00000e-13
1229.93	1.00000e-13
1230.91	7.99389e-6
1231.87	1.00000e-13
1232.84	1.00000e-13
1233.81	1.00000e-13
1234.78	1.00000e-13
1235.75	1.00000e-13
1236.72	1.00000e-13
1237.69	1.00000e-13
1238.66	2.54878e-6
1239.63	1.00000e-13
1240.60	1.00000e-13
1241.57	1.00000e-13
1242.55	1.44817e-5
1243.51	1.00000e-13
1244.48	1.00000e-13
1245.45	1.00000e-13
1246.42	1.39024e-6
1247.39	1.00000e-13
1248.36	1.00000e-13
1249.33	1.00000e-13
1250.30	1.00000e-13
1251.27	1.00000e-13
1252.24	1.00000e-13
1253.21	1.00000e-13
1254.18	1.00000e-13
1255.16	1.00000e-13
1256.12	1.00000e-13
1257.09	3.35975e-6
1258.06	1.00000e-13
1259.03	1.00000e-13
1260.00	1.00000e-13
1260.97	8.22560e-6
1261.94	1.00000e-13
1262.91	1.00000e-13
1263.88	1.00000e-13
1264.85	1.00000e-13
1265.82	1.00000e-13
1266.80	2.66463e-6
1267.76	1.00000e-13
1268.73	1.61036e-5
1269.70	6.03597e-5
1270.67	1.93823e-4
1271.64	3.95524e-4
1272.61	7.82474e-4
1273.58	1.63747e-3
1274.55	2.96098e-3
1275.52	5.18317e-3
1276.49	9.24383e-3
1277.46	0.0123424
1278.43	0.0155675
1279.41	0.0164379
1280.37	0.0142753
1281.34	9.02967e-3
1282.31	3.60687e-3
1283.28	1.05983e-3
1284.25	2.39933e-4
1285.22	1.55244e-4
1286.19	3.40609e-5
1287.16	3.12804e-6
1288.13	3.81158e-5
1289.10	1.00000e-13
1290.07	1.00000e-13
1291.05	1.22805e-5
1292.02	1.00000e-13
1292.98	1.00000e-13
1293.95	1.27439e-6
1294.92	1.00000e-13
1295.89	1.00000e-13
1296.86	1.00000e-13
1297.83	1.00000e-13
1298.80	2.31707e-6
1299.77	9.61584e-6
1300.74	1.00000e-13
1301.71	1.00000e-13
1302.68	1.00000e-13
1303.66	1.00000e-13
1304.62	1.00000e-13
1305.59	1.00000e-13
1306.56	1.00000e-13
1307.53	1.00000e-13
1308.50	1.00000e-13
1309.47	1.00000e-13
1310.44	1.00000e-13
1311.41	1.00000e-13
1312.38	1.00000e-13
1313.35	1.00000e-13
1314.32	1.00000e-13
1314.64	1.00000e-13