File: data/TGA/005d-B/005dB1-rGPC+flash TG.txt
Filename	005dB1-rGPC+flash
Instrument name
Operator	Gwenael
rundate	2025-01-13
Sample name	005dB1-rGPC+flash
[step]
Step 1
Time	Temperature	Weight	Weight	Deriv. Weight
min	°C	mg	%	% / °C
0.01	26.44	5.058	99.981	-2.77558e-3
0.98	27.68	5.073	100.271	-3.71056e-3
2.03	29.62	5.075	100.311	-4.56477e-3
3.08	33.19	5.075	100.311	-5.27475e-3
4.13	38.01	5.075	100.319	-5.87269e-3
5.18	43.35	5.075	100.308	-6.38882e-3
6.23	48.67	5.074	100.302	-6.84214e-3
7.28	53.79	5.073	100.286	-7.25156e-3
8.33	58.75	5.073	100.275	-7.61888e-3
9.38	63.67	5.072	100.259	-7.95445e-3
10.43	68.65	5.071	100.247	-8.25399e-3
11.48	73.75	5.070	100.218	-8.50075e-3
12.53	78.97	5.068	100.176	-8.69397e-3
13.58	84.26	5.064	100.101	-8.83704e-3
14.63	89.59	5.060	100.027	-8.93171e-3
15.68	94.95	5.056	99.934	-9.50400e-3
16.73	99.46	5.052	99.865	-0.0100591
17.78	102.05	5.049	99.811	-0.0105306
18.83	102.99	5.047	99.769	-0.0109052
19.88	102.93	5.046	99.735	-0.0111450
20.93	102.41	5.044	99.708	-0.0112762
21.98	101.72	5.043	99.680	-0.0113547
23.03	101.03	5.042	99.659	-0.0114533
24.08	100.43	5.041	99.641	-0.0116597
25.13	100.02	5.040	99.624	-0.0120119
26.18	101.08	5.040	99.633	-0.0125691
27.23	104.46	5.041	99.643	-0.0133244
28.28	109.19	5.040	99.633	-0.0142793
29.33	114.27	5.039	99.604	-0.0153635
30.38	119.28	5.038	99.585	-0.0165132
31.43	124.24	5.036	99.551	-0.0176663
32.47	129.26	5.035	99.534	-0.0187685
33.53	134.38	5.034	99.497	-0.0198281
34.58	139.61	5.031	99.444	-0.0208495
35.63	144.89	5.028	99.379	-0.0218512
36.68	150.21	5.023	99.285	-0.0228395
37.73	155.52	5.017	99.173	-0.0238258
38.78	160.83	5.010	99.030	-0.0248202
39.83	166.13	5.002	98.870	-0.0258379
40.88	171.40	4.992	98.674	-0.0268867
41.93	176.65	4.982	98.470	-0.0278955
42.98	181.91	4.970	98.250	-0.0287888
44.03	187.18	4.960	98.040	-0.0295103
45.08	192.44	4.949	97.832	-0.0300592
46.13	197.69	4.939	97.633	-0.0304365
47.18	202.93	4.929	97.433	-0.0306479
48.23	208.18	4.920	97.244	-0.0306873
49.28	213.43	4.910	97.061	-0.0305642
50.33	218.68	4.902	96.887	-0.0303059
51.38	223.94	4.893	96.725	-0.0299738
52.43	229.20	4.886	96.572	-0.0296852
53.48	234.46	4.879	96.435	-0.0295003
54.53	239.72	4.872	96.311	-0.0294331
55.58	244.98	4.866	96.185	-0.0294936
56.63	250.24	4.860	96.073	-0.0297025
57.68	255.50	4.854	95.956	-0.0300650
58.73	260.76	4.849	95.851	-0.0305842
59.78	266.02	4.843	95.731	-0.0312580
60.83	271.28	4.837	95.610	-0.0320932
61.88	276.53	4.831	95.501	-0.0330989
62.93	281.79	4.825	95.369	-0.0343021
63.98	287.05	4.818	95.235	-0.0357373
65.03	292.33	4.810	95.087	-0.0374462
66.07	297.20	4.801	94.907	-0.0394764
67.13	299.99	4.792	94.719	-0.0418789
68.18	301.32	4.783	94.535	-0.0447309
69.23	301.88	4.774	94.366	-0.0480962
70.28	301.83	4.766	94.214	-0.0520803
71.33	301.39	4.759	94.069	-0.0568220
72.38	300.82	4.753	93.942	-0.0625306
73.43	300.30	4.747	93.828	-0.0695480
74.48	299.91	4.741	93.714	-0.0782774
75.53	299.71	4.736	93.609	-0.0894010
76.58	299.65	4.731	93.511	-0.103893
77.63	299.71	4.726	93.417	-0.122597
78.68	299.81	4.721	93.320	-0.143615
79.73	299.92	4.716	93.228	-0.134012
80.78	300.01	4.712	93.136	0.181686
81.83	300.06	4.708	93.054	0.759753
82.88	300.08	4.703	92.971	0.806531
83.93	300.07	4.699	92.882	0.759424
84.98	300.05	4.695	92.802	0.748785
86.03	300.03	4.691	92.722	0.714466
87.08	300.01	4.687	92.641	0.246972
88.13	299.99	4.683	92.567	-1.77613
89.18	299.99	4.679	92.489	-3.39532
90.23	299.98	4.675	92.418	-3.32160
91.28	299.99	4.671	92.339	-3.14139
92.33	299.99	4.668	92.268	-2.91993
93.38	300.00	4.664	92.194	-1.33558
94.43	300.00	4.660	92.121	5.89676
95.48	300.01	4.657	92.047	14.1522
96.53	300.01	4.654	91.990	14.6002
97.58	300.00	4.650	91.913	13.9166
98.63	300.00	4.646	91.839	13.5852
99.68	300.00	4.643	91.774	10.8374
100.73	300.00	4.639	91.703	-6.37086
101.78	300.00	4.636	91.639	-43.8648
102.83	300.00	4.633	91.572	-53.9183
103.88	300.00	4.629	91.504	-47.9874
104.93	300.00	4.626	91.432	-38.1804
105.98	300.00	4.623	91.377	-12.0666
107.03	300.00	4.619	91.307	58.5205
108.08	300.00	4.616	91.240	132.546
109.13	300.00	4.613	91.175	140.024
110.18	300.00	4.609	91.111	126.042
111.23	300.00	4.606	91.043	109.004
112.28	300.00	4.603	90.979	52.0788
113.33	300.00	4.599	90.913	-29.7701
114.38	300.00	4.596	90.854	-77.5177
115.43	300.00	4.593	90.791	-78.4043
116.48	300.00	4.590	90.730	-37.5547
117.53	300.00	4.587	90.665	-16.6317
118.58	300.00	4.584	90.607	40.4962
119.63	300.00	4.580	90.541	31.1872
120.68	300.00	4.577	90.476	-0.642326
121.73	300.00	4.574	90.420	-69.4962
122.78	300.00	4.571	90.360	-105.817
123.83	300.00	4.568	90.297	-84.8353
124.88	300.00	4.565	90.239	-53.6437
125.93	300.00	4.562	90.172	-4.83142
126.98	300.00	4.559	90.107	-2.34437
128.02	300.00	4.556	90.056	-94.2006
129.08	300.00	4.553	90.006	-159.279
130.13	300.00	4.550	89.944	-153.842
131.18	300.00	4.547	89.881	-132.301
132.23	300.00	4.544	89.826	-84.1378
133.27	300.00	4.541	89.765	-15.3972
134.33	300.00	4.538	89.709	55.3092
135.38	300.00	4.536	89.654	96.1203
136.43	300.00	4.532	89.586	149.473
137.48	300.00	4.529	89.533	197.061
138.53	300.00	4.527	89.479	203.363
139.58	300.00	4.524	89.423	193.221
140.63	300.00	4.521	89.370	184.789
141.68	300.00	4.518	89.307	178.600
142.73	300.00	4.515	89.254	168.005
143.78	300.00	4.513	89.198	170.344
144.83	300.00	4.510	89.143	174.079
145.88	300.00	4.507	89.087	124.059
146.93	300.00	4.504	89.034	62.0665
147.98	300.00	4.501	88.980	55.1948
149.03	300.00	4.499	88.927	40.4756
150.08	300.00	4.496	88.876	29.2373
151.13	300.00	4.494	88.828	46.8474
152.18	300.00	4.491	88.767	34.6209
153.23	300.00	4.488	88.705	13.8259
154.28	300.00	4.485	88.651	10.2649
155.33	300.00	4.482	88.593	-12.7029
156.38	300.00	4.479	88.540	-8.30232
157.43	300.00	4.477	88.497	-27.5124
158.48	300.00	4.474	88.441	-101.979
159.53	300.00	4.471	88.380	-151.455
160.58	300.00	4.469	88.336	-167.639
161.63	300.00	4.466	88.279	-174.038
162.68	300.00	4.463	88.223	-178.296
163.73	300.00	4.461	88.175	-141.096
164.78	300.00	4.458	88.123	-108.301
165.83	300.00	4.456	88.073	-87.8975
166.88	300.00	4.453	88.019	-56.2011
167.93	300.00	4.450	87.968	-34.3770
168.98	300.00	4.447	87.911	-27.0423
170.03	300.00	4.445	87.857	-22.8599
171.08	300.00	4.443	87.815	-44.2337
172.13	300.00	4.440	87.760	-51.8812
173.18	300.00	4.437	87.701	-48.1413
174.23	300.00	4.435	87.669	0.770795
175.28	300.00	4.432	87.608	9.05531
176.33	300.00	4.429	87.550	-6.36399
177.38	300.00	4.427	87.506	-47.7833
178.43	300.00	4.425	87.464	-34.1995
179.48	300.00	4.422	87.408	-103.731
180.53	300.00	4.419	87.356	-100.698
181.58	300.00	4.417	87.306	-77.2624
182.63	300.00	4.414	87.259	-85.4251
183.68	300.00	4.412	87.209	-100.300
184.73	300.00	4.409	87.151	-68.1809
185.78	300.00	4.407	87.108	-12.2975
186.83	300.00	4.404	87.060	11.4220
187.88	300.00	4.402	87.009	25.4615
188.93	300.00	4.399	86.959	-24.7357
189.98	300.00	4.397	86.914	-76.1857
191.03	300.00	4.394	86.859	-96.5909
192.08	300.00	4.392	86.816	-134.050
193.13	300.00	4.389	86.759	-158.560
194.18	300.00	4.387	86.720	-159.003
195.23	300.00	4.385	86.668	-151.934
196.28	300.00	4.382	86.619	-122.093
197.33	300.00	4.380	86.570	-81.8551
198.38	300.00	4.377	86.524	-50.3763
199.43	300.00	4.375	86.470	-29.2938
200.48	300.00	4.373	86.434	-0.327959
201.53	300.00	4.370	86.382	-4.99104
202.58	300.00	4.367	86.328	0.258983
203.63	300.00	4.366	86.299	4.90450
204.68	300.00	4.363	86.244	21.5469
205.73	300.00	4.361	86.198	19.5413
206.78	300.00	4.358	86.147	16.4232
207.83	300.00	4.356	86.094	1.34870
208.88	300.00	4.353	86.048	4.73240
209.93	300.00	4.351	86.013	17.0297
210.98	300.00	4.349	85.964	46.3586
212.03	300.00	4.347	85.921	56.2595
213.08	300.00	4.344	85.876	49.7423
214.13	300.00	4.342	85.829	41.6248
215.18	300.00	4.340	85.784	50.5491
216.23	300.00	4.338	85.740	53.3208
217.28	300.00	4.335	85.684	69.5111
218.33	300.00	4.333	85.652	85.1846
219.38	300.00	4.331	85.612	82.3767
220.43	300.00	4.329	85.561	82.4524
221.48	300.00	4.326	85.519	76.0242
222.53	300.00	4.324	85.475	73.3804
223.58	300.00	4.322	85.437	70.2439
224.63	300.00	4.320	85.384	37.8537
225.68	300.00	4.318	85.347	-4.85306
226.73	300.00	4.315	85.298	-7.55627
227.78	300.00	4.313	85.254	-15.9291
228.83	300.00	4.311	85.213	-29.8526
229.88	300.00	4.308	85.163	-26.5674
230.93	300.00	4.306	85.123	-6.35129
231.98	300.00	4.304	85.081	15.5291
233.03	300.00	4.302	85.037	7.93698
234.08	300.00	4.300	84.991	-5.96249
235.13	300.00	4.297	84.945	11.4091
236.18	300.00	4.295	84.901	11.8821
237.23	300.00	4.293	84.861	-41.3495
238.28	300.00	4.291	84.817	-92.9517
239.33	300.00	4.289	84.775	-97.3710
240.38	300.00	4.287	84.732	-98.0688
241.43	300.00	4.284	84.689	-90.5610
242.48	300.00	4.282	84.651	-69.2502
243.53	300.00	4.280	84.606	-58.3788
244.58	300.00	4.278	84.564	-50.4104
245.63	300.00	4.276	84.522	-37.4846
246.68	300.00	4.274	84.478	-19.3214
247.73	300.00	4.272	84.435	-9.68744
248.78	300.00	4.270	84.401	2.24973
249.83	300.00	4.267	84.349	5.46753
250.88	300.00	4.265	84.310	29.2476
251.93	300.00	4.262	84.254	33.1309
252.98	300.00	4.261	84.229	35.1033
254.03	300.00	4.259	84.178	61.9482
255.08	300.00	4.257	84.140	82.4339
256.13	300.00	4.254	84.096	81.5273
257.17	300.00	4.253	84.060	74.7745
258.23	300.00	4.251	84.026	59.9508
259.28	300.00	4.248	83.975	41.5380
260.33	300.00	4.246	83.936	27.9318
261.38	300.00	4.244	83.893	38.9182
262.42	300.00	4.242	83.848	37.0802
263.48	300.00	4.240	83.803	8.33886
264.53	300.00	4.238	83.768	27.1911
265.58	300.00	4.236	83.725	57.0157
266.63	300.00	4.233	83.681	71.1888
267.67	300.00	4.231	83.638	34.0127
268.73	300.00	4.230	83.604	15.7915
269.78	300.00	4.227	83.559	15.9869
270.83	300.00	4.225	83.521	-20.4176
271.88	300.00	4.223	83.471	-49.4624
272.92	300.00	4.221	83.442	-64.2572
273.98	300.00	4.219	83.400	-51.4168
275.03	300.00	4.217	83.363	-46.2055
276.08	300.00	4.215	83.322	-46.8118
277.13	300.00	4.213	83.278	-47.4442
278.18	300.00	4.211	83.236	-36.6000
279.23	300.00	4.209	83.191	-55.4724
280.28	300.00	4.207	83.150	-76.1120
281.33	300.00	4.204	83.107	-80.5793
282.38	300.00	4.203	83.072	-77.0911
283.43	300.00	4.200	83.029	-97.3123
284.48	300.00	4.198	82.988	-88.0379
285.53	300.00	4.196	82.949	-69.7897
286.58	300.00	4.194	82.910	-59.0528
287.63	300.00	4.193	82.875	-32.0140
288.68	300.00	4.190	82.827	-24.1820
289.73	300.00	4.188	82.788	-13.2014
290.78	300.00	4.186	82.745	-6.00879
291.83	300.00	4.184	82.711	11.7561
292.88	300.00	4.182	82.669	1.05313
293.93	300.00	4.180	82.630	5.03622
294.98	300.00	4.178	82.591	14.7225
296.03	300.00	4.176	82.549	29.6256
297.08	300.00	4.174	82.515	37.1964
298.13	300.00	4.172	82.468	53.0361
299.18	300.00	4.170	82.418	93.0044
300.23	300.00	4.168	82.394	113.624
301.28	300.00	4.166	82.347	121.441
302.33	300.00	4.164	82.314	131.815
303.38	300.00	4.162	82.275	98.7887
304.43	300.00	4.160	82.239	104.364
305.48	300.00	4.158	82.199	95.7814
306.53	300.00	4.156	82.156	56.4203
307.58	300.00	4.154	82.121	41.4299
308.63	300.00	4.152	82.080	40.0671
309.68	300.00	4.150	82.042	55.0326
310.73	300.00	4.149	82.003	55.9242
311.78	300.00	4.147	81.966	75.4796
312.83	300.00	4.145	81.924	85.2993
313.88	300.00	4.143	81.888	90.7522
314.93	300.00	4.141	81.845	91.6007
315.98	300.00	4.139	81.824	79.0339
317.03	300.00	4.137	81.777	80.2473
318.08	300.00	4.135	81.736	102.033
319.13	300.00	4.133	81.697	98.7656
320.18	300.00	4.131	81.652	111.150
321.23	300.00	4.129	81.618	121.664
322.28	300.00	4.127	81.576	127.120
323.33	300.00	4.125	81.541	133.161
324.38	300.00	4.123	81.497	110.162
325.43	300.00	4.121	81.466	80.8924
326.48	300.00	4.119	81.419	47.3614
327.53	300.00	4.118	81.390	44.0094
328.58	300.00	4.115	81.348	67.6233
329.63	300.00	4.114	81.311	69.6489
330.68	300.00	4.112	81.280	69.1609
331.73	300.00	4.110	81.232	98.4032
332.78	300.00	4.108	81.197	107.525
333.83	300.00	4.106	81.153	108.713
334.88	300.00	4.104	81.115	91.6379
335.93	300.00	4.102	81.078	56.9961
336.98	300.00	4.100	81.040	-3.88646
338.03	300.00	4.098	80.998	-62.1109
339.08	300.00	4.095	80.948	-83.2218
340.13	300.00	4.094	80.925	-76.4736
341.18	300.00	4.092	80.882	-71.9637
342.23	300.00	4.090	80.847	-77.9173
343.28	300.00	4.088	80.803	-85.5274
344.33	300.00	4.086	80.763	-69.0679
345.38	300.00	4.084	80.725	-64.2806
346.43	300.00	4.082	80.687	-62.4236
347.48	300.00	4.080	80.648	-71.5467
348.53	300.00	4.078	80.612	-91.8899
349.58	300.00	4.076	80.574	-107.261
350.63	300.00	4.074	80.538	-98.9676
351.68	300.00	4.072	80.494	-89.3693
352.73	300.00	4.070	80.453	-84.1455
353.78	300.00	4.068	80.419	-78.4932
354.83	300.00	4.066	80.380	-81.3237
355.88	300.00	4.064	80.341	-40.1452
356.93	300.00	4.063	80.302	-25.2735
357.98	300.00	4.060	80.262	-9.78246
359.03	300.00	4.059	80.227	-15.2534
360.08	300.00	4.057	80.186	-21.8979
361.13	300.00	4.055	80.145	-7.91539
362.18	300.00	4.053	80.108	-5.24820
363.23	300.00	4.051	80.071	19.6400
364.28	300.00	4.049	80.031	61.3290
365.33	300.00	4.047	79.996	86.1347
366.38	300.00	4.045	79.957	102.376
367.43	300.00	4.043	79.920	79.9144
368.48	300.00	4.041	79.884	27.9209
369.53	300.00	4.039	79.845	1.64223
370.58	300.00	4.037	79.803	-15.5587
371.63	300.00	4.035	79.766	-26.8144
372.68	300.00	4.034	79.734	-25.2204
373.73	300.00	4.032	79.691	1.43846
374.78	300.00	4.030	79.654	36.4477
375.83	300.00	4.028	79.612	32.9901
376.88	300.00	4.026	79.583	15.8185
377.93	300.00	4.024	79.546	-18.9092
378.98	300.00	4.022	79.504	-59.4122
380.03	300.00	4.020	79.466	-77.2433
381.08	300.00	4.018	79.431	-63.4060
382.13	300.00	4.016	79.393	-72.5608
383.18	300.00	4.015	79.355	-79.6794
384.23	300.00	4.013	79.320	-77.5643
385.28	300.00	4.011	79.280	-72.0489
386.33	300.00	4.009	79.246	-62.7799
387.38	300.00	4.007	79.206	-39.2611
388.43	300.00	4.005	79.164	-29.5322
389.48	300.00	4.004	79.145	-33.9733
390.53	300.00	4.002	79.099	-18.6959
391.58	300.00	4.000	79.064	-17.3520
392.63	300.00	3.998	79.026	-22.8728
393.68	300.00	3.996	78.983	-8.46175
394.73	300.00	3.994	78.951	-1.76604
395.78	300.00	3.992	78.908	7.17444
396.83	300.00	3.991	78.881	0.177127
397.88	300.00	3.989	78.843	-21.1987
398.93	300.00	3.987	78.811	-51.8883
399.98	300.00	3.985	78.770	-70.7517
401.03	300.00	3.983	78.732	-80.7079
402.08	300.00	3.982	78.703	-78.6484
403.13	300.00	3.980	78.670	-57.7862
404.18	300.00	3.978	78.631	-20.7968
405.23	300.00	3.976	78.590	28.4916
406.28	300.00	3.974	78.555	53.6014
407.33	300.00	3.972	78.519	41.9027
408.38	300.00	3.970	78.483	21.2919
409.43	300.00	3.968	78.444	22.1170
410.48	300.00	3.967	78.413	0.0897715
411.53	300.00	3.965	78.375	5.77414
412.58	300.00	3.963	78.341	7.07696
413.63	300.00	3.961	78.303	18.9727
414.68	300.00	3.960	78.268	39.9126
415.73	300.00	3.958	78.233	28.4126
416.78	300.00	3.956	78.202	25.0775
417.83	300.00	3.954	78.168	34.9984
418.88	300.00	3.953	78.131	56.6715
419.93	300.00	3.951	78.092	87.3251
420.98	300.00	3.949	78.059	112.044
422.03	300.00	3.947	78.023	118.354
423.08	300.00	3.945	77.988	125.933
424.13	300.00	3.944	77.951	129.616
425.18	300.00	3.942	77.917	89.9472
426.23	300.00	3.940	77.877	52.5532
427.28	300.00	3.938	77.841	21.5898
428.33	300.00	3.936	77.808	-33.1024
429.38	300.00	3.935	77.778	-93.9045
430.43	300.00	3.933	77.741	-108.841
431.48	300.00	3.931	77.708	-76.8974
432.53	300.00	3.930	77.674	-71.6768
433.58	300.00	3.928	77.635	-55.5090
434.63	300.00	3.926	77.602	-32.0469
435.68	300.00	3.924	77.568	-34.9225
436.73	300.00	3.922	77.535	0.0850441
437.78	300.00	3.921	77.501	23.0559
438.83	300.00	3.919	77.465	40.4248
439.88	300.00	3.917	77.431	61.9700
440.93	300.00	3.915	77.391	57.0448
441.98	300.00	3.914	77.359	50.4349
443.03	300.00	3.912	77.334	49.9944
444.08	300.00	3.910	77.286	36.0906
445.13	300.00	3.909	77.265	10.7602
446.18	300.00	3.907	77.226	-3.88279
447.23	300.00	3.905	77.186	0.0524065
448.28	300.00	3.903	77.154	-20.5704
449.33	300.00	3.901	77.119	-24.1354
450.38	300.00	3.900	77.089	-15.5194
451.43	300.00	3.898	77.053	-38.8586
452.48	300.00	3.896	77.020	-49.2614
453.53	300.00	3.895	76.985	-57.7079
454.58	300.00	3.893	76.951	-57.5102
455.63	300.00	3.891	76.916	-55.6368
456.68	300.00	3.890	76.885	-23.3590
457.73	300.00	3.888	76.849	-1.14211
458.78	300.00	3.886	76.813	-7.11002
459.83	300.00	3.884	76.781	-17.1754
460.88	300.00	3.883	76.752	-16.0080
461.93	300.00	3.881	76.710	-7.63753
462.98	300.00	3.879	76.677	-15.0605
464.03	300.00	3.877	76.643	-15.8698
465.08	300.00	3.876	76.611	-13.6820
466.13	300.00	3.874	76.570	-23.8003
467.18	300.00	3.872	76.534	-14.9201
468.23	300.00	3.871	76.509	-3.28667
469.28	300.00	3.869	76.469	5.03214
470.33	300.00	3.867	76.444	12.2016
471.38	300.00	3.866	76.419	8.11388
472.43	300.00	3.863	76.367	12.3487
473.48	300.00	3.862	76.341	18.8421
474.53	300.00	3.860	76.305	21.3436
475.58	300.00	3.859	76.284	15.4725
476.63	300.00	3.857	76.242	25.3581
477.68	300.00	3.855	76.207	51.6673
478.73	300.00	3.854	76.176	56.5307
479.78	300.00	3.852	76.141	56.7825
480.83	300.00	3.850	76.107	49.5074
481.88	300.00	3.849	76.078	27.4275
482.93	300.00	3.847	76.041	-11.5919
483.98	300.00	3.845	76.011	-41.6408
485.03	300.00	3.844	75.980	-53.9967
486.08	300.00	3.842	75.948	-59.1378
487.13	300.00	3.840	75.911	-47.2872
488.18	300.00	3.839	75.877	-20.8863
489.23	300.00	3.837	75.844	-1.83695
490.28	300.00	3.835	75.807	22.6074
491.33	300.00	3.833	75.775	23.4610
492.38	300.00	3.832	75.744	25.0492
493.43	300.00	3.830	75.707	18.2096
494.48	300.00	3.829	75.694	12.9840
495.53	300.00	3.827	75.647	19.9069
496.58	300.00	3.825	75.607	21.7076
497.63	300.00	3.824	75.582	29.1473
498.68	300.00	3.822	75.547	30.5570
499.73	300.00	3.820	75.514	15.6812
500.78	300.00	3.819	75.483	-9.57567
501.83	300.00	3.817	75.452	-29.3309
502.88	300.00	3.815	75.417	-46.2365
503.93	300.00	3.814	75.385	-54.0477
504.98	300.00	3.812	75.353	-48.5582
506.03	300.00	3.810	75.317	-34.6306
507.08	300.00	3.809	75.286	-14.3135
508.13	300.00	3.807	75.256	16.8785
509.18	300.00	3.806	75.223	41.4394
510.23	300.00	3.804	75.196	45.1435
511.28	300.00	3.802	75.153	55.2583
512.33	300.00	3.801	75.127	44.2966
513.38	300.00	3.799	75.093	21.8619
514.43	300.00	3.797	75.063	-0.929973
515.47	300.00	3.796	75.030	-25.6537
516.53	300.00	3.794	74.999	-44.1585
517.58	300.00	3.793	74.966	-54.2961
518.63	300.00	3.791	74.928	-41.7465
519.68	300.00	3.789	74.897	-27.4171
520.72	300.00	3.788	74.870	-13.2027
521.78	300.00	3.786	74.837	-29.0926
522.83	300.00	3.784	74.804	-20.4605
523.88	300.00	3.782	74.765	-18.5558
524.93	300.00	3.781	74.734	-17.1378
525.97	300.00	3.779	74.706	-6.89832
527.03	300.00	3.778	74.675	-2.92107
528.08	300.00	3.776	74.640	-3.46585
529.13	300.00	3.774	74.609	-10.5925
530.18	300.00	3.773	74.580	-28.0634
531.22	300.00	3.771	74.548	-42.1900
532.28	300.00	3.769	74.510	-52.0031
533.33	300.00	3.768	74.482	-71.1242
534.38	300.00	3.767	74.455	-86.9040
535.43	300.00	3.765	74.415	-57.7367
536.47	300.00	3.763	74.385	-12.9952
537.53	300.00	3.762	74.357	14.4865
538.58	300.00	3.760	74.325	21.2311
539.63	300.00	3.758	74.293	38.9064
540.68	300.00	3.757	74.254	30.1068
541.72	300.00	3.755	74.221	65.0979
542.78	300.00	3.754	74.201	47.3992
543.83	300.00	3.752	74.164	58.8979
544.88	300.00	3.750	74.132	67.1739
545.93	300.00	3.749	74.101	75.1845
546.98	300.00	3.747	74.070	80.7125
548.03	300.00	3.746	74.038	77.3407
549.08	300.00	3.744	74.011	82.4975
550.13	300.00	3.742	73.975	68.5416
551.18	300.00	3.741	73.945	49.8981
552.23	300.00	3.739	73.909	34.5041
553.28	300.00	3.738	73.880	43.7382
554.33	300.00	3.736	73.849	49.7295
555.38	300.00	3.735	73.821	39.9716
556.43	300.00	3.733	73.786	17.7817
557.48	300.00	3.731	73.754	-17.8929
558.53	300.00	3.730	73.725	-39.6426
559.58	300.00	3.728	73.691	-64.1572
560.63	300.00	3.726	73.660	-75.4673
561.68	300.00	3.725	73.629	-64.0702
562.73	300.00	3.723	73.597	-71.9272
563.78	300.00	3.722	73.572	-78.9885
564.83	300.00	3.720	73.535	-86.9694
565.88	300.00	3.719	73.507	-81.6694
566.93	300.00	3.717	73.478	-70.4406
567.98	300.00	3.716	73.448	-52.2048
569.03	300.00	3.714	73.409	-51.6968
570.08	300.00	3.712	73.382	-39.0662
571.13	300.00	3.711	73.349	-35.0499
572.18	300.00	3.709	73.316	-21.5418
573.23	300.00	3.708	73.298	7.46602
574.28	300.00	3.706	73.259	45.4861
575.33	300.00	3.705	73.228	79.8516
576.38	300.00	3.703	73.197	100.849
577.43	300.00	3.701	73.166	106.293
578.48	300.00	3.700	73.133	120.965
579.53	300.00	3.698	73.104	115.471
580.58	300.00	3.697	73.070	91.2610
581.63	300.00	3.695	73.038	71.4746
582.68	300.00	3.693	72.999	63.0736
583.73	300.00	3.692	72.978	77.4103
584.78	300.00	3.690	72.947	98.2674
585.83	300.00	3.689	72.919	104.070
586.88	300.00	3.687	72.885	105.975
587.93	300.00	3.686	72.864	101.317
588.98	300.00	3.684	72.826	87.8106
590.03	300.00	3.683	72.792	82.9410
591.08	300.00	3.681	72.764	85.8465
592.13	300.00	3.679	72.728	61.4892
593.18	300.00	3.678	72.705	17.8164
594.23	300.00	3.677	72.675	7.73678
595.28	300.00	3.675	72.639	-0.248381
596.33	300.00	3.673	72.612	-12.5554
597.38	300.00	3.672	72.583	-41.6571
598.43	300.00	3.670	72.545	-53.4190
599.48	300.00	3.668	72.514	-61.7746
600.53	300.00	3.667	72.484	-76.5987
601.58	300.00	3.665	72.454	-81.0745
602.63	300.00	3.664	72.424	-64.1208
603.68	300.00	3.662	72.392	-40.8609
604.73	300.00	3.661	72.361	-31.3089
605.78	300.00	3.659	72.331	-34.5427
606.83	300.00	3.657	72.292	-38.5138
607.88	300.00	3.656	72.268	-46.6973
608.93	300.00	3.654	72.236	-54.1641
609.98	300.00	3.653	72.209	-63.8779
611.03	300.00	3.652	72.180	-48.7802
612.08	300.00	3.650	72.143	-48.2004
613.13	300.00	3.648	72.118	-54.8724
614.18	300.00	3.647	72.084	-44.5671
615.23	300.00	3.645	72.055	-45.4764
616.28	300.00	3.644	72.027	-28.2679
617.33	300.00	3.642	71.991	15.4672
618.38	300.00	3.641	71.963	47.5723
619.43	300.00	3.639	71.931	62.9936
620.48	300.00	3.637	71.894	80.2461
621.53	300.00	3.637	71.896	76.5897
622.58	300.00	3.635	71.847	46.8642
623.63	300.00	3.633	71.812	15.1926
624.68	300.00	3.631	71.779	8.78689
625.73	300.00	3.630	71.752	13.7390
626.78	300.00	3.628	71.720	8.56151
627.83	300.00	3.627	71.690	5.60358
628.88	300.00	3.625	71.659	13.9767
629.93	300.00	3.623	71.625	15.1253
630.98	300.00	3.622	71.601	20.2641
632.03	300.00	3.620	71.555	20.3116
633.08	300.00	3.619	71.534	35.7152
634.13	300.00	3.617	71.503	37.4421
635.18	300.00	3.616	71.476	36.9868
636.23	300.00	3.614	71.437	30.7117
637.28	300.00	3.613	71.414	16.2555
638.33	300.00	3.611	71.372	0.155939
639.38	300.00	3.609	71.348	-15.9844
640.43	300.00	3.608	71.321	-12.3202
641.48	300.00	3.606	71.287	-0.652445
642.53	300.00	3.605	71.256	-11.6366
643.58	300.00	3.603	71.225	-17.5632
644.63	300.00	3.602	71.197	-15.6464
645.68	300.00	3.600	71.165	-26.7110
646.73	300.00	3.599	71.141	-29.3401
647.78	300.00	3.597	71.104	-18.9643
648.83	300.00	3.596	71.073	-12.6970
649.88	300.00	3.594	71.043	-0.360270
650.93	300.00	3.593	71.015	-0.802299
651.98	300.00	3.591	70.981	-25.0213
653.03	300.00	3.590	70.954	-28.3853
654.08	300.00	3.588	70.923	-25.4928
655.13	300.00	3.586	70.889	-38.0138
656.18	300.00	3.585	70.867	-42.8686
657.23	300.00	3.584	70.837	-57.1775
658.28	300.00	3.582	70.799	-65.5794
659.33	300.00	3.580	70.770	-66.5374
660.38	300.00	3.579	70.737	-57.1205
661.43	300.00	3.577	70.713	-40.7726
662.48	300.00	3.575	70.671	-35.0721
663.53	300.00	3.574	70.645	-25.7927
664.58	300.00	3.572	70.614	-14.8793
665.63	300.00	3.571	70.590	0.351840
666.68	300.00	3.570	70.560	2.99664
667.73	300.00	3.568	70.529	-8.76902
668.78	300.00	3.567	70.499	-15.5895
669.83	300.00	3.565	70.466	-6.62152
670.88	300.00	3.564	70.444	2.88324
671.93	300.00	3.562	70.407	13.1418
672.98	300.00	3.560	70.375	16.2930
674.03	300.00	3.559	70.352	19.3864
675.08	300.00	3.557	70.319	24.2800
676.13	300.00	3.556	70.287	27.1666
677.18	300.00	3.554	70.256	23.1798
678.23	300.00	3.553	70.227	37.7106
679.28	300.00	3.552	70.202	42.4563
680.33	300.00	3.550	70.169	36.8815
681.38	300.00	3.548	70.139	16.4301
682.43	300.00	3.547	70.109	-9.77134
683.48	300.00	3.545	70.082	7.37389
684.53	300.00	3.544	70.046	9.34553
685.58	300.00	3.543	70.024	11.4824
686.63	300.00	3.541	69.999	7.42979
687.68	300.00	3.539	69.963	-3.00030
688.73	300.00	3.538	69.936	-51.8002
689.78	300.00	3.537	69.915	-77.9859
690.83	300.00	3.535	69.876	-83.4741
691.88	300.00	3.534	69.852	-82.8346
692.93	300.00	3.532	69.815	-83.7925
693.98	300.00	3.531	69.789	-57.7159
695.03	300.00	3.529	69.755	-16.7666
696.08	300.00	3.528	69.732	11.9949
697.13	300.00	3.526	69.704	24.1683
698.18	300.00	3.525	69.669	28.4044
699.23	300.00	3.523	69.646	25.2404
700.28	300.00	3.522	69.616	10.3482
701.33	300.00	3.521	69.591	-4.16233
702.38	300.00	3.519	69.560	-10.6143
703.43	300.00	3.518	69.530	-8.98950
704.48	300.00	3.517	69.510	-0.584535
705.53	300.00	3.514	69.468	-0.218522
706.58	300.00	3.513	69.437	10.8553
707.63	300.00	3.512	69.413	24.6894
708.68	300.00	3.510	69.379	30.0140
709.73	300.00	3.509	69.356	48.9682
710.78	300.00	3.507	69.330	50.1386
711.83	300.00	3.506	69.299	33.0153
712.88	300.00	3.504	69.269	35.7367
713.93	300.00	3.503	69.244	31.2574
714.98	300.00	3.502	69.216	17.4663
716.03	300.00	3.500	69.182	-2.12706
717.08	300.00	3.498	69.153	-17.3908
718.13	300.00	3.497	69.133	-41.9926
719.18	300.00	3.495	69.092	-63.6422
720.23	300.00	3.494	69.072	-82.3874
721.28	300.00	3.493	69.036	-96.0497
722.33	300.00	3.491	69.012	-102.191
723.38	300.00	3.490	68.988	-105.648
724.43	300.00	3.489	68.959	-106.107
725.48	300.00	3.487	68.931	-93.6013
726.53	300.00	3.486	68.902	-87.3447
727.58	300.00	3.484	68.872	-65.0935
728.63	300.00	3.483	68.843	-35.1864
729.68	300.00	3.481	68.812	-26.8040
730.73	300.00	3.480	68.788	-35.4534
731.78	300.00	3.478	68.758	-46.2779
732.83	300.00	3.477	68.733	-71.8579
733.88	300.00	3.476	68.700	-76.0123
734.93	300.00	3.475	68.682	-66.9920
735.98	300.00	3.473	68.650	-43.2573
737.03	300.00	3.472	68.628	8.14658
738.08	300.00	3.470	68.590	47.1129
739.13	300.00	3.469	68.566	70.2305
740.18	300.00	3.467	68.538	87.3426
741.23	300.00	3.466	68.511	89.5889
742.28	300.00	3.465	68.485	88.7922
743.33	300.00	3.463	68.454	97.5451
744.38	300.00	3.462	68.423	119.423
745.43	300.00	3.461	68.404	116.801
746.48	300.00	3.459	68.374	100.373
747.53	300.00	3.458	68.349	95.3745
748.58	300.00	3.456	68.323	90.3832
749.63	300.00	3.455	68.295	81.4241
750.68	300.00	3.454	68.272	74.1182
751.73	300.00	3.452	68.241	48.7595
752.78	300.00	3.451	68.213	45.8020
753.83	300.00	3.449	68.185	42.8808
754.88	300.00	3.448	68.156	30.7366
755.93	300.00	3.447	68.131	9.44248
756.98	300.00	3.445	68.105	-22.6010
758.03	300.00	3.444	68.077	-28.1563
759.08	300.00	3.443	68.050	-27.8383
760.13	300.00	3.441	68.025	-23.6976
761.18	300.00	3.440	67.997	-32.7958
762.23	300.00	3.439	67.977	-12.4171
763.28	300.00	3.437	67.939	-13.3601
764.33	300.00	3.436	67.917	-33.9020
765.38	300.00	3.435	67.889	-38.1126
766.43	300.00	3.433	67.864	-8.01954
767.48	300.00	3.432	67.834	22.3166
768.53	300.00	3.430	67.804	30.4399
769.58	300.00	3.429	67.783	51.8151
770.63	300.00	3.428	67.757	55.3479
771.68	300.00	3.426	67.729	36.0522
772.73	300.00	3.425	67.701	26.2567
773.78	300.00	3.424	67.675	25.9989
774.83	300.00	3.422	67.647	-2.49365
775.88	300.00	3.421	67.620	-18.8784
776.93	300.00	3.419	67.590	-25.8461
777.98	300.00	3.418	67.569	-13.8929
779.03	300.00	3.417	67.535	0.712375
780.08	300.00	3.415	67.513	15.1017
781.13	300.00	3.414	67.484	23.0135
782.18	300.00	3.413	67.457	12.2753
783.23	300.00	3.411	67.428	3.70698
784.28	300.00	3.410	67.400	-7.65276
785.33	300.00	3.409	67.379	-16.4405
786.38	300.00	3.407	67.347	-20.9915
787.43	300.00	3.406	67.334	-15.5657
788.48	300.00	3.404	67.290	-9.76257
789.53	300.00	3.403	67.271	-4.58786e-4
790.58	300.00	3.402	67.239	4.23607
791.63	300.00	3.400	67.215	4.09557
792.68	300.00	3.399	67.192	10.9908
793.73	300.00	3.398	67.162	11.3053
794.78	300.00	3.396	67.134	5.33455
795.83	300.00	3.395	67.105	0.157972
796.88	300.00	3.394	67.079	2.78666
797.93	300.00	3.392	67.051	9.74854
798.98	300.00	3.391	67.023	10.8289
800.03	300.00	3.390	67.001	13.3953
801.08	300.00	3.388	66.968	13.2893
802.13	300.00	3.387	66.944	2.54041
803.18	300.00	3.386	66.925	-2.28321
804.23	300.00	3.384	66.894	-4.14597
805.28	300.00	3.383	66.866	-18.0481
806.33	300.00	3.381	66.837	-28.2101
807.38	300.00	3.380	66.808	-31.0777
808.43	300.00	3.378	66.779	-11.3496
809.48	300.00	3.377	66.750	11.2525
810.53	300.00	3.376	66.741	35.9429
811.58	300.00	3.375	66.708	50.9029
812.63	300.00	3.373	66.669	55.3278
813.68	300.00	3.372	66.651	47.7823
814.73	300.00	3.370	66.620	31.2689
815.78	300.00	3.369	66.597	3.54061
816.83	300.00	3.368	66.576	-2.79313
817.88	300.00	3.367	66.549	2.61455
818.93	300.00	3.365	66.515	21.0141
819.98	300.00	3.364	66.492	17.9228
821.03	300.00	3.362	66.463	17.4281
822.08	300.00	3.361	66.436	10.5549
823.13	300.00	3.360	66.410	4.38683
824.18	300.00	3.358	66.382	9.82743
825.23	300.00	3.357	66.357	11.4093
826.28	300.00	3.355	66.327	-2.70403
827.33	300.00	3.354	66.297	-13.5476
828.38	300.00	3.353	66.272	-6.08848
829.43	300.00	3.351	66.247	-14.5083
830.48	300.00	3.350	66.214	-34.0747
831.53	300.00	3.349	66.192	-47.2706
832.58	300.00	3.347	66.166	-58.0291
833.63	300.00	3.345	66.128	-63.4694
834.68	300.00	3.345	66.115	-57.3504
835.73	300.00	3.343	66.076	-50.2047
836.78	300.00	3.342	66.057	-44.9102
837.83	300.00	3.340	66.026	-41.1456
838.88	300.00	3.339	66.003	-30.4854
839.93	300.00	3.338	65.976	-21.2717
840.98	300.00	3.336	65.940	-7.64914
842.03	300.00	3.335	65.924	11.5919
843.08	300.00	3.334	65.893	32.4078
844.13	300.00	3.332	65.864	27.8018
845.18	300.00	3.331	65.840	36.7174
846.23	300.00	3.330	65.813	30.0906
847.28	300.00	3.328	65.787	44.6117
848.33	300.00	3.327	65.760	54.0414
849.38	300.00	3.325	65.732	43.0678
850.43	300.00	3.324	65.711	29.6566
851.48	300.00	3.323	65.683	13.9621
852.53	300.00	3.321	65.652	-10.6376
853.58	300.00	3.320	65.626	-25.9190
854.63	300.00	3.319	65.599	-7.57151
855.68	300.00	3.317	65.576	26.4692
856.73	300.00	3.316	65.550	38.9751
857.78	300.00	3.315	65.535	49.5385
858.83	300.00	3.313	65.481	56.1441
859.88	300.00	3.312	65.472	42.4468
860.93	300.00	3.311	65.443	17.8993
861.98	300.00	3.309	65.417	-1.46548
863.03	300.00	3.308	65.391	-5.44087
864.08	300.00	3.307	65.365	-13.7466
865.13	300.00	3.305	65.329	-34.8653
866.18	300.00	3.304	65.307	-40.0581
867.23	300.00	3.303	65.284	-38.2008
868.28	300.00	3.301	65.257	-33.7900
869.33	300.00	3.300	65.233	-31.7063
870.38	300.00	3.299	65.206	-21.6940
871.43	300.00	3.297	65.180	-26.2306
872.48	300.00	3.296	65.154	-15.2381
873.53	300.00	3.295	65.126	-19.9690
874.58	300.00	3.293	65.091	-22.0590
875.63	300.00	3.292	65.081	-17.5373
876.68	300.00	3.291	65.048	-21.4752
877.73	300.00	3.290	65.023	-12.2613
878.78	300.00	3.288	65.001	-14.0441
879.83	300.00	3.287	64.974	-30.0764
880.88	300.00	3.286	64.945	-27.3029
881.93	300.00	3.285	64.929	-19.6502
882.98	300.00	3.282	64.879	-18.2968
884.03	300.00	3.282	64.873	-10.1760
885.08	300.00	3.280	64.835	7.86940
886.13	300.00	3.279	64.817	37.0182
887.18	300.00	3.277	64.784	62.5405
888.23	300.00	3.276	64.760	65.5314
889.28	300.00	3.275	64.738	63.8897
890.33	300.00	3.273	64.706	59.7236
891.38	300.00	3.273	64.687	49.1720
892.43	300.00	3.271	64.657	49.9597
893.48	300.00	3.270	64.634	51.3523
894.53	300.00	3.268	64.603	37.8413
895.58	300.00	3.267	64.580	22.3501
896.63	300.00	3.266	64.553	-8.62712
897.68	300.00	3.265	64.530	-33.1795
898.73	300.00	3.264	64.513	-47.9966
899.78	300.00	3.262	64.472	-48.6060
900.83	300.00	3.261	64.453	-47.4133
901.88	300.00	3.259	64.428	-48.5583
902.93	300.00	3.258	64.402	-40.9808
903.98	300.00	3.257	64.377	-25.4736
905.03	300.00	3.255	64.350	4.07110
906.08	300.00	3.254	64.318	-4.64603
907.13	300.00	3.253	64.292	-20.2981
908.18	300.00	3.251	64.271	-33.2210
909.23	300.00	3.250	64.242	-49.1401
910.28	300.00	3.249	64.224	-80.7462
911.33	300.00	3.248	64.198	-86.8214
912.38	300.00	3.246	64.168	-53.9588
913.43	300.00	3.245	64.144	-52.5394
914.48	300.00	3.243	64.111	-36.5816
915.53	300.00	3.242	64.092	23.6138
916.58	300.00	3.241	64.067	68.7965
917.63	300.00	3.240	64.038	88.6182
918.68	300.00	3.239	64.016	80.8550
919.73	300.00	3.237	63.990	72.2174
920.78	300.00	3.236	63.966	38.2917
921.83	300.00	3.235	63.937	15.7547
922.88	300.00	3.233	63.908	12.6290
923.93	300.00	3.232	63.879	8.15557
924.98	300.00	3.231	63.863	8.98048
926.03	300.00	3.230	63.838	23.8023
927.08	300.00	3.228	63.811	32.2855
928.13	300.00	3.227	63.791	37.1114
929.18	300.00	3.226	63.759	22.7600
930.23	300.00	3.225	63.740	27.2749
931.28	300.00	3.223	63.703	14.5163
932.33	300.00	3.222	63.687	0.663410
933.38	300.00	3.220	63.652	-15.0901
934.43	300.00	3.219	63.629	-17.3128
935.48	300.00	3.218	63.601	-16.7748
936.53	300.00	3.216	63.580	-23.7492
937.58	300.00	3.215	63.554	-32.2745
938.63	300.00	3.214	63.533	-36.4688
939.68	300.00	3.213	63.505	-18.4590
940.73	300.00	3.211	63.480	-7.89804
941.78	300.00	3.210	63.453	-16.5905
942.83	300.00	3.209	63.428	-24.4459
943.88	300.00	3.208	63.403	-43.4576
944.93	300.00	3.206	63.377	-50.5882
945.98	300.00	3.205	63.355	-30.7679
947.03	300.00	3.204	63.328	-5.57882
948.08	300.00	3.203	63.303	15.5862
949.13	300.00	3.201	63.274	29.4555
950.18	300.00	3.200	63.251	31.1841
951.23	300.00	3.199	63.225	12.6034
952.28	300.00	3.197	63.203	1.87836
953.33	300.00	3.196	63.175	11.4589
954.38	300.00	3.195	63.150	11.2213
955.43	300.00	3.193	63.123	11.7956
956.48	300.00	3.192	63.098	18.1564
957.53	300.00	3.191	63.078	40.9112
958.58	300.00	3.189	63.039	32.1198
959.63	300.00	3.188	63.025	19.2941
960.68	300.00	3.187	63.000	18.5431
961.73	300.00	3.186	62.981	8.74399
962.78	300.00	3.184	62.944	17.8682
963.83	300.00	3.184	62.929	30.2889
964.88	300.00	3.182	62.899	29.1616
965.93	300.00	3.181	62.873	19.9097
966.98	300.00	3.179	62.848	5.74224
968.03	300.00	3.178	62.826	5.17705
969.08	300.00	3.177	62.798	18.3083
970.13	300.00	3.176	62.773	33.2373
971.18	300.00	3.175	62.751	29.2621
972.23	300.00	3.174	62.734	5.62726
973.28	300.00	3.172	62.698	-20.2271
974.33	300.00	3.171	62.674	-44.5781
975.38	300.00	3.170	62.652	-54.5721
976.43	300.00	3.168	62.630	-33.5466
977.48	300.00	3.167	62.595	-17.2776
978.53	300.00	3.165	62.571	0.208819
979.58	300.00	3.165	62.555	11.2783
980.63	300.00	3.163	62.527	10.3144
981.68	300.00	3.162	62.502	-3.10947
982.73	300.00	3.161	62.481	-0.940240
983.78	300.00	3.159	62.450	5.14241
984.83	300.00	3.158	62.428	25.9277
985.88	300.00	3.157	62.404	32.5506
986.93	300.00	3.155	62.373	36.8939
987.98	300.00	3.155	62.356	37.9370
989.03	300.00	3.153	62.326	26.5952
990.08	300.00	3.152	62.302	19.7087
991.13	300.00	3.151	62.277	3.65294
992.18	300.00	3.149	62.252	-12.0140
993.23	300.00	3.148	62.223	17.2266
994.28	300.00	3.147	62.201	52.5220
995.33	300.00	3.146	62.177	77.5441
996.38	300.00	3.144	62.146	58.2936
997.43	300.00	3.143	62.125	35.9262
998.48	300.00	3.142	62.103	32.7423
999.53	300.00	3.141	62.081	36.7914
1000.58	300.00	3.140	62.062	47.5861
1001.63	300.00	3.138	62.023	29.9744
1002.68	300.00	3.137	62.009	-3.37076
1003.73	300.00	3.136	61.982	-43.0949
1004.78	300.00	3.135	61.961	-53.4436
1005.83	300.00	3.133	61.936	-59.7595
1006.88	300.00	3.132	61.913	-36.9807
1007.93	300.00	3.131	61.883	-23.1950
1008.98	300.00	3.129	61.859	-3.90221
1010.03	300.00	3.128	61.836	-33.3965
1011.08	300.00	3.127	61.807	-60.2206
1012.13	300.00	3.125	61.769	-64.8657
1013.18	300.00	3.124	61.760	-52.0095
1014.23	300.00	3.123	61.734	-50.2518
1015.28	300.00	3.122	61.711	-19.4635
1016.33	300.00	3.121	61.688	-13.6123
1017.38	300.00	3.120	61.663	-6.00498
1018.43	300.00	3.118	61.638	-9.13689
1019.48	300.00	3.117	61.614	-20.8709
1020.53	300.00	3.116	61.592	-21.9382
1021.58	300.00	3.115	61.571	-32.1568
1022.63	300.00	3.113	61.543	-26.5963
1023.68	300.00	3.112	61.516	-20.2641
1024.73	300.00	3.111	61.496	-7.27739
1025.78	300.00	3.110	61.470	16.9696
1026.82	300.00	3.108	61.441	16.8655
1027.88	300.00	3.108	61.426	-5.46620
1028.93	300.00	3.106	61.398	-24.3822
1029.98	300.00	3.105	61.375	-34.9105
1031.03	300.00	3.103	61.346	-21.8205
1032.07	300.00	3.102	61.322	3.00640
1033.13	300.00	3.101	61.297	9.37570
1034.18	300.00	3.100	61.272	8.43943
1035.23	300.00	3.099	61.247	5.63116
1036.28	300.00	3.097	61.217	-5.17505
1037.32	300.00	3.096	61.199	-14.9583
1038.38	300.00	3.095	61.176	-22.5754
1039.43	300.00	3.094	61.152	-30.2921
1040.48	300.00	3.093	61.129	-53.6849
1041.53	300.00	3.091	61.104	-58.5768
1042.57	300.00	3.090	61.081	-39.5914
1043.63	300.00	3.089	61.056	-3.90008
1044.68	300.00	3.088	61.036	32.5071
1045.73	300.00	3.087	61.018	53.8412
1046.78	300.00	3.085	60.983	59.8374
1047.82	300.00	3.084	60.959	58.0034
1048.88	300.00	3.083	60.937	38.9493
1049.93	300.00	3.081	60.902	18.2373
1050.98	300.00	3.080	60.890	3.54097
1052.03	300.00	3.078	60.851	-5.58155
1053.07	300.00	3.078	60.832	-3.39974
1054.13	300.00	3.077	60.817	-4.10940
1055.18	300.00	3.075	60.790	-2.28828
1056.23	300.00	3.074	60.768	13.4876
1057.28	300.00	3.073	60.741	24.7278
1058.32	300.00	3.072	60.716	18.3279
1059.38	300.00	3.070	60.693	6.35132
1060.43	300.00	3.070	60.675	-11.9978
1061.48	300.00	3.068	60.647	-21.7788
1062.53	300.00	3.067	60.624	-19.3026
1063.57	300.00	3.066	60.598	-14.0634
1064.63	300.00	3.064	60.574	-0.745109
1065.68	300.00	3.063	60.550	-12.5557
1066.73	300.00	3.062	60.527	-32.0947
1067.78	300.00	3.061	60.504	-46.8748
1068.82	300.00	3.060	60.481	-63.2324
1069.88	300.00	3.058	60.447	-74.3904
1070.93	300.00	3.057	60.430	-80.3760
1071.98	300.00	3.056	60.409	-66.4805
1073.03	300.00	3.055	60.384	-46.4453
1074.07	300.00	3.053	60.356	-31.3399
1075.13	300.00	3.052	60.334	0.426051
1076.18	300.00	3.051	60.314	19.4332
1077.23	300.00	3.050	60.290	39.3963
1078.28	300.00	3.049	60.260	52.7928
1079.32	300.00	3.048	60.243	54.8500
1080.38	300.00	3.046	60.217	41.4222
1081.43	300.00	3.045	60.195	28.6679
1082.48	300.00	3.044	60.173	14.7093
1083.53	300.00	3.043	60.154	-0.712186
1084.57	300.00	3.042	60.124	7.20383
1085.63	300.00	3.040	60.099	9.78335
1086.68	300.00	3.039	60.076	32.4361
1087.73	300.00	3.038	60.051	57.7454
1088.78	300.00	3.037	60.029	63.8081
1089.82	300.00	3.036	60.006	66.0759
1090.88	300.00	3.035	59.984	59.4002
1091.93	300.00	3.033	59.958	51.6643
1092.98	300.00	3.032	59.934	53.4636
1094.03	300.00	3.031	59.917	63.1409
1095.08	300.00	3.030	59.892	79.8925
1096.13	300.00	3.029	59.867	68.3519
1097.18	300.00	3.027	59.842	42.5173
1098.23	300.00	3.026	59.817	-0.345553
1099.28	300.00	3.025	59.791	-41.6264
1100.33	300.00	3.024	59.775	-56.1961
1101.38	300.00	3.023	59.755	-69.1806
1102.43	300.00	3.021	59.720	-62.1628
1103.48	300.00	3.021	59.707	-50.0666
1104.53	300.00	3.019	59.671	-42.6776
1105.58	300.00	3.018	59.651	-29.8263
1106.63	300.00	3.017	59.629	-28.3667
1107.68	300.00	3.015	59.599	-11.8076
1108.73	300.00	3.014	59.580	3.73587
1109.78	300.00	3.013	59.562	13.2719
1110.83	300.00	3.012	59.537	0.792404
1111.88	300.00	3.011	59.514	-8.51351
1112.93	300.00	3.010	59.493	-18.4313
1113.98	300.00	3.009	59.469	-13.6839
1115.03	300.00	3.007	59.443	5.54240
1116.08	300.00	3.006	59.420	14.5978
1117.13	300.00	3.005	59.399	26.1970
1118.18	300.00	3.004	59.375	22.5561
1119.23	300.00	3.003	59.350	7.18167
1120.28	300.00	3.002	59.331	-1.29874
1121.33	300.00	3.000	59.306	-13.0818
1122.38	300.00	2.999	59.285	-11.5564
1123.43	300.00	2.998	59.257	1.16826
1124.48	300.00	2.996	59.228	18.3081
1125.53	300.00	2.996	59.220	32.1011
1126.58	300.00	2.994	59.191	39.8337
1127.63	300.00	2.994	59.172	39.2453
1128.68	300.00	2.992	59.140	27.5509
1129.73	300.00	2.991	59.123	7.51063
1130.78	300.00	2.990	59.099	-16.4246
1131.83	300.00	2.988	59.073	-33.0152
1132.88	300.00	2.988	59.055	-35.6940
1133.93	300.00	2.986	59.031	-33.3852
1134.98	300.00	2.985	59.008	-26.6431
1136.03	300.00	2.984	58.987	-22.5178
1137.08	300.00	2.983	58.962	-25.9344
1138.13	300.00	2.982	58.938	-23.3594
1139.18	300.00	2.981	58.916	-28.0326
1140.23	300.00	2.979	58.891	-31.2525
1141.28	300.00	2.978	58.871	-44.3130
1142.33	300.00	2.977	58.847	-54.3309
1143.38	300.00	2.976	58.821	-47.4262
1144.43	300.00	2.975	58.802	-21.3836
1145.48	300.00	2.974	58.778	18.9172
1146.53	300.00	2.973	58.767	37.6010
1147.58	300.00	2.971	58.736	55.0323
1148.63	300.00	2.971	58.717	50.9664
1149.68	300.00	2.969	58.689	30.6367
1150.73	300.00	2.968	58.669	15.2643
1151.78	300.00	2.966	58.638	20.0150
1152.83	300.00	2.965	58.615	27.1967
1153.88	300.00	2.964	58.597	21.2802
1154.93	300.00	2.963	58.575	28.0078
1155.98	300.00	2.962	58.553	60.2827
1157.03	300.00	2.961	58.533	76.3031
1158.08	300.00	2.960	58.505	97.0707
1159.13	300.00	2.959	58.483	103.749
1160.18	300.00	2.957	58.459	87.2758
1161.23	300.00	2.956	58.439	73.2730
1162.28	300.00	2.955	58.416	58.1021
1163.33	300.00	2.954	58.390	29.4614
1164.38	300.00	2.953	58.370	38.5046
1165.43	300.00	2.952	58.346	60.3736
1166.48	300.00	2.951	58.326	39.9399
1167.53	300.00	2.950	58.307	21.8762
1168.58	300.00	2.948	58.278	-6.63565
1169.63	300.00	2.947	58.257	-48.0087
1170.68	300.00	2.946	58.235	-60.3669
1171.73	300.00	2.945	58.214	-62.9804
1172.78	300.00	2.944	58.193	-59.4325
1173.83	300.00	2.943	58.175	-47.7329
1174.88	300.00	2.942	58.145	-30.2739
1175.93	300.00	2.941	58.126	-14.5270
1176.98	300.00	2.940	58.111	-22.8891
1178.03	300.00	2.938	58.080	-14.7565
1179.08	300.00	2.937	58.055	-11.2812
1180.13	300.00	2.936	58.034	-11.9354
1181.18	300.00	2.935	58.011	-19.5593
1182.23	300.00	2.934	57.993	-13.2634
1183.28	300.00	2.932	57.966	-21.3181
1184.33	300.00	2.931	57.944	-37.4152
1185.38	300.00	2.930	57.922	-32.1132
1186.43	300.00	2.929	57.900	-18.8736
1187.48	300.00	2.928	57.878	4.38041
1188.53	300.00	2.927	57.855	10.9649
1189.58	300.00	2.926	57.829	19.8207
1190.63	300.00	2.925	57.815	15.2623
1191.68	300.00	2.924	57.791	-3.01388
1192.73	300.00	2.922	57.768	-32.1368
1193.78	300.00	2.921	57.743	-53.8111
1194.83	300.00	2.920	57.719	-26.4791
1195.88	300.00	2.919	57.695	-13.0296
1196.93	300.00	2.918	57.677	-25.8410
1197.98	300.00	2.916	57.648	-45.1799
1199.03	300.00	2.915	57.625	-55.6629
1200.08	300.00	2.915	57.617	-58.4986
1201.13	300.00	2.913	57.577	-41.4335
1202.18	300.00	2.912	57.565	-19.7703
1203.23	300.00	2.911	57.539	-8.16600
1204.28	300.00	2.910	57.521	-10.5196
1205.33	300.00	2.909	57.495	-16.7358
1206.38	300.00	2.908	57.478	-7.84078
1207.43	300.00	2.906	57.451	12.3950
1208.48	300.00	2.905	57.432	30.0303
1209.53	300.00	2.904	57.407	48.5428
1210.58	300.00	2.903	57.385	55.5986
1211.63	300.00	2.902	57.363	52.5169
1212.68	300.00	2.901	57.342	45.7104
1213.73	300.00	2.900	57.322	42.4994
1214.78	300.00	2.899	57.295	40.4712
1215.83	300.00	2.898	57.277	33.4281
1216.88	300.00	2.896	57.254	38.8316
1217.93	300.00	2.895	57.233	41.5283
1218.98	300.00	2.894	57.210	41.1863
1220.03	300.00	2.893	57.189	43.5360
1221.08	300.00	2.892	57.170	37.9361
1222.13	300.00	2.891	57.142	24.1067
1223.18	300.00	2.890	57.118	-4.30855
1224.23	300.00	2.889	57.097	-28.5238
1225.28	300.00	2.888	57.083	-28.9403
1226.33	300.00	2.887	57.058	-22.2545
1227.38	300.00	2.885	57.033	-49.8695
1228.43	300.00	2.884	57.015	-58.5274
1229.48	300.00	2.883	56.994	-62.0446
1230.53	300.00	2.882	56.977	-57.3846
1231.58	300.00	2.881	56.943	-36.0892
1232.63	300.00	2.880	56.924	-19.6279
1233.68	300.00	2.879	56.903	-19.5023
1234.73	300.00	2.878	56.880	-52.8337
1235.78	300.00	2.877	56.859	-104.544
1236.83	300.00	2.875	56.837	-101.677
1237.88	300.00	2.874	56.818	-80.0771
1238.93	300.00	2.873	56.794	-25.5418
1239.98	300.00	2.872	56.773	19.3773
1241.03	300.00	2.871	56.746	44.3192
1242.08	300.00	2.870	56.727	67.5501
1243.13	300.00	2.869	56.707	74.8375
1244.18	300.00	2.868	56.684	65.5575
1245.23	300.00	2.867	56.666	47.6470
1246.28	300.00	2.866	56.647	21.6404
1247.33	300.00	2.865	56.631	-3.08008
1248.38	300.00	2.863	56.590	-19.5573
1249.43	300.00	2.862	56.574	-29.2067
1250.48	300.00	2.861	56.547	-0.342978
1251.53	300.00	2.860	56.536	-0.0565341
1252.58	300.00	2.859	56.514	-0.0267590
1253.63	300.00	2.858	56.489	-0.0185122
1254.68	300.00	2.857	56.481	-0.0155769
1255.73	300.00	2.856	56.454	-0.0151475
1256.78	300.00	2.855	56.428	-0.0166815
1257.83	300.00	2.853	56.404	-0.0202658
1258.88	300.00	2.852	56.382	-0.0265564
1259.93	300.00	2.851	56.362	-0.0365442
1260.98	300.00	2.850	56.344	-0.0519558
1262.03	300.00	2.849	56.321	-0.0743913
1263.08	300.00	2.848	56.300	-0.104659
1264.13	300.00	2.847	56.275	-0.141785
1265.18	300.40	2.847	56.271	-0.181284
1266.23	305.45	2.846	56.256	-0.217273
1267.28	314.25	2.844	56.220	-0.246001
1268.33	323.82	2.841	56.157	-0.266576
1269.38	333.62	2.835	56.032	-0.279886
1270.43	343.73	2.824	55.827	-0.287554
1271.48	354.15	2.805	55.436	-0.291156
1272.53	364.78	2.770	54.759	-0.291824
1273.58	375.49	2.709	53.539	-0.290367
1274.63	386.20	2.602	51.440	-0.287348
1275.68	396.86	2.419	47.822	-0.283178
1276.73	407.45	2.131	42.122	-0.278144
1277.78	418.01	1.723	34.053	-0.272445
1278.83	428.54	1.219	24.097	-0.266206
1279.88	439.07	0.740	14.629	-0.259504
1280.93	449.59	0.398	7.875	-0.252143
1281.98	460.11	0.210	4.143	-0.243182
1283.03	470.63	0.131	2.592	-0.231974
1284.08	481.17	0.112	2.222	-0.218402
1285.13	491.72	0.111	2.198	-0.202432
1286.18	502.25	0.111	2.185	-0.184071
1287.23	512.80	0.110	2.171	-0.163417
1288.28	523.32	0.109	2.156	-0.140702
1289.33	533.84	0.109	2.147	-0.116390
1290.38	544.37	0.108	2.134	-0.0912306
1291.43	554.90	0.107	2.124	-0.0665015
1292.48	565.42	0.107	2.118	-0.0439145
1293.53	575.94	0.107	2.114	-0.0254532
1294.58	586.47	0.107	2.113	-0.0126365
1295.63	596.99	0.106	2.097	-5.34281e-3
1296.68	607.51	0.106	2.090	-2.01463e-3
1297.73	618.03	0.106	2.098	-8.69667e-4
1298.78	628.55	0.106	2.088	-6.20537e-4
1299.83	639.07	0.105	2.073	-5.77094e-4
1300.88	649.59	0.105	2.067	-5.54827e-4
1301.93	660.11	0.104	2.062	-5.34274e-4
1302.98	670.63	0.104	2.055	-5.15564e-4
1304.03	681.15	0.103	2.039	-5.00259e-4
1305.08	691.66	0.104	2.052	-4.84894e-4
1306.13	702.18	0.103	2.039	-4.73752e-4
1307.18	712.70	0.103	2.039	-4.65618e-4
1308.23	723.21	0.103	2.029	-4.60604e-4
1309.28	733.73	0.103	2.031	-4.49688e-4
1310.33	744.24	0.102	2.020	-4.35837e-4
1311.38	754.75	0.103	2.027	-4.18792e-4
1312.43	765.27	0.102	2.025	-4.03671e-4
1313.48	775.78	0.102	2.024	-3.76428e-4
1314.53	786.29	0.102	2.018	-3.43077e-4