File: data/TGA/005d-B/005dB1-rGPC TG.txt
Filename	005dB1-rGPC
Instrument name
Operator	Gwenael
rundate	2025-01-13
Sample name	005dB1-rGPC
[step]
Step 1
Time	Temperature	Weight	Weight	Deriv. Weight
min	°C	mg	%	% / °C
0.01	24.75	3.958	99.981	2.03500e-3
0.98	25.43	3.978	100.489	1.42678e-3
2.03	27.41	3.982	100.572	7.57664e-4
3.08	31.23	3.983	100.595	3.63505e-5
4.13	36.25	3.983	100.615	-6.50276e-4
5.18	41.68	3.984	100.628	-1.25831e-3
6.23	47.01	3.984	100.629	-1.78718e-3
7.28	52.09	3.984	100.635	-2.24121e-3
8.33	57.00	3.984	100.638	-2.63634e-3
9.38	61.88	3.984	100.638	-2.98346e-3
10.43	66.84	3.985	100.645	-3.28716e-3
11.48	71.94	3.984	100.640	-3.52900e-3
12.53	77.16	3.984	100.628	-3.71658e-3
13.58	82.46	3.983	100.607	-3.86456e-3
14.63	87.80	3.982	100.585	-3.99354e-3
15.68	93.16	3.981	100.544	-4.83306e-3
16.73	98.14	3.978	100.488	-5.48818e-3
17.78	101.39	3.975	100.414	-6.01853e-3
18.83	102.82	3.973	100.362	-6.42994e-3
19.88	103.03	3.971	100.313	-6.69424e-3
20.93	102.63	3.970	100.275	-6.77820e-3
21.98	101.97	3.969	100.243	-6.70243e-3
23.03	101.27	3.968	100.229	-6.48255e-3
24.08	100.63	3.967	100.213	-6.17286e-3
25.13	100.12	3.967	100.200	-5.82048e-3
26.18	100.47	3.967	100.214	-5.46239e-3
27.23	103.13	3.968	100.237	-5.09647e-3
28.28	107.55	3.969	100.241	-4.86965e-3
29.33	112.59	3.968	100.232	-4.78885e-3
30.38	117.63	3.968	100.217	-4.84066e-3
31.43	122.60	3.967	100.201	-4.99778e-3
32.47	127.60	3.966	100.187	-5.25995e-3
33.53	132.68	3.966	100.184	-5.62118e-3
34.58	137.88	3.966	100.174	-6.03383e-3
35.63	143.14	3.966	100.167	-6.48415e-3
36.68	148.44	3.965	100.154	-6.95354e-3
37.73	153.77	3.965	100.141	-7.45548e-3
38.78	159.08	3.963	100.105	-7.98718e-3
39.83	164.38	3.961	100.061	-8.55728e-3
40.88	169.66	3.959	99.996	-9.16624e-3
41.93	174.92	3.958	99.973	-9.78051e-3
42.98	180.18	3.955	99.903	-0.0103704
44.03	185.44	3.952	99.828	-0.0109314
45.08	190.70	3.949	99.736	-0.0114805
46.13	195.96	3.946	99.667	-0.0120190
47.18	201.20	3.942	99.578	-0.0125568
48.23	206.44	3.939	99.489	-0.0130849
49.28	211.69	3.935	99.405	-0.0136001
50.33	216.94	3.932	99.322	-0.0141096
51.38	222.20	3.930	99.256	-0.0146466
52.43	227.46	3.926	99.176	-0.0152438
53.48	232.72	3.924	99.105	-0.0159288
54.53	237.98	3.921	99.033	-0.0167178
55.58	243.24	3.918	98.960	-0.0176020
56.63	248.50	3.915	98.896	-0.0185451
57.68	253.76	3.913	98.826	-0.0195562
58.73	259.02	3.909	98.747	-0.0206581
59.78	264.28	3.906	98.666	-0.0218678
60.83	269.54	3.903	98.580	-0.0231902
61.88	274.79	3.899	98.478	-0.0246436
62.93	280.05	3.895	98.377	-0.0262568
63.98	285.31	3.890	98.264	-0.0280639
65.03	290.57	3.885	98.140	-0.0300925
66.07	295.76	3.879	97.972	-0.0323720
67.13	299.29	3.872	97.808	-0.0349368
68.18	300.96	3.865	97.637	-0.0378828
69.23	301.75	3.859	97.466	-0.0412611
70.28	301.89	3.852	97.297	-0.0451649
71.33	301.56	3.847	97.165	-0.0497449
72.38	301.01	3.842	97.045	-0.0551534
73.43	300.46	3.837	96.929	-0.0616639
74.48	300.03	3.833	96.821	-0.0696513
75.53	299.76	3.829	96.725	-0.0796689
76.58	299.66	3.826	96.637	-0.0926164
77.63	299.68	3.822	96.541	-0.109416
78.68	299.77	3.819	96.455	-0.129879
79.73	299.88	3.815	96.364	-0.140588
80.78	299.98	3.812	96.279	3.63733e-3
81.83	300.04	3.808	96.196	0.606604
82.88	300.07	3.805	96.113	0.789287
83.93	300.07	3.802	96.029	0.746144
84.98	300.05	3.798	95.940	0.725015
86.03	300.03	3.795	95.865	0.718123
87.08	300.01	3.792	95.788	0.502284
88.13	300.00	3.789	95.709	-0.886508
89.18	299.99	3.786	95.628	-3.12584
90.23	299.99	3.783	95.548	-3.39495
91.28	299.99	3.780	95.478	-3.17814
92.33	299.99	3.777	95.411	-2.99089
93.38	300.00	3.774	95.325	-2.08264
94.43	300.00	3.771	95.254	2.99571
95.48	300.00	3.768	95.179	13.2076
96.53	300.00	3.765	95.102	15.6590
97.58	300.00	3.762	95.034	14.9325
98.63	300.00	3.759	94.957	14.8592
99.68	300.00	3.757	94.894	14.7022
100.73	300.00	3.754	94.824	5.89203
101.78	300.00	3.751	94.751	-31.8602
102.83	300.00	3.748	94.678	-65.5977
103.88	300.00	3.745	94.603	-61.7104
104.93	300.00	3.743	94.535	-53.9544
105.98	300.00	3.740	94.462	-43.1259
107.03	300.00	3.737	94.397	-7.04668
108.08	300.00	3.734	94.327	70.0434
109.13	300.00	3.732	94.262	102.644
110.18	300.00	3.729	94.183	95.5066
111.23	300.00	3.726	94.122	72.4591
112.28	300.00	3.723	94.050	41.0546
113.33	300.00	3.721	93.986	-4.19088
114.38	300.00	3.718	93.906	-47.7796
115.43	300.00	3.715	93.849	-69.5462
116.48	300.00	3.712	93.773	-99.8453
117.53	300.00	3.710	93.702	-122.745
118.58	300.00	3.707	93.636	-123.551
119.63	300.00	3.704	93.562	-90.4568
120.68	300.00	3.702	93.511	-37.3961
121.73	300.00	3.699	93.443	63.6386
122.78	300.00	3.696	93.370	102.186
123.83	300.00	3.694	93.308	69.1970
124.88	300.00	3.692	93.248	36.3842
125.93	300.00	3.689	93.177	-11.3043
126.98	300.00	3.686	93.113	-72.5152
128.02	300.00	3.684	93.044	-70.7622
129.08	300.00	3.681	92.980	-24.3168
130.13	300.00	3.678	92.913	65.8523
131.18	300.00	3.676	92.852	63.8619
132.23	300.00	3.673	92.785	111.652
133.27	300.00	3.671	92.734	76.4076
134.33	300.00	3.668	92.656	78.2680
135.38	300.00	3.666	92.592	46.5065
136.43	300.00	3.663	92.529	-3.91711
137.48	300.00	3.661	92.462	-36.2223
138.53	300.00	3.658	92.397	-68.6011
139.58	300.00	3.656	92.338	-58.4658
140.63	300.00	3.653	92.276	-59.8190
141.68	300.00	3.651	92.211	-70.0760
142.73	300.00	3.648	92.149	-87.6281
143.78	300.00	3.646	92.089	-128.136
144.83	300.00	3.643	92.024	-136.318
145.88	300.00	3.641	91.962	-160.966
146.93	300.00	3.638	91.900	-191.384
147.98	300.00	3.636	91.838	-196.485
149.03	300.00	3.634	91.778	-201.889
150.08	300.00	3.631	91.716	-206.443
151.13	300.00	3.629	91.659	-208.106
152.18	300.00	3.626	91.596	-199.438
153.23	300.00	3.624	91.533	-216.718
154.28	300.00	3.621	91.473	-209.625
155.33	300.00	3.619	91.405	-159.970
156.38	300.00	3.617	91.355	-111.074
157.43	300.00	3.614	91.297	-124.983
158.48	300.00	3.612	91.232	-123.064
159.53	300.00	3.609	91.162	-124.635
160.58	300.00	3.607	91.113	-108.752
161.63	300.00	3.605	91.058	-139.285
162.68	300.00	3.602	90.994	-144.137
163.73	300.00	3.600	90.943	-133.401
164.78	300.00	3.598	90.876	-122.865
165.83	300.00	3.596	90.827	-86.2696
166.88	300.00	3.593	90.762	-12.2787
167.93	300.00	3.591	90.710	8.53507
168.98	300.00	3.589	90.649	50.9673
170.03	300.00	3.586	90.590	74.2420
171.08	300.00	3.584	90.527	71.7057
172.13	300.00	3.582	90.479	-5.47450
173.18	300.00	3.579	90.410	-57.1178
174.23	300.00	3.577	90.362	-66.2862
175.28	300.00	3.575	90.303	-39.0367
176.33	300.00	3.573	90.244	-32.0581
177.38	300.00	3.571	90.187	3.57225
178.43	300.00	3.568	90.132	28.0875
179.48	300.00	3.566	90.078	8.67764
180.53	300.00	3.564	90.020	17.7895
181.58	300.00	3.562	89.966	-9.58398
182.63	300.00	3.559	89.904	-37.6427
183.68	300.00	3.557	89.852	-44.8591
184.73	300.00	3.555	89.800	-42.5273
185.78	300.00	3.553	89.744	-11.0261
186.83	300.00	3.551	89.691	11.8649
187.88	300.00	3.549	89.642	-3.23755
188.93	300.00	3.547	89.582	-18.6494
189.98	300.00	3.544	89.525	-44.4365
191.03	300.00	3.542	89.471	-47.7748
192.08	300.00	3.540	89.426	-98.6933
193.13	300.00	3.538	89.363	-119.307
194.18	300.00	3.536	89.313	-109.948
195.23	300.00	3.534	89.258	-88.3591
196.28	300.00	3.531	89.201	-27.8853
197.33	300.00	3.529	89.148	26.3202
198.38	300.00	3.527	89.093	51.5065
199.43	300.00	3.525	89.043	94.9205
200.48	300.00	3.523	88.989	103.128
201.53	300.00	3.521	88.934	119.599
202.58	300.00	3.519	88.882	113.725
203.63	300.00	3.517	88.829	95.5659
204.68	300.00	3.515	88.783	81.3208
205.73	300.00	3.513	88.727	38.0562
206.78	300.00	3.511	88.674	8.26549
207.83	300.00	3.509	88.626	55.8745
208.88	300.00	3.506	88.567	64.6158
209.93	300.00	3.504	88.519	96.4840
210.98	300.00	3.502	88.464	99.4648
212.03	300.00	3.500	88.417	74.0935
213.08	300.00	3.498	88.363	36.6766
214.13	300.00	3.496	88.310	-41.1086
215.18	300.00	3.494	88.264	-70.3651
216.23	300.00	3.493	88.220	-78.5913
217.28	300.00	3.490	88.160	-90.6467
218.33	300.00	3.488	88.110	-119.346
219.38	300.00	3.486	88.059	-99.5061
220.43	300.00	3.484	88.007	-58.8313
221.48	300.00	3.483	87.971	-38.4023
222.53	300.00	3.480	87.908	-62.1240
223.58	300.00	3.478	87.856	-76.4495
224.63	300.00	3.477	87.813	-82.3326
225.68	300.00	3.474	87.761	-60.9029
226.73	300.00	3.472	87.711	-9.42058
227.78	300.00	3.471	87.664	18.7707
228.83	300.00	3.469	87.611	26.9776
229.88	300.00	3.467	87.563	27.5586
230.93	300.00	3.465	87.516	45.0069
231.98	300.00	3.463	87.464	71.3616
233.03	300.00	3.461	87.412	104.624
234.08	300.00	3.459	87.367	86.1990
235.13	300.00	3.457	87.315	88.3690
236.18	300.00	3.455	87.263	36.8581
237.23	300.00	3.453	87.224	2.94341
238.28	300.00	3.451	87.169	-11.0568
239.33	300.00	3.449	87.126	-21.9839
240.38	300.00	3.447	87.077	-9.71497
241.43	300.00	3.445	87.019	20.1135
242.48	300.00	3.444	86.981	40.1818
243.53	300.00	3.442	86.931	36.0639
244.58	300.00	3.440	86.882	-40.5264
245.63	300.00	3.438	86.835	-75.8831
246.68	300.00	3.436	86.789	-125.920
247.73	300.00	3.434	86.741	-175.404
248.78	300.00	3.432	86.696	-198.535
249.83	300.00	3.431	86.653	-115.024
250.88	300.00	3.429	86.603	-63.8378
251.93	300.00	3.427	86.556	-53.5425
252.98	300.00	3.425	86.510	-75.2189
254.03	300.00	3.423	86.459	-88.3649
255.08	300.00	3.421	86.410	-97.9488
256.13	300.00	3.419	86.362	-103.341
257.17	300.00	3.418	86.326	-111.906
258.23	300.00	3.416	86.272	-91.5729
259.28	300.00	3.414	86.234	-56.6421
260.33	300.00	3.412	86.181	-40.4444
261.38	300.00	3.410	86.133	-20.3849
262.42	300.00	3.408	86.087	0.413278
263.48	300.00	3.407	86.052	8.05779
264.53	300.00	3.405	85.998	4.72206
265.58	300.00	3.403	85.956	1.65315
266.63	300.00	3.401	85.906	-33.2942
267.67	300.00	3.399	85.863	-39.1042
268.73	300.00	3.397	85.817	-33.5130
269.78	300.00	3.396	85.771	-53.9662
270.83	300.00	3.394	85.735	-33.9553
271.88	300.00	3.392	85.681	2.86829
272.92	300.00	3.390	85.637	16.2636
273.98	300.00	3.389	85.594	-2.01215
275.03	300.00	3.387	85.542	-14.2488
276.08	300.00	3.385	85.504	-13.2370
277.13	300.00	3.383	85.456	-21.2374
278.18	300.00	3.382	85.416	4.71953
279.23	300.00	3.380	85.363	41.3726
280.28	300.00	3.378	85.317	106.959
281.33	300.00	3.376	85.284	134.788
282.38	300.00	3.375	85.237	114.703
283.43	300.00	3.373	85.192	74.9804
284.48	300.00	3.371	85.150	35.4055
285.53	300.00	3.369	85.102	-9.14630
286.58	300.00	3.367	85.059	-29.8550
287.63	300.00	3.365	85.008	-46.5655
288.68	300.00	3.364	84.972	-32.0134
289.73	300.00	3.362	84.926	-16.7331
290.78	300.00	3.360	84.881	-6.10644
291.83	300.00	3.359	84.844	6.66053
292.88	300.00	3.357	84.805	27.4382
293.93	300.00	3.355	84.752	13.7367
294.98	300.00	3.354	84.718	12.0903
296.03	300.00	3.352	84.661	7.54731
297.08	300.00	3.350	84.624	-28.6439
298.13	300.00	3.349	84.583	-68.8441
299.18	300.00	3.347	84.540	-68.2188
300.23	300.00	3.345	84.499	-59.3450
301.28	300.00	3.344	84.458	-49.5213
302.33	300.00	3.342	84.413	-37.3554
303.38	300.00	3.340	84.364	-43.0739
304.43	300.00	3.338	84.324	-57.1877
305.48	300.00	3.337	84.284	-42.0184
306.53	300.00	3.335	84.241	-37.3813
307.58	300.00	3.333	84.195	-36.9835
308.63	300.00	3.332	84.156	3.33292
309.68	300.00	3.330	84.115	46.1255
310.73	300.00	3.328	84.069	90.3411
311.78	300.00	3.326	84.022	101.467
312.83	300.00	3.325	83.988	95.9044
313.88	300.00	3.323	83.936	76.5893
314.93	300.00	3.322	83.906	58.7050
315.98	300.00	3.320	83.863	50.2534
317.03	300.00	3.318	83.815	39.5875
318.08	300.00	3.317	83.774	22.0197
319.13	300.00	3.315	83.737	35.2458
320.18	300.00	3.314	83.700	0.491107
321.23	300.00	3.312	83.653	4.69088
322.28	300.00	3.310	83.616	39.1546
323.33	300.00	3.309	83.571	55.2870
324.38	300.00	3.307	83.525	45.5968
325.43	300.00	3.305	83.485	58.4108
326.48	300.00	3.304	83.445	84.7596
327.53	300.00	3.302	83.397	65.1480
328.58	300.00	3.300	83.360	-11.8300
329.63	300.00	3.299	83.321	-24.1124
330.68	300.00	3.297	83.275	-5.13633
331.73	300.00	3.295	83.239	33.3145
332.78	300.00	3.294	83.194	39.9858
333.83	300.00	3.292	83.150	29.9723
334.88	300.00	3.290	83.114	50.7765
335.93	300.00	3.289	83.075	98.5330
336.98	300.00	3.287	83.029	35.3954
338.03	300.00	3.286	82.992	-18.9641
339.08	300.00	3.284	82.951	-17.7895
340.13	300.00	3.282	82.907	-2.52674
341.18	300.00	3.281	82.868	5.43530
342.23	300.00	3.279	82.831	-1.74504
343.28	300.00	3.277	82.785	6.32378
344.33	300.00	3.276	82.736	18.1481
345.38	300.00	3.274	82.702	32.7275
346.43	300.00	3.273	82.660	26.4427
347.48	300.00	3.271	82.620	22.5206
348.53	300.00	3.269	82.578	14.9283
349.58	300.00	3.268	82.546	6.31800
350.63	300.00	3.266	82.501	-36.0695
351.68	300.00	3.265	82.458	-69.2690
352.73	300.00	3.263	82.423	-77.7587
353.78	300.00	3.261	82.378	-78.6004
354.83	300.00	3.260	82.341	-69.5339
355.88	300.00	3.258	82.300	-57.6786
356.93	300.00	3.257	82.261	-45.7067
357.98	300.00	3.255	82.211	-60.5695
359.03	300.00	3.253	82.176	-55.3533
360.08	300.00	3.251	82.129	-43.1214
361.13	300.00	3.250	82.104	-10.4565
362.18	300.00	3.249	82.060	22.7837
363.23	300.00	3.247	82.016	30.4748
364.28	300.00	3.245	81.974	16.7792
365.33	300.00	3.244	81.940	64.1227
366.38	300.00	3.242	81.895	93.9497
367.43	300.00	3.241	81.852	62.4439
368.48	300.00	3.239	81.812	52.2261
369.53	300.00	3.237	81.775	54.1871
370.58	300.00	3.236	81.734	79.6674
371.63	300.00	3.234	81.696	61.2854
372.68	300.00	3.233	81.650	76.6464
373.73	300.00	3.231	81.617	82.7569
374.78	300.00	3.230	81.579	134.054
375.83	300.00	3.228	81.533	148.103
376.88	300.00	3.227	81.500	143.059
377.93	300.00	3.225	81.459	140.036
378.98	300.00	3.223	81.413	153.662
380.03	300.00	3.222	81.376	108.397
381.08	300.00	3.220	81.331	39.2519
382.13	300.00	3.218	81.287	23.4702
383.18	300.00	3.217	81.266	0.438117
384.23	300.00	3.215	81.214	-6.41916
385.28	300.00	3.213	81.169	-11.4781
386.33	300.00	3.213	81.145	5.46777
387.38	300.00	3.211	81.104	3.26941
388.43	300.00	3.209	81.058	-31.9044
389.48	300.00	3.207	81.016	-52.0019
390.53	300.00	3.206	80.978	-48.3331
391.58	300.00	3.204	80.926	-23.7571
392.63	300.00	3.203	80.900	-7.85246
393.68	300.00	3.201	80.861	-29.8609
394.73	300.00	3.200	80.816	-37.3075
395.78	300.00	3.198	80.781	-7.07449
396.83	300.00	3.197	80.745	-25.0269
397.88	300.00	3.195	80.706	-41.5541
398.93	300.00	3.193	80.663	-22.8691
399.98	300.00	3.192	80.622	1.19059
401.03	300.00	3.190	80.587	10.6462
402.08	300.00	3.189	80.552	10.1233
403.13	300.00	3.187	80.500	-1.96685
404.18	300.00	3.186	80.469	-5.69744
405.23	300.00	3.184	80.425	8.73106
406.28	300.00	3.182	80.383	13.0972
407.33	300.00	3.181	80.345	-7.50133
408.38	300.00	3.179	80.308	6.94270
409.43	300.00	3.178	80.266	-1.24184
410.48	300.00	3.176	80.232	-59.3695
411.53	300.00	3.175	80.193	-68.6734
412.58	300.00	3.173	80.151	-43.6231
413.63	300.00	3.172	80.111	-32.9044
414.68	300.00	3.170	80.082	-37.4356
415.73	300.00	3.168	80.026	-53.8429
416.78	300.00	3.167	79.990	-57.7189
417.83	300.00	3.166	79.961	-67.6843
418.88	300.00	3.164	79.918	-80.6141
419.93	300.00	3.162	79.876	-62.3719
420.98	300.00	3.161	79.842	-39.5903
422.03	300.00	3.159	79.804	-7.68348
423.08	300.00	3.158	79.762	11.8945
424.13	300.00	3.156	79.723	12.2201
425.18	300.00	3.155	79.685	19.2805
426.23	300.00	3.153	79.649	4.76064
427.28	300.00	3.152	79.609	-30.8058
428.33	300.00	3.150	79.570	-32.1721
429.38	300.00	3.149	79.531	-6.11840
430.43	300.00	3.148	79.502	22.7599
431.48	300.00	3.146	79.462	43.8054
432.53	300.00	3.144	79.418	52.0601
433.58	300.00	3.143	79.378	37.1290
434.63	300.00	3.141	79.346	20.2623
435.68	300.00	3.140	79.302	6.27944
436.73	300.00	3.138	79.259	16.0594
437.78	300.00	3.137	79.227	12.1401
438.83	300.00	3.135	79.190	13.6381
439.88	300.00	3.134	79.155	8.73729
440.93	300.00	3.132	79.106	-2.11770
441.98	300.00	3.131	79.077	21.8430
443.03	300.00	3.129	79.038	24.8275
444.08	300.00	3.127	78.996	43.2449
445.13	300.00	3.126	78.955	36.0554
446.18	300.00	3.125	78.924	19.9990
447.23	300.00	3.123	78.884	-12.7694
448.28	300.00	3.122	78.846	-35.9885
449.33	300.00	3.119	78.793	-13.3677
450.38	300.00	3.118	78.763	18.0750
451.43	300.00	3.117	78.726	58.3295
452.48	300.00	3.115	78.691	55.9522
453.53	300.00	3.114	78.654	74.2616
454.58	300.00	3.112	78.617	82.6664
455.63	300.00	3.111	78.583	47.8810
456.68	300.00	3.110	78.544	-12.0263
457.73	300.00	3.108	78.505	-49.5561
458.78	300.00	3.106	78.466	-60.2646
459.83	300.00	3.105	78.427	-7.91450
460.88	300.00	3.103	78.387	-1.96902
461.93	300.00	3.102	78.354	12.7992
462.98	300.00	3.100	78.312	18.6518
464.03	300.00	3.099	78.274	-1.05022
465.08	300.00	3.097	78.235	-72.6632
466.13	300.00	3.096	78.195	-66.0718
467.18	300.00	3.094	78.153	-65.0816
468.23	300.00	3.093	78.123	-91.2601
469.28	300.00	3.091	78.081	-107.344
470.33	300.00	3.090	78.045	-115.821
471.38	300.00	3.088	78.006	-124.693
472.43	300.00	3.087	77.968	-121.564
473.48	300.00	3.085	77.929	-129.400
474.53	300.00	3.084	77.894	-127.209
475.58	300.00	3.082	77.852	-131.914
476.63	300.00	3.081	77.816	-137.807
477.68	300.00	3.079	77.782	-140.834
478.73	300.00	3.078	77.742	-139.678
479.78	300.00	3.077	77.712	-138.616
480.83	300.00	3.075	77.667	-130.707
481.88	300.00	3.074	77.636	-122.006
482.93	300.00	3.072	77.592	-121.948
483.98	300.00	3.071	77.559	-113.642
485.03	300.00	3.069	77.522	-93.3444
486.08	300.00	3.068	77.486	-95.7454
487.13	300.00	3.066	77.447	-94.7663
488.18	300.00	3.065	77.412	-85.7194
489.23	300.00	3.063	77.357	-64.9342
490.28	300.00	3.062	77.336	-31.6921
491.33	300.00	3.060	77.301	-16.6615
492.38	300.00	3.059	77.268	1.13959
493.43	300.00	3.058	77.232	28.2647
494.48	300.00	3.056	77.195	47.1916
495.53	300.00	3.055	77.162	40.4496
496.58	300.00	3.054	77.129	77.4714
497.63	300.00	3.052	77.092	77.3214
498.68	300.00	3.050	77.046	74.9261
499.73	300.00	3.049	77.018	63.7037
500.78	300.00	3.048	76.985	60.0534
501.83	300.00	3.046	76.951	73.0072
502.88	300.00	3.045	76.923	88.6900
503.93	300.00	3.044	76.887	86.6815
504.98	300.00	3.043	76.855	84.3915
506.03	300.00	3.041	76.811	91.3394
507.08	300.00	3.040	76.783	84.3740
508.13	300.00	3.039	76.749	51.6794
509.18	300.00	3.037	76.703	-6.89081
510.23	300.00	3.036	76.679	-44.9707
511.28	300.00	3.034	76.648	-20.1921
512.33	300.00	3.033	76.616	-9.92086
513.38	300.00	3.032	76.586	-23.7809
514.43	300.00	3.030	76.543	15.7036
515.47	300.00	3.029	76.511	51.2161
516.53	300.00	3.028	76.480	40.8869
517.58	300.00	3.027	76.450	21.7605
518.63	300.00	3.025	76.410	13.4839
519.68	300.00	3.024	76.380	38.9778
520.72	300.00	3.023	76.349	65.5979
521.78	300.00	3.021	76.313	63.0133
522.83	300.00	3.020	76.289	33.4208
523.88	300.00	3.019	76.265	41.0350
524.93	300.00	3.017	76.210	43.0737
525.97	300.00	3.016	76.184	45.9306
527.03	300.00	3.015	76.149	24.8941
528.08	300.00	3.013	76.106	32.2951
529.13	300.00	3.012	76.087	29.6447
530.18	300.00	3.011	76.048	16.4691
531.22	300.00	3.010	76.018	57.6665
532.28	300.00	3.008	75.987	60.4928
533.33	300.00	3.007	75.957	63.7723
534.38	300.00	3.006	75.921	55.2714
535.43	300.00	3.004	75.887	44.4306
536.47	300.00	3.003	75.862	39.7605
537.53	300.00	3.002	75.836	41.9297
538.58	300.00	3.001	75.798	36.6446
539.63	300.00	2.999	75.759	5.81244
540.68	300.00	2.998	75.722	-11.7680
541.72	300.00	2.997	75.689	-2.77307
542.78	300.00	2.995	75.662	5.96562
543.83	300.00	2.994	75.624	26.7295
544.88	300.00	2.993	75.591	50.4105
545.93	300.00	2.991	75.556	56.6181
546.98	300.00	2.990	75.529	47.6089
548.03	300.00	2.989	75.497	29.3795
549.08	300.00	2.987	75.459	0.400237
550.13	300.00	2.986	75.426	-20.5873
551.18	300.00	2.985	75.394	-41.3942
552.23	300.00	2.984	75.365	-65.5661
553.28	300.00	2.982	75.334	-91.5742
554.33	300.00	2.981	75.286	-93.3903
555.38	300.00	2.979	75.250	-88.8842
556.43	300.00	2.978	75.233	-85.2423
557.48	300.00	2.977	75.189	-65.6352
558.53	300.00	2.975	75.156	-46.5738
559.58	300.00	2.974	75.125	-46.3355
560.63	300.00	2.973	75.098	-18.6204
561.68	300.00	2.972	75.073	22.6868
562.73	300.00	2.970	75.017	39.1024
563.78	300.00	2.969	74.990	53.0955
564.83	300.00	2.968	74.958	61.0994
565.88	300.00	2.966	74.924	44.3965
566.93	300.00	2.965	74.898	29.2709
567.98	300.00	2.964	74.862	38.3033
569.03	300.00	2.962	74.826	55.6826
570.08	300.00	2.961	74.794	47.9586
571.13	300.00	2.960	74.764	48.4458
572.18	300.00	2.959	74.730	67.9040
573.23	300.00	2.957	74.699	82.1250
574.28	300.00	2.956	74.665	79.5418
575.33	300.00	2.955	74.629	74.4836
576.38	300.00	2.953	74.589	70.6928
577.43	300.00	2.952	74.559	70.7367
578.48	300.00	2.951	74.534	76.2511
579.53	300.00	2.949	74.501	61.6119
580.58	300.00	2.947	74.450	38.8534
581.63	300.00	2.947	74.439	-1.45453
582.68	300.00	2.945	74.397	-8.83077
583.73	300.00	2.944	74.363	-27.2663
584.78	300.00	2.943	74.332	-52.3762
585.83	300.00	2.941	74.295	-76.1475
586.88	300.00	2.940	74.266	-72.8298
587.93	300.00	2.939	74.231	-56.2067
588.98	300.00	2.938	74.199	-47.6232
590.03	300.00	2.936	74.162	-46.6296
591.08	300.00	2.935	74.130	-7.24144
592.13	300.00	2.934	74.101	31.2161
593.18	300.00	2.932	74.065	46.5012
594.23	300.00	2.931	74.033	74.9788
595.28	300.00	2.930	74.012	57.0911
596.33	300.00	2.928	73.963	35.6327
597.38	300.00	2.927	73.930	21.1864
598.43	300.00	2.926	73.896	-0.701036
599.48	300.00	2.924	73.868	-23.4944
600.53	300.00	2.923	73.838	-45.9107
601.58	300.00	2.922	73.798	-48.0919
602.63	300.00	2.921	73.782	-33.1965
603.68	300.00	2.919	73.721	-26.7736
604.73	300.00	2.918	73.707	-21.3397
605.78	300.00	2.917	73.672	-1.52988
606.83	300.00	2.915	73.626	9.65384
607.88	300.00	2.914	73.596	30.7965
608.93	300.00	2.912	73.564	49.0785
609.98	300.00	2.911	73.526	30.9840
611.03	300.00	2.910	73.507	3.67726
612.08	300.00	2.909	73.469	-9.91684
613.13	300.00	2.907	73.428	-3.23428
614.18	300.00	2.906	73.397	2.13118
615.23	300.00	2.904	73.361	-1.95122
616.28	300.00	2.903	73.331	3.98563
617.33	300.00	2.902	73.298	18.3164
618.38	300.00	2.901	73.266	33.4364
619.43	300.00	2.900	73.238	26.9673
620.48	300.00	2.898	73.194	10.8941
621.53	300.00	2.897	73.173	4.04967
622.58	300.00	2.895	73.130	9.00886
623.63	300.00	2.894	73.094	16.8093
624.68	300.00	2.893	73.075	45.1408
625.73	300.00	2.891	73.026	46.7525
626.78	300.00	2.890	73.000	62.7725
627.83	300.00	2.888	72.954	59.3387
628.88	300.00	2.887	72.925	42.5874
629.93	300.00	2.886	72.895	29.4209
630.98	300.00	2.885	72.867	18.7092
632.03	300.00	2.884	72.834	-12.7350
633.08	300.00	2.882	72.804	-33.5277
634.13	300.00	2.881	72.761	-38.2419
635.18	300.00	2.879	72.727	-38.3871
636.23	300.00	2.878	72.686	-28.5149
637.28	300.00	2.877	72.664	-13.7731
638.33	300.00	2.875	72.624	0.713221
639.38	300.00	2.874	72.599	9.07925
640.43	300.00	2.873	72.568	6.55000
641.48	300.00	2.872	72.533	-9.41686
642.53	300.00	2.870	72.496	-38.4194
643.58	300.00	2.869	72.468	-37.4812
644.63	300.00	2.868	72.443	-41.3716
645.68	300.00	2.866	72.402	-19.8078
646.73	300.00	2.865	72.366	-7.56627
647.78	300.00	2.864	72.336	1.72493
648.83	300.00	2.862	72.298	10.3287
649.88	300.00	2.861	72.267	6.66321
650.93	300.00	2.860	72.231	-12.7472
651.98	300.00	2.859	72.208	-37.0134
653.03	300.00	2.857	72.175	-51.5334
654.08	300.00	2.856	72.139	-46.4985
655.13	300.00	2.854	72.099	-35.2742
656.18	300.00	2.853	72.069	-16.4916
657.23	300.00	2.852	72.038	35.2033
658.28	300.00	2.851	72.004	46.6266
659.33	300.00	2.849	71.971	20.7283
660.38	300.00	2.848	71.932	27.1451
661.43	300.00	2.847	71.901	14.8460
662.48	300.00	2.845	71.871	-12.4112
663.53	300.00	2.844	71.837	-20.7039
664.58	300.00	2.843	71.804	2.86389
665.63	300.00	2.841	71.769	18.0598
666.68	300.00	2.840	71.740	37.8496
667.73	300.00	2.839	71.706	60.2657
668.78	300.00	2.837	71.663	51.3583
669.83	300.00	2.836	71.634	60.5299
670.88	300.00	2.835	71.605	66.5180
671.93	300.00	2.834	71.571	67.3973
672.98	300.00	2.832	71.543	49.1874
674.03	300.00	2.831	71.506	58.2209
675.08	300.00	2.830	71.474	47.4183
676.13	300.00	2.829	71.453	47.5087
677.18	300.00	2.827	71.402	43.8983
678.23	300.00	2.826	71.370	10.2798
679.28	300.00	2.824	71.343	9.13005
680.33	300.00	2.823	71.313	13.6503
681.38	300.00	2.822	71.272	16.1783
682.43	300.00	2.821	71.246	24.9142
683.48	300.00	2.819	71.206	22.8046
684.53	300.00	2.818	71.181	11.0319
685.58	300.00	2.817	71.149	-7.68926
686.63	300.00	2.815	71.113	-22.7686
687.68	300.00	2.814	71.081	-21.0081
688.73	300.00	2.813	71.051	-31.9836
689.78	300.00	2.811	71.014	-49.9330
690.83	300.00	2.810	70.984	-50.2067
691.88	300.00	2.809	70.944	-39.4817
692.93	300.00	2.807	70.912	-31.1923
693.98	300.00	2.807	70.891	-29.8315
695.03	300.00	2.805	70.849	-16.9126
696.08	300.00	2.804	70.821	16.8715
697.13	300.00	2.802	70.782	18.3345
698.18	300.00	2.801	70.751	-0.504724
699.23	300.00	2.800	70.720	-31.7242
700.28	300.00	2.798	70.681	-39.4457
701.33	300.00	2.797	70.661	-32.8819
702.38	300.00	2.796	70.621	-25.8496
703.43	300.00	2.794	70.579	-14.1601
704.48	300.00	2.793	70.550	12.1882
705.53	300.00	2.792	70.525	15.7952
706.58	300.00	2.791	70.494	15.3637
707.63	300.00	2.789	70.456	10.9942
708.68	300.00	2.788	70.423	-14.3028
709.73	300.00	2.787	70.400	-27.6411
710.78	300.00	2.786	70.366	-39.3437
711.83	300.00	2.785	70.335	-28.3844
712.88	300.00	2.783	70.301	-8.34026
713.93	300.00	2.782	70.264	-14.8613
714.98	300.00	2.780	70.232	-6.53712
716.03	300.00	2.779	70.198	-11.4352
717.08	300.00	2.778	70.169	-23.7823
718.13	300.00	2.776	70.130	-42.1437
719.18	300.00	2.775	70.103	-41.9740
720.23	300.00	2.774	70.069	-34.6872
721.28	300.00	2.773	70.039	-22.5845
722.33	300.00	2.771	69.993	10.8415
723.38	300.00	2.770	69.976	25.4666
724.43	300.00	2.769	69.938	31.0278
725.48	300.00	2.768	69.909	43.7144
726.53	300.00	2.766	69.874	47.0166
727.58	300.00	2.765	69.846	40.4823
728.63	300.00	2.764	69.813	31.0910
729.68	300.00	2.762	69.773	3.26259
730.73	300.00	2.761	69.743	-10.7143
731.78	300.00	2.760	69.724	7.91457
732.83	300.00	2.758	69.673	30.1064
733.88	300.00	2.757	69.643	63.2615
734.93	300.00	2.756	69.611	83.4662
735.98	300.00	2.755	69.581	101.576
737.03	300.00	2.753	69.548	113.485
738.08	300.00	2.752	69.518	88.3480
739.13	300.00	2.751	69.487	78.7171
740.18	300.00	2.750	69.454	67.2991
741.23	300.00	2.748	69.415	46.8117
742.28	300.00	2.747	69.391	53.7880
743.33	300.00	2.745	69.344	47.1566
744.38	300.00	2.744	69.323	40.7410
745.43	300.00	2.743	69.291	41.4885
746.48	300.00	2.742	69.258	20.1207
747.53	300.00	2.741	69.232	-16.0006
748.58	300.00	2.739	69.188	-48.0166
749.63	300.00	2.738	69.161	-58.4061
750.68	300.00	2.737	69.125	-76.3102
751.73	300.00	2.736	69.103	-83.2229
752.78	300.00	2.734	69.067	-88.5492
753.83	300.00	2.733	69.030	-101.131
754.88	300.00	2.732	68.998	-98.9576
755.93	300.00	2.730	68.956	-80.6452
756.98	300.00	2.728	68.910	-76.9340
758.03	300.00	2.727	68.877	-73.3217
759.08	300.00	2.726	68.863	-82.4876
760.13	300.00	2.725	68.834	-99.8267
761.18	300.00	2.724	68.803	-104.332
762.23	300.00	2.723	68.769	-97.1634
763.28	300.00	2.721	68.730	-73.4389
764.33	300.00	2.720	68.698	-35.2497
765.38	300.00	2.718	68.666	-0.223669
766.43	300.00	2.717	68.629	41.7335
767.48	300.00	2.716	68.598	59.4508
768.53	300.00	2.715	68.574	43.9777
769.58	300.00	2.714	68.542	29.9928
770.63	300.00	2.712	68.509	5.44066
771.68	300.00	2.711	68.477	10.1080
772.73	300.00	2.710	68.455	26.3275
773.78	300.00	2.708	68.398	29.3961
774.83	300.00	2.707	68.372	36.1465
775.88	300.00	2.706	68.355	31.6253
776.93	300.00	2.705	68.320	12.7613
777.98	300.00	2.703	68.283	-9.20082
779.03	300.00	2.702	68.254	-14.5047
780.08	300.00	2.700	68.208	-22.7650
781.13	300.00	2.700	68.191	-33.2695
782.18	300.00	2.698	68.158	-18.5355
783.23	300.00	2.697	68.127	-19.6976
784.28	300.00	2.696	68.097	-34.6780
785.33	300.00	2.695	68.067	-35.1664
786.38	300.00	2.694	68.037	-19.8074
787.43	300.00	2.692	68.003	1.70136
788.48	300.00	2.691	67.976	13.1859
789.53	300.00	2.690	67.942	8.68524
790.58	300.00	2.688	67.899	5.03618
791.63	300.00	2.687	67.872	9.85824
792.68	300.00	2.686	67.851	10.6404
793.73	300.00	2.685	67.819	24.7944
794.78	300.00	2.683	67.781	32.9813
795.83	300.00	2.683	67.765	29.9123
796.88	300.00	2.682	67.733	50.9744
797.93	300.00	2.680	67.701	77.5370
798.98	300.00	2.679	67.663	93.6887
800.03	300.00	2.678	67.634	87.8601
801.08	300.00	2.676	67.597	66.5814
802.13	300.00	2.675	67.575	57.2777
803.18	300.00	2.674	67.541	45.7225
804.23	300.00	2.673	67.513	40.6993
805.28	300.00	2.671	67.477	48.3587
806.33	300.00	2.671	67.455	26.9802
807.38	300.00	2.669	67.414	5.35279
808.43	300.00	2.668	67.391	-6.83607
809.48	300.00	2.667	67.355	-24.4524
810.53	300.00	2.665	67.325	-15.9023
811.58	300.00	2.664	67.291	7.43106
812.63	300.00	2.663	67.264	33.6920
813.68	300.00	2.662	67.238	45.3699
814.73	300.00	2.661	67.208	14.0793
815.78	300.00	2.660	67.178	-16.2594
816.83	300.00	2.658	67.141	-29.8507
817.88	300.00	2.657	67.110	-39.2397
818.93	300.00	2.655	67.071	-43.0028
819.98	300.00	2.654	67.037	-48.2846
821.03	300.00	2.653	67.024	-30.3949
822.08	300.00	2.652	66.993	-6.39856
823.13	300.00	2.651	66.964	-15.2894
824.18	300.00	2.650	66.926	-35.7352
825.23	300.00	2.648	66.890	-50.4332
826.28	300.00	2.647	66.863	-68.6105
827.33	300.00	2.646	66.836	-67.3709
828.38	300.00	2.645	66.804	-56.0942
829.43	300.00	2.644	66.781	-41.1736
830.48	300.00	2.642	66.745	-27.0009
831.53	300.00	2.641	66.718	-7.24804
832.58	300.00	2.640	66.680	-1.98699
833.63	300.00	2.639	66.651	1.60250
834.68	300.00	2.638	66.623	1.85331
835.73	300.00	2.636	66.593	-7.41570
836.78	300.00	2.635	66.559	-5.62422
837.83	300.00	2.634	66.538	-0.756773
838.88	300.00	2.633	66.513	22.6421
839.93	300.00	2.631	66.469	35.7327
840.98	300.00	2.630	66.443	63.9286
842.03	300.00	2.629	66.412	87.6618
843.08	300.00	2.628	66.382	105.171
844.13	300.00	2.627	66.349	108.853
845.18	300.00	2.626	66.319	100.093
846.23	300.00	2.625	66.300	99.1891
847.28	300.00	2.623	66.267	98.6706
848.33	300.00	2.622	66.234	95.1183
849.38	300.00	2.622	66.218	88.2192
850.43	300.00	2.619	66.154	68.4172
851.48	300.00	2.618	66.139	63.6027
852.53	300.00	2.618	66.116	67.4161
853.58	300.00	2.616	66.082	49.4290
854.63	300.00	2.615	66.049	26.4176
855.68	300.00	2.614	66.021	2.69590
856.73	300.00	2.613	65.993	-35.1123
857.78	300.00	2.612	65.967	-68.7923
858.83	300.00	2.610	65.932	-90.7764
859.88	300.00	2.609	65.902	-94.3903
860.93	300.00	2.608	65.870	-94.8278
861.98	300.00	2.607	65.842	-84.6026
863.03	300.00	2.605	65.810	-80.7851
864.08	300.00	2.604	65.777	-57.1952
865.13	300.00	2.603	65.751	-66.3170
866.18	300.00	2.602	65.718	-87.3887
867.23	300.00	2.601	65.692	-94.2032
868.28	300.00	2.599	65.646	-87.5204
869.33	300.00	2.599	65.642	-59.1231
870.38	300.00	2.597	65.598	-54.5128
871.43	300.00	2.595	65.558	-49.0331
872.48	300.00	2.594	65.529	-38.0206
873.53	300.00	2.593	65.507	-21.2356
874.58	300.00	2.592	65.483	-3.73024
875.63	300.00	2.591	65.443	-0.117548
876.68	300.00	2.590	65.408	31.4282
877.73	300.00	2.589	65.386	44.2267
878.78	300.00	2.587	65.338	51.6217
879.83	300.00	2.586	65.323	32.3762
880.88	300.00	2.585	65.290	2.29398
881.93	300.00	2.584	65.258	-14.6502
882.98	300.00	2.583	65.231	-22.3890
884.03	300.00	2.581	65.199	-25.1201
885.08	300.00	2.580	65.170	-24.0793
886.13	300.00	2.579	65.138	-19.1325
887.18	300.00	2.578	65.107	-23.0392
888.23	300.00	2.576	65.079	-37.8430
889.28	300.00	2.576	65.056	-55.0829
890.33	300.00	2.574	65.019	-48.8006
891.38	300.00	2.573	64.994	-28.9194
892.43	300.00	2.571	64.952	-5.99660
893.48	300.00	2.571	64.933	4.39388
894.53	300.00	2.570	64.907	44.2368
895.58	300.00	2.569	64.882	58.2414
896.63	300.00	2.568	64.855	69.4141
897.68	300.00	2.566	64.818	63.4753
898.73	300.00	2.565	64.784	74.2497
899.78	300.00	2.564	64.761	91.3872
900.83	300.00	2.563	64.734	81.0026
901.88	300.00	2.562	64.718	56.2800
902.93	300.00	2.561	64.678	52.5122
903.98	300.00	2.559	64.647	60.6814
905.03	300.00	2.558	64.621	65.1195
906.08	300.00	2.557	64.594	62.0637
907.13	300.00	2.556	64.562	53.8112
908.18	300.00	2.555	64.535	55.6893
909.23	300.00	2.554	64.509	60.1412
910.28	300.00	2.553	64.480	32.3627
911.33	300.00	2.551	64.448	11.1429
912.38	300.00	2.551	64.425	-25.3411
913.43	300.00	2.549	64.389	-64.9250
914.48	300.00	2.548	64.361	-92.1222
915.53	300.00	2.547	64.334	-107.274
916.58	300.00	2.546	64.306	-110.851
917.63	300.00	2.545	64.289	-110.265
918.68	300.00	2.543	64.239	-109.839
919.73	300.00	2.542	64.200	-122.295
920.78	300.00	2.542	64.196	-107.815
921.83	300.00	2.540	64.169	-105.503
922.88	300.00	2.539	64.126	-104.952
923.93	300.00	2.538	64.099	-104.318
924.98	300.00	2.537	64.073	-97.0880
926.03	300.00	2.535	64.039	-95.0577
927.08	300.00	2.534	64.012	-84.9575
928.13	300.00	2.533	63.983	-64.3532
929.18	300.00	2.532	63.957	-40.4469
930.23	300.00	2.531	63.929	-16.9125
931.28	300.00	2.530	63.902	-9.43633
932.33	300.00	2.529	63.870	-5.94680
933.38	300.00	2.528	63.843	-2.15661
934.43	300.00	2.526	63.813	5.64149
935.48	300.00	2.525	63.789	11.8169
936.53	300.00	2.524	63.754	27.3670
937.58	300.00	2.523	63.728	45.9280
938.63	300.00	2.522	63.705	90.6053
939.68	300.00	2.521	63.673	118.405
940.73	300.00	2.520	63.648	117.920
941.78	300.00	2.518	63.612	127.593
942.83	300.00	2.518	63.599	108.672
943.88	300.00	2.517	63.567	91.4284
944.93	300.00	2.516	63.540	71.9729
945.98	300.00	2.514	63.497	33.8657
947.03	300.00	2.512	63.455	14.9318
948.08	300.00	2.512	63.454	6.78582
949.13	300.00	2.511	63.418	5.75979
950.18	300.00	2.510	63.397	16.8341
951.23	300.00	2.509	63.367	35.8819
952.28	300.00	2.508	63.340	42.6630
953.33	300.00	2.507	63.313	35.9680
954.38	300.00	2.506	63.287	34.1036
955.43	300.00	2.504	63.256	28.0385
956.48	300.00	2.503	63.225	13.8822
957.53	300.00	2.502	63.200	21.1414
958.58	300.00	2.501	63.172	26.4451
959.63	300.00	2.500	63.146	19.0381
960.68	300.00	2.499	63.124	19.2886
961.73	300.00	2.498	63.085	27.6474
962.78	300.00	2.496	63.057	26.2804
963.83	300.00	2.495	63.032	1.03356
964.88	300.00	2.494	63.006	-24.6843
965.93	300.00	2.493	62.977	-45.0383
966.98	300.00	2.492	62.940	-26.4803
968.03	300.00	2.491	62.925	-14.2336
969.08	300.00	2.490	62.882	15.7338
970.13	300.00	2.489	62.876	24.4525
971.18	300.00	2.488	62.840	29.1348
972.23	300.00	2.486	62.805	12.6190
973.28	300.00	2.485	62.780	-2.32626
974.33	300.00	2.484	62.746	-26.2186
975.38	300.00	2.483	62.724	-60.2480
976.43	300.00	2.482	62.693	-79.6371
977.48	300.00	2.481	62.667	-41.5801
978.53	300.00	2.480	62.640	-34.8813
979.58	300.00	2.479	62.608	-26.9565
980.63	300.00	2.478	62.586	-33.3029
981.68	300.00	2.477	62.557	-36.7606
982.73	300.00	2.475	62.525	-22.5960
983.78	300.00	2.474	62.502	-42.2608
984.83	300.00	2.474	62.479	-29.3022
985.88	300.00	2.472	62.437	-8.65171
986.93	300.00	2.471	62.409	-4.29172
987.98	300.00	2.470	62.381	-2.29363
989.03	300.00	2.469	62.354	-9.43444
990.08	300.00	2.468	62.338	-17.9469
991.13	300.00	2.466	62.294	-9.53926
992.18	300.00	2.466	62.278	10.9229
993.23	300.00	2.464	62.247	15.6269
994.28	300.00	2.463	62.221	16.9306
995.33	300.00	2.462	62.186	2.16530
996.38	300.00	2.462	62.179	-6.56808
997.43	300.00	2.460	62.134	-9.75218
998.48	300.00	2.459	62.106	-11.9178
999.53	300.00	2.457	62.072	2.67355
1000.58	300.00	2.457	62.054	16.8615
1001.63	300.00	2.456	62.027	26.3747
1002.68	300.00	2.454	61.998	32.8777
1003.73	300.00	2.453	61.969	40.6535
1004.78	300.00	2.452	61.943	38.7370
1005.83	300.00	2.451	61.918	31.1961
1006.88	300.00	2.450	61.888	35.0780
1007.93	300.00	2.449	61.865	48.7665
1008.98	300.00	2.448	61.822	41.8557
1010.03	300.00	2.447	61.806	38.3030
1011.08	300.00	2.446	61.784	34.3382
1012.13	300.00	2.445	61.753	32.5880
1013.18	300.00	2.444	61.730	22.5059
1014.23	300.00	2.443	61.705	-5.49484
1015.28	300.00	2.442	61.671	-7.43345
1016.33	300.00	2.440	61.637	4.10416
1017.38	300.00	2.440	61.623	-9.25330
1018.43	300.00	2.438	61.589	-14.6421
1019.48	300.00	2.437	61.567	-31.9049
1020.53	300.00	2.436	61.531	-36.2253
1021.58	300.00	2.435	61.513	-25.4058
1022.63	300.00	2.434	61.482	-17.3037
1023.68	300.00	2.433	61.452	-21.6645
1024.73	300.00	2.432	61.437	-15.8114
1025.78	300.00	2.431	61.416	-31.6601
1026.82	300.00	2.430	61.373	-57.2525
1027.88	300.00	2.429	61.347	-81.2721
1028.93	300.00	2.428	61.320	-84.6706
1029.98	300.00	2.426	61.290	-75.2992
1031.03	300.00	2.425	61.262	-69.7117
1032.07	300.00	2.424	61.234	-61.8236
1033.13	300.00	2.423	61.212	-50.5415
1034.18	300.00	2.422	61.187	-44.9884
1035.23	300.00	2.421	61.156	-35.2761
1036.28	300.00	2.420	61.123	-19.6262
1037.32	300.00	2.419	61.095	5.53802
1038.38	300.00	2.418	61.067	10.1989
1039.43	300.00	2.417	61.043	-4.70695
1040.48	300.00	2.416	61.036	-4.70069
1041.53	300.00	2.415	60.993	4.74734
1042.57	300.00	2.413	60.957	19.0294
1043.63	300.00	2.413	60.942	-5.91276
1044.68	300.00	2.411	60.904	-33.3692
1045.73	300.00	2.410	60.877	-51.2898
1046.78	300.00	2.409	60.853	-54.2753
1047.82	300.00	2.408	60.820	-52.5949
1048.88	300.00	2.407	60.799	-37.9827
1049.93	300.00	2.406	60.770	-24.0218
1050.98	300.00	2.405	60.750	4.69452
1052.03	300.00	2.404	60.721	31.2290
1053.07	300.00	2.403	60.696	37.6021
1054.13	300.00	2.402	60.671	39.9936
1055.18	300.00	2.401	60.642	39.3329
1056.23	300.00	2.400	60.618	12.2681
1057.28	300.00	2.399	60.590	-14.0624
1058.32	300.00	2.398	60.563	-10.7246
1059.38	300.00	2.397	60.536	9.55998
1060.43	300.00	2.396	60.516	27.3729
1061.48	300.00	2.395	60.488	26.9696
1062.53	300.00	2.394	60.459	24.0855
1063.57	300.00	2.393	60.440	26.6917
1064.63	300.00	2.392	60.415	22.1191
1065.68	300.00	2.391	60.392	18.1693
1066.73	300.00	2.390	60.358	31.2776
1067.78	300.00	2.389	60.342	53.8087
1068.82	300.00	2.387	60.302	62.3610
1069.88	300.00	2.387	60.285	65.1192
1070.93	300.00	2.386	60.260	66.0473
1071.98	300.00	2.385	60.231	70.6913
1073.03	300.00	2.384	60.208	67.0642
1074.07	300.00	2.383	60.180	58.9759
1075.13	300.00	2.382	60.156	51.4284
1076.18	300.00	2.380	60.126	32.8537
1077.23	300.00	2.380	60.105	13.1071
1078.28	300.00	2.379	60.079	11.2818
1079.32	300.00	2.378	60.053	3.34288
1080.38	300.00	2.376	60.023	16.3056
1081.43	300.00	2.375	59.999	33.6624
1082.48	300.00	2.374	59.971	40.9334
1083.53	300.00	2.373	59.951	38.0640
1084.57	300.00	2.372	59.921	27.6506
1085.63	300.00	2.371	59.896	-9.40487
1086.68	300.00	2.370	59.865	-51.3249
1087.73	300.00	2.370	59.854	-83.9698
1088.78	300.00	2.368	59.815	-85.5920
1089.82	300.00	2.367	59.795	-85.6016
1090.88	300.00	2.366	59.758	-84.4723
1091.93	300.00	2.365	59.741	-91.3458
1092.98	300.00	2.364	59.711	-76.7981
1094.03	300.00	2.363	59.691	-48.2289
1095.08	300.00	2.362	59.665	-28.6840
1096.13	300.00	2.361	59.634	-20.2988
1097.18	300.00	2.360	59.616	-17.5800
1098.23	300.00	2.359	59.583	-13.6204
1099.28	300.00	2.358	59.560	0.734138
1100.33	300.00	2.357	59.531	13.6751
1101.38	300.00	2.356	59.508	21.1980
1102.43	300.00	2.355	59.482	19.2513
1103.48	300.00	2.354	59.451	10.0693
1104.53	300.00	2.353	59.427	2.99994
1105.58	300.00	2.352	59.397	-3.70990
1106.63	300.00	2.351	59.376	-14.6380
1107.68	300.00	2.349	59.343	-18.8973
1108.73	300.00	2.349	59.325	-15.3803
1109.78	300.00	2.348	59.304	-10.6733
1110.83	300.00	2.347	59.270	0.228997
1111.88	300.00	2.345	59.238	17.5585
1112.93	300.00	2.345	59.231	25.9122
1113.98	300.00	2.344	59.197	29.9746
1115.03	300.00	2.342	59.167	22.2459
1116.08	300.00	2.342	59.144	7.51128
1117.13	300.00	2.341	59.123	-4.89717
1118.18	300.00	2.340	59.096	-29.6992
1119.23	300.00	2.339	59.068	-37.0658
1120.28	300.00	2.337	59.039	-40.8359
1121.33	300.00	2.337	59.021	-45.6412
1122.38	300.00	2.336	59.004	-45.4863
1123.43	300.00	2.334	58.966	-27.9986
1124.48	300.00	2.333	58.941	1.54299
1125.53	300.00	2.333	58.922	34.9172
1126.58	300.00	2.332	58.892	43.6988
1127.63	300.00	2.331	58.867	36.8796
1128.68	300.00	2.330	58.850	35.2178
1129.73	300.00	2.329	58.816	42.7187
1130.78	300.00	2.327	58.790	68.2677
1131.83	300.00	2.326	58.759	84.0836
1132.88	300.00	2.325	58.739	85.1075
1133.93	300.00	2.325	58.717	77.0343
1134.98	300.00	2.324	58.693	49.2491
1136.03	300.00	2.323	58.669	10.7282
1137.08	300.00	2.322	58.643	-23.1485
1138.13	300.00	2.321	58.618	-39.1977
1139.18	300.00	2.320	58.593	-41.1233
1140.23	300.00	2.319	58.577	-35.7243
1141.28	300.00	2.318	58.551	-25.4358
1142.33	300.00	2.317	58.526	-19.4519
1143.38	300.00	2.316	58.495	0.126092
1144.43	300.00	2.315	58.472	-3.25645
1145.48	300.00	2.314	58.445	-25.0152
1146.53	300.00	2.313	58.425	-26.0126
1147.58	300.00	2.312	58.396	-38.9100
1148.63	300.00	2.311	58.368	-42.1066
1149.68	300.00	2.310	58.348	-37.7451
1150.73	300.00	2.309	58.315	-39.6640
1151.78	300.00	2.308	58.298	-36.7193
1152.83	300.00	2.307	58.272	-22.7560
1153.88	300.00	2.306	58.247	6.58420
1154.93	300.00	2.305	58.211	27.2547
1155.98	300.00	2.304	58.199	26.8047
1157.03	300.00	2.303	58.170	18.4067
1158.08	300.00	2.302	58.143	18.4928
1159.13	300.00	2.301	58.122	0.695400
1160.18	300.00	2.300	58.101	-14.5469
1161.23	300.00	2.299	58.070	-10.6929
1162.28	300.00	2.299	58.059	8.03982
1163.33	300.00	2.296	58.003	26.6716
1164.38	300.00	2.296	58.006	40.5395
1165.43	300.00	2.295	57.979	46.8797
1166.48	300.00	2.294	57.944	42.9994
1167.53	300.00	2.293	57.923	29.7330
1168.58	300.00	2.292	57.900	10.3877
1169.63	300.00	2.291	57.877	-6.42795
1170.68	300.00	2.290	57.853	-12.1566
1171.73	300.00	2.290	57.833	-4.11484
1172.78	300.00	2.288	57.800	0.746765
1173.83	300.00	2.287	57.776	15.4659
1174.88	300.00	2.286	57.750	22.4030
1175.93	300.00	2.285	57.728	22.2123
1176.98	300.00	2.285	57.705	29.6752
1178.03	300.00	2.283	57.676	38.0023
1179.08	300.00	2.283	57.657	7.28235
1180.13	300.00	2.281	57.624	-9.29016
1181.18	300.00	2.280	57.589	-28.4467
1182.23	300.00	2.279	57.576	-27.2555
1183.28	300.00	2.279	57.555	-3.12918
1184.33	300.00	2.278	57.535	13.1862
1185.38	300.00	2.277	57.510	6.65959
1186.43	300.00	2.276	57.478	7.64086
1187.48	300.00	2.275	57.454	-2.03519
1188.53	300.00	2.274	57.429	-19.6334
1189.58	300.00	2.272	57.398	-39.2615
1190.63	300.00	2.272	57.379	-69.5022
1191.68	300.00	2.271	57.361	-64.3671
1192.73	300.00	2.270	57.334	-65.1884
1193.78	300.00	2.269	57.315	-66.1503
1194.83	300.00	2.268	57.295	-47.1699
1195.88	300.00	2.267	57.255	-24.3924
1196.93	300.00	2.266	57.230	-8.19615
1197.98	300.00	2.265	57.208	-10.1484
1199.03	300.00	2.264	57.181	-9.40423
1200.08	300.00	2.263	57.162	-3.73784
1201.13	300.00	2.262	57.132	-5.30276
1202.18	300.00	2.261	57.112	-4.50498
1203.23	300.00	2.260	57.089	-3.51322
1204.28	300.00	2.259	57.065	-10.7831
1205.33	300.00	2.258	57.045	-25.4380
1206.38	300.00	2.257	57.011	-33.8734
1207.43	300.00	2.256	56.993	-24.2750
1208.48	300.00	2.256	56.972	3.31324
1209.53	300.00	2.254	56.937	7.03178
1210.58	300.00	2.253	56.918	11.1570
1211.63	300.00	2.253	56.897	21.5614
1212.68	300.00	2.252	56.872	39.7008
1213.73	300.00	2.251	56.852	52.2284
1214.78	300.00	2.249	56.818	52.6519
1215.83	300.00	2.249	56.801	45.8982
1216.88	300.00	2.248	56.773	43.0896
1217.93	300.00	2.247	56.754	41.9370
1218.98	300.00	2.246	56.731	35.1292
1220.03	300.00	2.245	56.697	33.9272
1221.08	300.00	2.244	56.681	29.4312
1222.13	300.00	2.243	56.660	26.8417
1223.18	300.00	2.242	56.631	21.2209
1224.23	300.00	2.241	56.608	18.9898
1225.28	300.00	2.240	56.590	10.0125
1226.33	300.00	2.239	56.561	8.96792
1227.38	300.00	2.238	56.538	19.7021
1228.43	300.00	2.237	56.515	26.8853
1229.48	300.00	2.236	56.485	29.8176
1230.53	300.00	2.236	56.470	30.5024
1231.58	300.00	2.235	56.441	31.5690
1232.63	300.00	2.234	56.423	20.7462
1233.68	300.00	2.233	56.401	13.0447
1234.73	300.00	2.232	56.382	0.0528646
1235.78	300.00	2.231	56.341	-26.2270
1236.83	300.00	2.230	56.322	-49.4070
1237.88	300.00	2.229	56.304	-51.7632
1238.93	300.00	2.228	56.272	-46.6867
1239.98	300.00	2.227	56.260	-48.4573
1241.03	300.00	2.226	56.231	-51.0143
1242.08	300.00	2.226	56.214	-49.6801
1243.13	300.00	2.224	56.176	-37.4397
1244.18	300.00	2.223	56.155	-16.3012
1245.23	300.00	2.223	56.140	-20.4670
1246.28	300.00	2.221	56.111	-37.8111
1247.33	300.00	2.221	56.088	-47.7957
1248.38	300.00	2.219	56.060	-57.5130
1249.43	300.00	2.219	56.038	-56.3893
1250.48	300.00	2.218	56.012	-1.49022
1251.53	300.00	2.217	55.987	-0.0963598
1252.58	300.00	2.216	55.971	-0.0365946
1253.63	300.00	2.215	55.940	-0.0232837
1254.68	300.00	2.214	55.916	-0.0187257
1255.73	300.00	2.213	55.895	-0.0177273
1256.78	300.00	2.212	55.862	-0.0189880
1257.83	300.00	2.210	55.832	-0.0226508
1258.88	300.00	2.210	55.816	-0.0292799
1259.93	300.00	2.209	55.794	-0.0398772
1260.98	300.00	2.208	55.767	-0.0556931
1262.03	300.00	2.207	55.741	-0.0779250
1263.08	300.00	2.206	55.709	-0.107209
1264.13	300.00	2.205	55.692	-0.142933
1265.18	300.04	2.204	55.678	-0.182219
1266.23	303.18	2.204	55.672	-0.219638
1267.28	311.22	2.203	55.641	-0.250220
1268.33	320.67	2.200	55.562	-0.271882
1269.38	330.39	2.195	55.456	-0.285464
1270.43	340.38	2.187	55.232	-0.293080
1271.48	350.72	2.172	54.850	-0.296451
1272.53	361.30	2.144	54.148	-0.296792
1273.58	372.00	2.094	52.904	-0.294942
1274.63	382.72	2.010	50.767	-0.291500
1275.68	393.40	1.872	47.277	-0.286879
1276.73	404.01	1.660	41.936	-0.281379
1277.78	414.57	1.364	34.449	-0.275209
1278.83	425.10	0.993	25.082	-0.268497
1279.88	435.62	0.603	15.226	-0.261312
1280.93	446.14	0.294	7.433	-0.253589
1281.98	456.67	0.122	3.070	-0.244581
1283.03	467.19	0.065	1.630	-0.233453
1284.08	477.71	0.058	1.475	-0.219976
1285.13	488.29	0.058	1.460	-0.204114
1286.18	498.83	0.057	1.452	-0.185879
1287.23	509.36	0.057	1.430	-0.165347
1288.28	519.89	0.056	1.416	-0.142774
1289.33	530.41	0.056	1.414	-0.118607
1290.38	540.93	0.056	1.409	-0.0936155
1291.43	551.46	0.055	1.396	-0.0689423
1292.48	561.99	0.055	1.395	-0.0461237
1293.53	572.51	0.055	1.390	-0.0269550
1294.58	583.03	0.055	1.383	-0.0130498
1295.63	593.56	0.055	1.385	-4.94817e-3
1296.68	604.08	0.055	1.385	-1.46525e-3
1297.73	614.60	0.055	1.384	-5.40454e-4
1298.78	625.12	0.055	1.381	-4.13820e-4
1299.83	635.64	0.054	1.375	-3.71198e-4
1300.88	646.16	0.054	1.373	-3.50544e-4
1301.93	656.68	0.054	1.375	-3.27842e-4
1302.98	667.20	0.054	1.360	-3.12807e-4
1304.03	677.72	0.054	1.361	-3.01719e-4
1305.08	688.23	0.053	1.351	-2.97062e-4
1306.13	698.75	0.054	1.354	-2.92898e-4
1307.18	709.27	0.054	1.358	-2.91278e-4
1308.23	719.78	0.053	1.336	-2.97746e-4
1309.28	730.30	0.053	1.336	-3.05051e-4
1310.33	740.81	0.053	1.342	-3.13099e-4
1311.38	751.32	0.053	1.338	-3.08531e-4
1312.43	761.84	0.053	1.331	-3.03870e-4
1313.48	772.35	0.053	1.351	-2.94171e-4
1314.53	782.86	0.053	1.340	-2.80606e-4
1314.83	785.87	0.053	1.332	-2.74465e-4