File: data/TGA/005d-B/P2934-S MS_104 AMU_XIC
Time	Ion Current
min	mA
0.00	1.00000e-13
0.97	1.00000e-13
1.94	1.00000e-13
2.91	1.00000e-13
3.88	1.56402e-5
4.85	1.00000e-13
5.82	1.00000e-13
6.79	1.00000e-13
7.76	1.00000e-13
8.74	1.00000e-13
9.71	1.00000e-13
10.67	1.00000e-13
11.64	1.00000e-13
12.61	1.00000e-13
13.58	1.00000e-13
14.55	1.00000e-13
15.52	1.00000e-13
16.49	1.00000e-13
17.46	1.00000e-13
18.43	1.00000e-13
19.40	1.00000e-13
20.37	1.00000e-13
21.35	1.00000e-13
22.32	1.00000e-13
23.28	1.00000e-13
24.25	1.00000e-13
25.22	1.00000e-13
26.19	1.00000e-13
27.16	1.00000e-13
28.13	1.00000e-13
29.10	1.00000e-13
30.07	1.00000e-13
31.04	1.00000e-13
32.01	1.00000e-13
32.99	1.00000e-13
33.96	1.00000e-13
34.93	1.00000e-13
35.89	1.00000e-13
36.86	1.00000e-13
37.83	1.00000e-13
38.80	1.00000e-13
39.77	1.00000e-13
40.74	1.00000e-13
41.71	1.00000e-13
42.68	3.93902e-6
43.65	1.00000e-13
44.62	1.00000e-13
45.59	1.40183e-5
46.56	1.00000e-13
47.53	1.00000e-13
48.50	1.00000e-13
49.47	1.00000e-13
50.44	1.00000e-13
51.41	1.00000e-13
52.38	1.00000e-13
53.35	1.00000e-13
54.32	2.89634e-6
55.29	1.00000e-13
56.26	1.00000e-13
57.23	1.00000e-13
58.20	1.00000e-13
59.17	1.00000e-13
60.14	1.00000e-13
61.11	1.00000e-13
62.08	1.00000e-13
63.05	1.00000e-13
64.02	1.00000e-13
64.99	1.00000e-13
65.96	1.00000e-13
66.93	1.00000e-13
67.90	2.34024e-5
68.87	1.00000e-13
69.84	2.45609e-5
70.81	1.30914e-5
71.78	1.00000e-13
72.75	1.79573e-5
73.72	9.38413e-6
74.69	3.35975e-5
75.66	3.01219e-5
76.63	1.00000e-13
77.60	3.42926e-5
78.57	8.92072e-6
79.54	3.71890e-5
80.51	1.00000e-13
81.48	2.97743e-5
82.45	1.00000e-13
83.42	2.68780e-5
84.39	2.57195e-5
85.36	3.73048e-5
86.33	1.00000e-13
87.30	1.00000e-13
88.27	1.00000e-13
89.24	1.00000e-13
90.21	1.00000e-13
91.18	6.14023e-6
92.15	1.83048e-5
93.12	1.00000e-13
94.09	1.84207e-5
95.06	1.00000e-13
96.03	3.24390e-6
97.00	1.00000e-13
97.97	1.36707e-5
98.94	2.85000e-5
99.91	5.64206e-5
100.88	8.72377e-5
101.85	2.91951e-5
102.82	1.69146e-5
103.79	1.00000e-13
104.76	3.47560e-7
105.73	1.00000e-13
106.70	1.15853e-6
107.67	1.00000e-13
108.64	4.85426e-5
109.61	9.73169e-6
110.58	4.98170e-6
111.55	1.00000e-13
112.52	1.00000e-13
113.49	8.45730e-6
114.46	1.00000e-13
115.43	1.20488e-5
116.40	1.08902e-5
117.37	1.00000e-13
118.34	3.70731e-6
119.31	4.33292e-5
120.28	1.32073e-5
121.25	3.60304e-5
122.22	3.31341e-5
123.19	1.00000e-13
124.16	3.67256e-5
125.13	1.13536e-5
126.10	2.01585e-5
127.07	1.52927e-5
128.04	1.00000e-13
129.01	5.87377e-5
129.98	1.35549e-5
130.95	2.82682e-5
131.92	1.00000e-13
132.89	1.00000e-13
133.86	1.00000e-13
134.83	4.64572e-5
135.80	1.95792e-5
136.77	1.73780e-6
137.74	1.00000e-13
138.71	2.83841e-5
139.68	6.26767e-5
140.65	1.00000e-13
141.62	1.00000e-13
142.59	9.84755e-6
143.56	1.00000e-13
144.53	1.96951e-6
145.50	1.00000e-13
146.47	1.59878e-5
147.44	1.00000e-13
148.41	1.86524e-5
149.38	5.32926e-6
150.34	1.00000e-13
151.32	2.34024e-5
152.29	3.98536e-5
153.26	1.00000e-13
154.23	1.00000e-13
155.20	1.00000e-13
156.17	5.79267e-6
157.14	2.12012e-5
158.11	3.40609e-5
159.08	1.00000e-13
160.05	1.00000e-13
161.02	1.00000e-13
161.98	1.08902e-5
162.96	1.61036e-5
163.93	1.00000e-13
164.89	1.00000e-13
165.87	2.37500e-5
166.84	1.41341e-5
167.81	1.00000e-13
168.78	1.00000e-13
169.74	1.00000e-13
170.72	1.00000e-13
171.69	6.95121e-7
172.65	1.00000e-13
173.63	9.26828e-7
174.60	1.00000e-13
175.57	1.25122e-5
176.53	1.00000e-13
177.50	1.00000e-13
178.48	1.00000e-13
179.45	7.99389e-6
180.41	1.00000e-13
181.39	1.00000e-13
182.36	1.00000e-13
183.32	8.10974e-6
184.30	1.00000e-13
185.27	1.25122e-5
186.24	1.00000e-13
187.20	2.24756e-5
188.17	1.00000e-13
189.15	4.03170e-5
190.12	1.00000e-13
191.09	4.05487e-6
192.06	2.91951e-5
193.03	3.12804e-5
194.00	1.00000e-13
194.96	5.32926e-6
195.94	1.07744e-5
196.90	9.26828e-7
197.88	1.00000e-13
198.85	6.48779e-6
199.82	1.00000e-13
200.79	1.62195e-5
201.75	1.00000e-13
202.72	1.00000e-13
203.69	1.00000e-13
204.67	4.32133e-5
205.64	1.00000e-13
206.61	1.00000e-13
207.57	2.31707e-7
208.54	1.00000e-13
209.52	1.00000e-13
210.48	1.00000e-13
211.46	1.00000e-13
212.42	1.77256e-5
213.40	1.00000e-13
214.37	1.70305e-5
215.33	1.00000e-13
216.31	1.43658e-5
217.27	3.01219e-5
218.25	1.00000e-13
219.21	1.00000e-13
220.18	1.00000e-13
221.16	1.00000e-13
222.12	1.00000e-13
223.10	8.10974e-6
224.07	1.00000e-13
225.04	1.00000e-13
226.01	1.00000e-13
226.97	1.00000e-13
227.95	1.00000e-13
228.91	1.00000e-13
229.89	1.00000e-13
230.85	1.00000e-13
231.82	2.32865e-5
232.79	1.39024e-6
233.77	1.00000e-13
234.73	1.00000e-13
235.70	3.82316e-6
236.68	8.22560e-6
237.64	1.00000e-13
238.61	2.50244e-5
239.58	2.39817e-5
240.55	2.13170e-5
241.52	1.00000e-13
242.50	1.00000e-13
243.46	1.26280e-5
244.43	1.00000e-13
245.41	1.00000e-13
246.37	1.00000e-13
247.35	1.00000e-13
248.32	1.00000e-13
249.28	1.00000e-13
250.25	1.00000e-13
251.22	1.27439e-6
252.19	1.00000e-13
253.16	1.00000e-13
254.13	1.00000e-13
255.10	1.00000e-13
256.08	2.21280e-5
257.04	1.00000e-13
258.02	1.00000e-13
258.98	1.00000e-13
259.95	1.00000e-13
260.92	1.00000e-13
261.89	1.00000e-13
262.86	1.00000e-13
263.83	1.00000e-13
264.80	1.00000e-13
265.77	8.92072e-6
266.74	8.92072e-6
267.71	1.00000e-13
268.69	1.00000e-13
269.65	1.00000e-13
270.63	1.00000e-13
271.59	1.00000e-13
272.56	1.00000e-13
273.53	1.00000e-13
274.50	2.07378e-5
275.47	7.64633e-6
276.44	1.00000e-13
277.42	1.00000e-13
278.38	1.00000e-13
279.35	1.72622e-5
280.32	1.00000e-13
281.29	3.82316e-6
282.26	1.00000e-13
283.23	1.00000e-13
284.20	1.48292e-5
285.17	1.00000e-13
286.14	1.00000e-13
287.11	1.00000e-13
288.08	1.00000e-13
289.05	1.00000e-13
290.02	2.78048e-5
290.99	1.00000e-13
291.96	1.00000e-13
292.93	1.00000e-13
293.90	1.00000e-13
294.87	1.00000e-13
295.84	1.00000e-13
296.81	1.00000e-13
297.78	1.00000e-13
298.75	1.00000e-13
299.72	1.00000e-13
300.69	1.00000e-13
301.66	1.00000e-13
302.63	1.00000e-13
303.60	3.47560e-7
304.57	1.00000e-13
305.54	1.00000e-13
306.51	1.00000e-13
307.48	1.00000e-13
308.45	1.00000e-13
309.42	1.00000e-13
310.39	7.06706e-6
311.36	1.00000e-13
312.33	1.00000e-13
313.30	1.00000e-13
314.27	1.00000e-13
315.24	1.00000e-13
316.21	1.00000e-13
317.18	1.00000e-13
318.15	1.00000e-13
319.12	1.00000e-13
320.09	1.00000e-13
321.06	1.00000e-13
322.03	1.00000e-13
323.00	1.00000e-13
323.97	1.00000e-13
324.94	6.48779e-6
325.91	1.00000e-13
326.88	1.00000e-13
327.85	1.00793e-5
328.82	2.62987e-5
329.79	1.00000e-13
330.76	1.00000e-13
331.73	1.00000e-13
332.70	1.00000e-13
333.67	1.00000e-13
334.64	1.04268e-5
335.61	1.00000e-13
336.58	1.65670e-5
337.55	2.54878e-6
338.52	3.70731e-5
339.49	1.00000e-13
340.46	1.00000e-13
341.43	1.00000e-13
342.40	1.00000e-13
343.37	1.00000e-13
344.34	1.00000e-13
345.31	1.00000e-13
346.28	1.00000e-13
347.25	1.00000e-13
348.22	1.00000e-13
349.19	1.00000e-13
350.16	1.00000e-13
351.13	1.00000e-13
352.10	1.00000e-13
353.07	4.98170e-6
354.04	1.00000e-13
355.01	1.00000e-13
355.98	1.00000e-13
356.95	1.00000e-13
357.92	1.00000e-13
358.89	1.00000e-13
359.86	1.00000e-13
360.83	1.00000e-13
361.80	1.00000e-13
362.77	1.00000e-13
363.74	1.00000e-13
364.71	1.00000e-13
365.68	1.00000e-13
366.65	1.91158e-5
367.62	1.00000e-13
368.59	1.00000e-13
369.56	1.00000e-13
370.53	1.00000e-13
371.50	1.00000e-13
372.47	1.00000e-13
373.44	1.00000e-13
374.41	7.87804e-6
375.38	1.00000e-13
376.35	1.00000e-13
377.32	1.00000e-13
378.29	1.00000e-13
379.26	1.61036e-5
380.23	1.00000e-13
381.20	1.00000e-13
382.17	1.00000e-13
383.14	1.00000e-13
384.11	1.00000e-13
385.08	1.00000e-13
386.05	1.00000e-13
387.02	1.00000e-13
387.99	3.82316e-5
388.96	1.00000e-13
389.93	1.00000e-13
390.90	1.00000e-13
391.87	1.00000e-13
392.84	1.00000e-13
393.81	1.00000e-13
394.78	1.00000e-13
395.75	1.00000e-13
396.72	1.00000e-13
397.69	1.00000e-13
398.66	1.00000e-13
399.63	1.00000e-13
400.60	1.00000e-13
401.57	1.00000e-13
402.54	1.00000e-13
403.51	1.48292e-5
404.48	1.00000e-13
405.45	1.00000e-13
406.42	1.00000e-13
407.39	1.00000e-13
408.36	1.00000e-13
409.33	1.00000e-13
410.30	1.00000e-13
411.27	1.00000e-13
412.24	1.00000e-13
413.21	1.00000e-13
414.18	1.00000e-13
415.15	2.54878e-6
416.12	1.00000e-13
417.09	1.00000e-13
418.06	1.00000e-13
419.03	1.00000e-13
420.00	1.00000e-13
420.97	1.00000e-13
421.94	1.00000e-13
422.91	1.00000e-13
423.88	1.00000e-13
424.85	1.00000e-13
425.82	1.74939e-5
426.79	1.00000e-13
427.76	1.00000e-13
428.73	1.00000e-13
429.70	2.40975e-5
430.67	1.00000e-13
431.64	1.00000e-13
432.61	1.00000e-13
433.58	1.00000e-13
434.55	1.00000e-13
435.52	1.00000e-13
436.49	1.00000e-13
437.46	1.00000e-13
438.43	1.00000e-13
439.40	1.00000e-13
440.37	1.00000e-13
441.34	1.00000e-13
442.31	1.77256e-5
443.28	1.00000e-13
444.25	1.00000e-13
445.22	1.00000e-13
446.19	1.00000e-13
447.16	1.00000e-13
448.13	1.00000e-13
449.10	1.00000e-13
450.07	1.00000e-13
451.04	1.00000e-13
452.01	1.00000e-13
452.98	1.00000e-13
453.95	1.00000e-13
454.92	1.00000e-13
455.89	1.00000e-13
456.86	1.00000e-13
457.83	1.00000e-13
458.80	1.00000e-13
459.77	1.00000e-13
460.74	1.00000e-13
461.71	1.00000e-13
462.68	2.08536e-6
463.65	1.00000e-13
464.62	1.00000e-13
465.59	1.00000e-13
466.56	1.00000e-13
467.53	1.00000e-13
468.50	1.95792e-5
469.47	1.00000e-13
470.44	1.00000e-13
471.41	1.00000e-13
472.38	1.00000e-13
473.35	1.00000e-13
474.32	1.00000e-13
475.29	1.00000e-13
476.26	1.00000e-13
477.23	1.00000e-13
478.20	1.00000e-13
479.17	1.15853e-6
480.14	1.00000e-13
481.11	1.00000e-13
482.08	1.00000e-13
483.05	1.00000e-13
484.02	1.00000e-13
484.99	1.00000e-13
485.96	1.00000e-13
486.93	1.00000e-13
487.90	1.00000e-13
488.87	1.00000e-13
489.84	1.00000e-13
490.81	1.00000e-13
491.78	1.00000e-13
492.75	1.00000e-13
493.72	1.00000e-13
494.69	1.00000e-13
495.66	1.00000e-13
496.63	1.00000e-13
497.60	1.00000e-13
498.57	1.00000e-13
499.54	1.00000e-13
500.51	1.00000e-13
501.48	1.00000e-13
502.45	1.00000e-13
503.42	1.00000e-13
504.39	1.00000e-13
505.36	1.00000e-13
506.33	1.00000e-13
507.30	5.79267e-7
508.27	1.00000e-13
509.24	8.10974e-7
510.21	1.00000e-13
511.18	1.00000e-13
512.15	1.00000e-13
513.12	8.57316e-6
514.09	1.00000e-13
515.06	1.00000e-13
516.03	1.00000e-13
517.00	1.41341e-5
517.96	1.00000e-13
518.94	1.00000e-13
519.91	1.00000e-13
520.88	1.00000e-13
521.85	8.57316e-6
522.82	1.00000e-13
523.79	1.00000e-13
524.76	1.00000e-13
525.73	1.00000e-13
526.70	1.00000e-13
527.67	1.00000e-13
528.64	1.00000e-13
529.61	1.00000e-13
530.58	1.00000e-13
531.55	1.00000e-13
532.52	5.79267e-7
533.49	1.00000e-13
534.46	1.00000e-13
535.43	1.00000e-13
536.39	1.00000e-13
537.36	1.00000e-13
538.34	1.00000e-13
539.31	1.00000e-13
540.28	1.00000e-13
541.25	1.44817e-5
542.21	1.00000e-13
543.18	1.00000e-13
544.16	1.00000e-13
545.13	1.00000e-13
546.10	1.00000e-13
547.07	1.00000e-13
548.04	1.00000e-13
549.01	1.00000e-13
549.97	1.00000e-13
550.95	1.00000e-13
551.92	1.00000e-13
552.88	1.00000e-13
553.85	1.00000e-13
554.82	1.00000e-13
555.80	1.00000e-13
556.76	1.00000e-13
557.74	1.00000e-13
558.71	1.00000e-13
559.68	1.00000e-13
560.64	1.00000e-13
561.62	1.00000e-13
562.59	1.00000e-13
563.55	1.00000e-13
564.52	1.00000e-13
565.49	1.00000e-13
566.47	1.00000e-13
567.43	1.00000e-13
568.40	1.00000e-13
569.38	1.00000e-13
570.35	1.00000e-13
571.31	1.00000e-13
572.28	1.00000e-13
573.26	1.00000e-13
574.23	1.00000e-13
575.20	1.00000e-13
576.17	1.00000e-13
577.13	1.00000e-13
578.11	1.00000e-13
579.07	1.00000e-13
580.04	1.00000e-13
581.01	1.00000e-13
581.99	1.00000e-13
582.95	1.00000e-13
583.92	1.00000e-13
584.90	1.00000e-13
585.86	1.00000e-13
586.83	4.98170e-6
587.80	2.27073e-5
588.77	2.31707e-7
589.75	1.00000e-13
590.72	1.00000e-13
591.69	1.00000e-13
592.66	1.00000e-13
593.63	1.00000e-13
594.60	1.00000e-13
595.56	4.98170e-6
596.54	1.00000e-13
597.50	1.00000e-13
598.48	1.00000e-13
599.44	1.00000e-13
600.41	1.00000e-13
601.38	1.15853e-7
602.35	1.00000e-13
603.32	3.10487e-5
604.29	1.00000e-13
605.27	1.00000e-13
606.24	1.00000e-13
607.20	1.00000e-13
608.17	1.00000e-13
609.14	1.00000e-13
610.12	1.00000e-13
611.09	1.00000e-13
612.06	1.00000e-13
613.03	1.00000e-13
614.00	1.00000e-13
614.97	1.00000e-13
615.94	1.00000e-13
616.90	1.00000e-13
617.87	1.00000e-13
618.85	1.00000e-13
619.81	1.15853e-5
620.78	1.00000e-13
621.75	1.00000e-13
622.72	1.00000e-13
623.69	1.00000e-13
624.66	1.00000e-13
625.64	1.00000e-13
626.60	1.45975e-5
627.57	1.00000e-13
628.55	1.00000e-13
629.52	1.00000e-13
630.48	1.00000e-13
631.46	1.00000e-13
632.42	1.00000e-13
633.39	1.00000e-13
634.36	1.00000e-13
635.33	1.00000e-13
636.30	1.00000e-13
637.27	1.00000e-13
638.25	1.00000e-13
639.21	1.00000e-13
640.18	7.41462e-6
641.16	1.00000e-13
642.12	1.00000e-13
643.09	1.00000e-13
644.06	1.00000e-13
645.03	1.00000e-13
646.01	1.00000e-13
646.97	1.00000e-13
647.94	1.00000e-13
648.91	1.00000e-13
649.89	1.00000e-13
650.86	1.00000e-13
651.82	1.00000e-13
652.79	1.00000e-13
653.76	7.53048e-6
654.73	1.00000e-13
655.70	2.51402e-5
656.67	1.00000e-13
657.64	1.00000e-13
658.61	1.00000e-13
659.58	3.47560e-6
660.55	1.00000e-13
661.53	4.63414e-7
662.49	1.00000e-13
663.46	1.00000e-13
664.43	5.21341e-6
665.40	1.00000e-13
666.37	9.26828e-6
667.34	4.05487e-6
668.31	2.54878e-6
669.28	1.00000e-13
670.25	1.00000e-13
671.22	1.00000e-13
672.19	1.00000e-13
673.16	1.00000e-13
674.13	1.00000e-13
675.10	1.00000e-13
676.07	1.00000e-13
677.04	1.00000e-13
678.01	1.00000e-13
678.98	1.00000e-13
679.95	1.00000e-13
680.92	1.00000e-13
681.89	1.00000e-13
682.86	1.00000e-13
683.83	1.00000e-13
684.80	1.00000e-13
685.77	1.00000e-13
686.74	1.00000e-13
687.71	3.47560e-6
688.68	1.00000e-13
689.65	1.00000e-13
690.62	1.00000e-13
691.59	1.00000e-13
692.56	1.00000e-13
693.53	1.00000e-13
694.50	1.00000e-13
695.47	1.00000e-13
696.44	1.00000e-13
697.41	1.00000e-13
698.38	1.96951e-6
699.35	1.00000e-13
700.32	1.00000e-13
701.29	1.07744e-5
702.26	1.00000e-13
703.23	1.00000e-13
704.20	5.09755e-6
705.17	1.00000e-13
706.14	1.00000e-13
707.11	1.00000e-13
708.08	1.00000e-13
709.05	1.00000e-13
710.02	1.00000e-13
710.99	1.00000e-13
711.96	9.26828e-6
712.93	1.00000e-13
713.90	1.00000e-13
714.87	1.00000e-13
715.84	1.00000e-13
716.81	1.00000e-13
717.78	1.00000e-13
718.75	1.00000e-13
719.72	9.38413e-6
720.69	1.00000e-13
721.66	1.00000e-13
722.63	1.00000e-13
723.60	1.00000e-13
724.57	1.00000e-13
725.54	1.00000e-13
726.51	1.00000e-13
727.48	1.83048e-5
728.45	1.00000e-13
729.42	1.00000e-13
730.39	1.00000e-13
731.36	1.56402e-5
732.33	1.00000e-13
733.30	1.00000e-13
734.27	1.00000e-13
735.24	9.26828e-6
736.21	1.00000e-13
737.18	1.00000e-13
738.15	1.00000e-13
739.12	1.00000e-13
740.09	1.00000e-13
741.06	1.00000e-13
742.03	1.00000e-13
743.00	1.00000e-13
743.97	1.00000e-13
744.94	1.00000e-13
745.91	1.00000e-13
746.88	1.11219e-5
747.85	1.00000e-13
748.82	1.00000e-13
749.79	1.00000e-13
750.76	1.00000e-13
751.73	1.00000e-13
752.70	1.00000e-13
753.67	1.00000e-13
754.64	1.65670e-5
755.61	1.00000e-13
756.58	1.00000e-13
757.55	1.00000e-13
758.52	1.00000e-13
759.49	1.00000e-13
760.46	1.00000e-13
761.43	1.00000e-13
762.40	1.00000e-13
763.37	1.00000e-13
764.34	1.00000e-13
765.31	1.00000e-13
766.28	1.00000e-13
767.25	1.00000e-13
768.22	1.00000e-13
769.19	1.00000e-13
770.16	1.00000e-13
771.13	1.00000e-13
772.10	1.00000e-13
773.07	1.00000e-13
774.04	5.79267e-6
775.01	1.00000e-13
775.98	1.00000e-13
776.95	1.00000e-13
777.92	1.00000e-13
778.89	1.00000e-13
779.86	1.00000e-13
780.83	1.00000e-13
781.80	1.00000e-13
782.77	5.44511e-6
783.74	1.00000e-13
784.71	1.00000e-13
785.68	1.00000e-13
786.65	6.48779e-6
787.62	1.00000e-13
788.59	1.00000e-13
789.56	1.00000e-13
790.53	1.00000e-13
791.50	1.00000e-13
792.47	1.00000e-13
793.44	8.10974e-7
794.41	1.00000e-13
795.38	2.52561e-5
796.35	1.00000e-13
797.32	1.00000e-13
798.29	1.00000e-13
799.26	1.00000e-13
800.23	3.24390e-6
801.20	1.00000e-13
802.17	1.00000e-13
803.14	1.23963e-5
804.11	1.00000e-13
805.08	1.00000e-13
806.05	1.00000e-13
807.02	1.00000e-13
807.99	1.00000e-13
808.96	1.00000e-13
809.93	1.00000e-13
810.90	1.00000e-13
811.87	1.00000e-13
812.84	1.00000e-13
813.81	1.00000e-13
814.78	1.00000e-13
815.75	1.00000e-13
816.72	1.00000e-13
817.69	1.00000e-13
818.66	1.00000e-13
819.63	1.00000e-13
820.60	1.00000e-13
821.57	2.54878e-5
822.54	1.00000e-13
823.51	1.00000e-13
824.48	1.00000e-13
825.45	1.00000e-13
826.42	1.00000e-13
827.39	1.00000e-13
828.36	1.00000e-13
829.33	1.00000e-13
830.30	1.00000e-13
831.27	4.63414e-6
832.24	1.00000e-13
833.21	1.00000e-13
834.18	1.00000e-13
835.15	1.00000e-13
836.12	1.00000e-13
837.09	1.36707e-5
838.06	8.10974e-6
839.03	2.31707e-6
840.00	7.64633e-6
840.97	1.00000e-13
841.94	1.00000e-13
842.91	1.00000e-13
843.88	1.00000e-13
844.85	1.00000e-13
845.82	1.59878e-5
846.79	1.00000e-13
847.76	1.00000e-13
848.73	1.00000e-13
849.70	1.00000e-13
850.67	1.00000e-13
851.64	1.00000e-13
852.61	1.00000e-13
853.58	1.00000e-13
854.55	1.00000e-13
855.52	1.00000e-13
856.49	1.04268e-6
857.46	1.00000e-13
858.43	1.00000e-13
859.40	1.00000e-13
860.37	1.00000e-13
861.34	1.00000e-13
862.31	1.00000e-13
863.28	1.00000e-13
864.25	1.00000e-13
865.22	5.09755e-6
866.19	1.00000e-13
867.16	1.00000e-13
868.13	1.49451e-5
869.10	1.00000e-13
870.07	1.00000e-13
871.04	1.00000e-13
872.01	1.00000e-13
872.98	1.00000e-13
873.95	1.00000e-13
874.92	2.60670e-5
875.89	1.00000e-13
876.86	1.00000e-13
877.83	2.08536e-6
878.80	1.00000e-13
879.77	1.00000e-13
880.74	1.62195e-6
881.71	1.00000e-13
882.68	1.00000e-13
883.65	1.00000e-13
884.62	1.00000e-13
885.59	9.15242e-6
886.56	1.00000e-13
887.53	1.00000e-13
888.50	1.00000e-13
889.47	1.00000e-13
890.44	1.00000e-13
891.41	2.72256e-5
892.38	1.00000e-13
893.35	1.00000e-13
894.32	1.00000e-13
895.29	1.00000e-13
896.26	1.00000e-13
897.23	1.00000e-13
898.20	1.00000e-13
899.17	1.00000e-13
900.14	1.00000e-13
901.11	1.00000e-13
902.08	1.00000e-13
903.05	1.00000e-13
904.02	1.00000e-13
904.99	1.00000e-13
905.96	1.00000e-13
906.93	1.00000e-13
907.90	1.00000e-13
908.87	1.00000e-13
909.84	1.00000e-13
910.81	1.00000e-13
911.78	1.00000e-13
912.75	1.00000e-13
913.72	1.00000e-13
914.69	1.80731e-5
915.66	1.00000e-13
916.63	1.00000e-13
917.60	1.00000e-13
918.57	1.00000e-13
919.54	1.00000e-13
920.51	1.00000e-13
921.48	1.00000e-13
922.45	1.00000e-13
923.42	1.00000e-13
924.39	1.00000e-13
925.36	1.00000e-13
926.33	1.17012e-5
927.29	1.00000e-13
928.27	1.00000e-13
929.24	1.00000e-13
930.21	1.34390e-5
931.18	1.00000e-13
932.15	1.00000e-13
933.12	1.00000e-13
934.09	1.00000e-13
935.06	1.00000e-13
936.03	1.00000e-13
937.00	1.00000e-13
937.97	1.00000e-13
938.93	1.00000e-13
939.91	1.00000e-13
940.88	1.00000e-13
941.85	1.00000e-13
942.81	1.00000e-13
943.79	1.00000e-13
944.76	1.00000e-13
945.73	1.00000e-13
946.69	1.00000e-13
947.67	1.00000e-13
948.64	1.00000e-13
949.60	1.00000e-13
950.57	3.62621e-5
951.55	1.00000e-13
952.52	6.95121e-7
953.49	1.00000e-13
954.46	1.00000e-13
955.43	1.00000e-13
956.39	1.00000e-13
957.36	1.00000e-13
958.33	1.00000e-13
959.30	1.00000e-13
960.28	1.00000e-13
961.24	1.00000e-13
962.21	1.00000e-13
963.18	1.00000e-13
964.15	1.00000e-13
965.12	1.00000e-13
966.09	1.00000e-13
967.07	1.00000e-13
968.03	6.25609e-6
969.01	1.56402e-5
969.98	1.00000e-13
970.94	1.00000e-13
971.91	1.00000e-13
972.88	1.00000e-13
973.86	1.00000e-13
974.82	1.00000e-13
975.80	1.00000e-13
976.77	1.00000e-13
977.74	1.00000e-13
978.71	1.00000e-13
979.67	1.00000e-13
980.65	7.76218e-6
981.61	1.00000e-13
982.59	1.00000e-13
983.56	1.00000e-13
984.53	1.00000e-13
985.50	1.54085e-5
986.46	1.00000e-13
987.43	1.00000e-13
988.41	1.00000e-13
989.37	1.00000e-13
990.35	1.00000e-13
991.31	1.00000e-13
992.29	1.00000e-13
993.26	1.00000e-13
994.23	1.00000e-13
995.19	1.00000e-13
996.17	1.00000e-13
997.14	1.00000e-13
998.10	1.00000e-13
999.08	1.00000e-13
1000.04	1.00000e-13
1001.01	1.00000e-13
1001.98	1.00000e-13
1002.95	1.00000e-13
1003.93	1.00000e-13
1004.89	1.00000e-13
1005.86	1.00000e-13
1006.83	1.00000e-13
1007.80	1.00000e-13
1008.77	1.00000e-13
1009.74	1.00000e-13
1010.71	1.00000e-13
1011.68	1.00000e-13
1012.65	1.00000e-13
1013.62	1.00000e-13
1014.59	1.00000e-13
1015.57	1.00000e-13
1016.53	1.00000e-13
1017.50	1.00000e-13
1018.47	1.00000e-13
1019.44	1.00000e-13
1020.42	1.00000e-13
1021.39	1.00000e-13
1022.35	1.00000e-13
1023.32	1.00000e-13
1024.29	1.00000e-13
1025.26	1.00000e-13
1026.23	1.00000e-13
1027.20	1.00000e-13
1028.17	1.00000e-13
1029.14	1.00000e-13
1030.11	1.00000e-13
1031.08	1.00000e-13
1032.05	1.00000e-13
1033.02	4.63414e-7
1033.99	1.00000e-13
1034.96	1.00000e-13
1035.93	1.00000e-13
1036.90	1.00000e-13
1037.87	1.00000e-13
1038.84	1.00000e-13
1039.81	1.00000e-13
1040.78	1.00000e-13
1041.75	1.00000e-13
1042.72	1.00000e-13
1043.69	1.00000e-13
1044.66	1.00000e-13
1045.63	1.00000e-13
1046.60	1.00000e-13
1047.57	1.00000e-13
1048.54	1.00000e-13
1049.51	1.00000e-13
1050.48	1.00000e-13
1051.45	1.00000e-13
1052.42	1.00000e-13
1053.39	1.00000e-13
1054.36	1.00000e-13
1055.33	1.00000e-13
1056.30	1.00000e-13
1057.27	2.78048e-6
1058.24	1.00000e-13
1059.21	1.00000e-13
1060.18	1.00000e-13
1061.15	1.00000e-13
1062.12	1.00000e-13
1063.09	1.00000e-13
1064.06	1.00000e-13
1065.03	1.00000e-13
1066.00	5.79267e-7
1066.97	1.00000e-13
1067.94	1.00000e-13
1068.91	1.00000e-13
1069.88	1.00000e-13
1070.85	1.00000e-13
1071.82	1.00000e-13
1072.79	1.00000e-13
1073.76	1.00000e-13
1074.73	1.00000e-13
1075.70	1.00000e-13
1076.67	1.00000e-13
1077.64	1.00000e-13
1078.61	1.00000e-13
1079.58	3.82316e-6
1080.55	1.00000e-13
1081.52	1.00000e-13
1082.49	1.00000e-13
1083.46	1.00000e-13
1084.43	5.79267e-7
1085.40	2.08536e-6
1086.37	1.00000e-13
1087.34	1.00000e-13
1088.31	1.00000e-13
1089.28	4.63414e-7
1090.25	5.05121e-5
1091.22	1.00000e-13
1092.19	1.00000e-13
1093.16	1.00000e-13
1094.13	1.00000e-13
1095.10	1.00000e-13
1096.07	1.00000e-13
1097.04	1.00000e-13
1098.01	1.00000e-13
1098.98	1.00000e-13
1099.95	1.00000e-13
1100.92	1.00000e-13
1101.89	7.29877e-6
1102.86	1.00000e-13
1103.83	1.00000e-13
1104.80	1.00000e-13
1105.77	1.00000e-13
1106.74	1.00000e-13
1107.71	1.00000e-13
1108.68	1.00000e-13
1109.65	1.00000e-13
1110.62	1.00000e-13
1111.59	1.00000e-13
1112.56	1.00000e-13
1113.53	1.00000e-13
1114.50	1.00000e-13
1115.47	1.00000e-13
1116.44	1.00000e-13
1117.41	1.00000e-13
1118.38	1.00000e-13
1119.35	1.00000e-13
1120.32	1.00000e-13
1121.29	1.00000e-13
1122.26	1.00000e-13
1123.23	1.00000e-13
1124.20	1.00000e-13
1125.17	1.00000e-13
1126.14	1.00000e-13
1127.11	6.71950e-6
1128.08	1.00000e-13
1129.05	1.00000e-13
1130.02	1.00000e-13
1130.99	1.00000e-13
1131.96	9.26828e-7
1132.93	1.00000e-13
1133.90	1.00000e-13
1134.87	1.00000e-13
1135.84	1.00000e-13
1136.81	1.00000e-13
1137.78	1.00000e-13
1138.75	1.00000e-13
1139.72	1.00000e-13
1140.69	1.00000e-13
1141.66	1.00000e-13
1142.63	1.00000e-13
1143.60	1.00000e-13
1144.57	1.00000e-13
1145.54	1.00000e-13
1146.51	1.00000e-13
1147.48	1.00000e-13
1148.45	1.00000e-13
1149.42	1.00000e-13
1150.39	1.00000e-13
1151.36	1.00000e-13
1152.33	1.00000e-13
1153.30	1.00000e-13
1154.27	1.00000e-13
1155.24	1.00000e-13
1156.21	1.00000e-13
1157.18	1.00000e-13
1158.15	1.00000e-13
1159.12	1.19329e-5
1160.09	1.00000e-13
1161.06	1.00000e-13
1162.03	1.00000e-13
1163.00	1.00000e-13
1163.97	1.00000e-13
1164.94	1.00000e-13
1165.91	1.00000e-13
1166.88	1.00000e-13
1167.85	1.00000e-13
1168.82	1.00000e-13
1169.79	1.00000e-13
1170.76	1.00000e-13
1171.73	1.00000e-13
1172.70	1.00000e-13
1173.67	1.00000e-13
1174.64	3.01219e-6
1175.61	1.00000e-13
1176.58	1.00000e-13
1177.55	1.00000e-13
1178.52	1.00000e-13
1179.49	1.00000e-13
1180.46	1.00000e-13
1181.43	1.00000e-13
1182.40	1.00000e-13
1183.37	1.00000e-13
1184.34	1.00000e-13
1185.31	1.00000e-13
1186.28	1.00000e-13
1187.25	1.00000e-13
1188.22	1.04268e-6
1189.19	1.00000e-13
1190.16	1.00000e-13
1191.13	1.00000e-13
1192.10	1.00000e-13
1193.07	1.00000e-13
1194.04	6.37194e-6
1195.01	3.47560e-7
1195.98	1.00000e-13
1196.95	1.00000e-13
1197.92	1.00000e-13
1198.89	1.00000e-13
1199.86	1.00000e-13
1200.83	1.00000e-13
1201.80	1.00000e-13
1202.77	1.00000e-13
1203.74	1.00000e-13
1204.71	1.00000e-13
1205.68	1.00000e-13
1206.65	1.00000e-13
1207.62	1.00000e-13
1208.59	1.00000e-13
1209.56	1.00000e-13
1210.53	1.00000e-13
1211.50	1.00000e-13
1212.47	1.00000e-13
1213.44	1.00000e-13
1214.41	1.00000e-13
1215.38	1.00000e-13
1216.35	1.00000e-13
1217.32	1.00000e-13
1218.29	1.00000e-13
1219.26	1.00000e-13
1220.23	2.78048e-6
1221.20	1.00000e-13
1222.17	1.00000e-13
1223.14	1.00000e-13
1224.11	1.00000e-13
1225.08	1.00000e-13
1226.05	1.00000e-13
1227.02	1.00000e-13
1227.99	1.00000e-13
1228.96	1.00000e-13
1229.93	1.00000e-13
1230.90	1.00000e-13
1231.87	1.00000e-13
1232.84	1.00000e-13
1233.81	1.00000e-13
1234.78	1.00000e-13
1235.75	1.00000e-13
1236.72	1.00000e-13
1237.69	1.00000e-13
1238.66	1.00000e-13
1239.63	1.00000e-13
1240.60	1.00000e-13
1241.57	1.00000e-13
1242.54	1.00000e-13
1243.51	1.00000e-13
1244.48	1.00000e-13
1245.45	8.34145e-6
1246.42	1.00000e-13
1247.39	1.00000e-13
1248.36	1.00000e-13
1249.33	1.00000e-13
1250.30	1.00000e-13
1251.27	5.79267e-7
1252.24	1.00000e-13
1253.21	1.00000e-13
1254.18	1.00000e-13
1255.15	1.00000e-13
1256.12	1.00000e-13
1257.09	1.00000e-13
1258.06	1.00000e-13
1259.03	1.00000e-13
1260.00	1.00000e-13
1260.97	1.00000e-13
1261.94	1.18171e-5
1262.91	1.00000e-13
1263.88	1.00000e-13
1264.85	1.93475e-5
1265.82	1.00000e-13
1266.79	1.00000e-13
1267.76	1.00000e-13
1268.73	9.76645e-5
1269.70	1.03921e-4
1270.67	2.43408e-4
1271.64	8.05993e-4
1272.61	1.87729e-3
1273.58	3.54384e-3
1274.55	7.40547e-3
1275.52	0.0147383
1276.49	0.0274902
1277.46	0.0458358
1278.43	0.0677419
1279.40	0.0796255
1280.37	0.0690223
1281.34	0.0370360
1282.31	0.0108992
1283.28	4.28855e-3
1284.25	1.88806e-3
1285.22	1.01024e-3
1286.19	5.28755e-4
1287.16	3.39335e-4
1288.13	2.93804e-4
1289.09	2.23481e-4
1290.06	1.25469e-4
1291.03	8.12133e-5
1292.01	5.24816e-5
1292.97	8.85121e-5
1293.94	4.21707e-5
1294.92	3.83475e-5
1295.89	2.96585e-5
1296.86	2.43292e-5
1297.82	1.70305e-5
1298.80	1.00000e-13
1299.77	1.00000e-13
1300.73	2.31707e-7
1301.70	2.29390e-5
1302.68	4.98170e-6
1303.64	1.00000e-13
1304.62	1.00000e-13
1305.58	1.00000e-13
1306.55	1.00000e-13
1307.53	1.00000e-13
1308.50	1.00000e-13
1309.46	1.00000e-13
1310.44	1.00000e-13
1311.40	1.00000e-13
1312.38	1.00000e-13
1313.35	1.00000e-13
1314.32	1.00000e-13