File: data/TGA/005d-B/P2934-S TG.txt
Filename	P2934-S
Instrument name
Operator	Gwenael
rundate	2025-01-13
Sample name	P2934-S
[step]
Step 1
Time	Temperature	Weight	Weight	Deriv. Weight
min	°C	mg	%	% / °C
0.01	26.44	8.860	99.987	-6.78317e-5
0.98	27.72	8.875	100.160	-2.00600e-4
2.03	29.64	8.877	100.178	-4.15483e-4
3.08	33.18	8.878	100.193	-6.68741e-4
4.13	37.98	8.878	100.193	-9.25499e-4
5.18	43.31	8.878	100.195	-1.16955e-3
6.23	48.63	8.878	100.188	-1.39310e-3
7.28	53.75	8.877	100.184	-1.59584e-3
8.33	58.72	8.877	100.185	-1.78035e-3
9.38	63.64	8.877	100.180	-1.95138e-3
10.43	68.62	8.877	100.175	-2.09994e-3
11.48	73.73	8.876	100.170	-2.22142e-3
12.53	78.94	8.876	100.166	-2.32319e-3
13.58	84.23	8.875	100.162	-2.41498e-3
14.63	89.56	8.875	100.157	-2.50116e-3
15.68	94.91	8.874	100.142	-2.82707e-3
16.73	99.43	8.871	100.111	-3.09799e-3
17.78	102.04	8.868	100.083	-3.33010e-3
18.83	102.99	8.866	100.056	-3.51264e-3
19.88	102.94	8.864	100.030	-3.63439e-3
20.93	102.42	8.862	100.012	-3.70727e-3
21.98	101.73	8.861	99.999	-3.72454e-3
23.03	101.04	8.859	99.980	-3.70221e-3
24.08	100.43	8.858	99.969	-3.64948e-3
25.13	100.02	8.858	99.965	-3.57736e-3
26.18	101.06	8.859	99.974	-3.50119e-3
27.23	104.43	8.858	99.971	-3.42727e-3
28.28	109.16	8.858	99.968	-3.35134e-3
29.33	114.24	8.857	99.957	-3.28421e-3
30.38	119.25	8.857	99.950	-3.22800e-3
31.43	124.21	8.856	99.940	-3.19055e-3
32.47	129.23	8.855	99.931	-3.17910e-3
33.53	134.36	8.855	99.929	-3.18675e-3
34.58	139.57	8.854	99.921	-3.20094e-3
35.63	144.85	8.853	99.908	-3.22874e-3
36.68	150.17	8.852	99.895	-3.26147e-3
37.73	155.49	8.850	99.875	-3.30379e-3
38.78	160.80	8.848	99.852	-3.35407e-3
39.83	166.09	8.846	99.829	-3.41318e-3
40.88	171.35	8.844	99.804	-3.47139e-3
41.93	176.61	8.841	99.776	-3.52061e-3
42.98	181.87	8.839	99.749	-3.55223e-3
44.03	187.14	8.836	99.723	-3.57365e-3
45.08	192.40	8.834	99.695	-3.59276e-3
46.13	197.65	8.832	99.674	-3.60541e-3
47.18	202.90	8.830	99.650	-3.61575e-3
48.23	208.15	8.828	99.630	-3.62427e-3
49.28	213.40	8.827	99.619	-3.63489e-3
50.33	218.65	8.825	99.599	-3.65308e-3
51.38	223.90	8.824	99.583	-3.69601e-3
52.43	229.16	8.823	99.569	-3.77184e-3
53.48	234.42	8.822	99.559	-3.88906e-3
54.53	239.69	8.821	99.546	-4.05182e-3
55.58	244.95	8.820	99.538	-4.26038e-3
56.63	250.20	8.818	99.519	-4.51623e-3
57.68	255.47	8.817	99.508	-4.82225e-3
58.73	260.73	8.816	99.490	-5.17361e-3
59.78	265.98	8.814	99.471	-5.58134e-3
60.83	271.24	8.812	99.451	-6.05124e-3
61.88	276.50	8.810	99.425	-6.58537e-3
62.93	281.76	8.807	99.395	-7.19692e-3
63.98	287.02	8.805	99.365	-7.88766e-3
65.03	292.29	8.801	99.328	-8.67583e-3
66.07	297.17	8.797	99.275	-9.57671e-3
67.13	299.97	8.793	99.234	-0.0106031
68.18	301.30	8.789	99.183	-0.0117876
69.23	301.87	8.784	99.131	-0.0131527
70.28	301.82	8.780	99.085	-0.0147374
71.33	301.39	8.775	99.032	-0.0165921
72.38	300.83	8.771	98.989	-0.0188203
73.43	300.30	8.768	98.946	-0.0215060
74.48	299.92	8.763	98.900	-0.0248331
75.53	299.71	8.759	98.854	-0.0290352
76.58	299.65	8.756	98.818	-0.0344313
77.63	299.71	8.753	98.778	-0.0413427
78.68	299.81	8.749	98.736	-0.0487909
79.73	299.92	8.745	98.692	-0.0431684
80.78	300.01	8.741	98.648	0.0858723
81.83	300.06	8.738	98.609	0.323475
82.88	300.07	8.734	98.567	0.346427
83.93	300.07	8.730	98.527	0.331370
84.98	300.05	8.727	98.483	0.331402
86.03	300.03	8.723	98.441	0.315889
87.08	300.01	8.719	98.400	0.0877789
88.13	299.99	8.716	98.359	-0.909220
89.18	299.99	8.712	98.320	-1.72298
90.23	299.99	8.708	98.277	-1.69462
91.28	299.99	8.704	98.230	-1.61680
92.33	300.00	8.701	98.193	-1.50194
93.38	300.00	8.697	98.155	-0.655244
94.43	300.00	8.694	98.116	3.34368
95.48	300.01	8.690	98.072	8.09310
96.53	300.01	8.687	98.031	8.43672
97.58	300.01	8.683	97.990	8.17787
98.63	300.00	8.679	97.952	8.50260
99.68	300.00	8.676	97.911	8.68239
100.73	300.00	8.672	97.867	3.77273
101.78	300.00	8.669	97.831	-12.6000
102.83	300.00	8.665	97.790	-19.7118
103.88	300.00	8.662	97.750	-14.2249
104.93	300.00	8.658	97.710	0.295092
105.98	300.00	8.655	97.673	39.5628
107.03	300.00	8.651	97.629	77.4662
108.08	300.00	8.648	97.593	95.4511
109.13	300.00	8.644	97.552	98.3237
110.18	300.00	8.641	97.512	91.4816
111.23	300.00	8.637	97.472	78.6534
112.28	300.00	8.633	97.432	61.0333
113.33	300.00	8.630	97.390	26.9061
114.38	300.00	8.626	97.353	-24.7104
115.43	300.00	8.623	97.313	-46.8313
116.48	300.00	8.619	97.271	-55.2816
117.53	300.00	8.616	97.234	-61.4545
118.58	300.00	8.612	97.193	-54.5310
119.63	300.00	8.609	97.153	-53.9995
120.68	300.00	8.605	97.113	-70.1065
121.73	300.00	8.601	97.066	-84.0160
122.78	300.00	8.598	97.033	-83.3127
123.83	300.00	8.595	96.998	-97.6439
124.88	300.00	8.591	96.956	-107.591
125.93	300.00	8.587	96.913	-119.984
126.98	300.00	8.584	96.876	-125.870
128.02	300.00	8.581	96.842	-119.685
129.08	300.00	8.578	96.803	-111.376
130.13	300.00	8.574	96.764	-96.1689
131.18	300.00	8.571	96.724	-91.5472
132.23	300.00	8.567	96.686	-88.3723
133.27	300.00	8.564	96.648	-95.6737
134.33	300.00	8.560	96.609	-96.6252
135.38	300.00	8.557	96.571	-93.1226
136.43	300.00	8.554	96.533	-79.2700
137.48	300.00	8.550	96.493	-32.6462
138.53	300.00	8.547	96.460	33.8751
139.58	300.00	8.544	96.420	68.8703
140.63	300.00	8.541	96.386	82.0193
141.68	300.00	8.537	96.345	78.8478
142.73	300.00	8.534	96.308	76.2034
143.78	300.00	8.531	96.276	87.8458
144.83	300.00	8.527	96.234	89.9833
145.88	300.00	8.524	96.194	85.0116
146.93	300.00	8.521	96.162	77.7884
147.98	300.00	8.518	96.128	68.3974
149.03	300.00	8.515	96.091	62.7904
150.08	300.00	8.511	96.053	58.0415
151.13	300.00	8.508	96.016	33.2234
152.18	300.00	8.505	95.978	19.5867
153.23	300.00	8.502	95.950	5.99885
154.28	300.00	8.498	95.907	-8.75843
155.33	300.00	8.495	95.874	-5.26287
156.38	300.00	8.492	95.838	-3.94120
157.43	300.00	8.489	95.805	4.71272
158.48	300.00	8.486	95.769	2.85650
159.53	300.00	8.483	95.733	-4.15389
160.58	300.00	8.480	95.699	-13.7869
161.63	300.00	8.477	95.664	-31.1410
162.68	300.00	8.474	95.629	-54.6701
163.73	300.00	8.471	95.594	-88.5387
164.78	300.00	8.468	95.562	-109.165
165.83	300.00	8.465	95.526	-126.154
166.88	300.00	8.461	95.488	-133.771
167.93	300.00	8.458	95.450	-130.502
168.98	300.00	8.456	95.427	-107.238
170.03	300.00	8.452	95.385	-66.9781
171.08	300.00	8.449	95.355	-38.9577
172.13	300.00	8.446	95.320	-19.6045
173.18	300.00	8.443	95.287	-8.35328
174.23	300.00	8.440	95.245	19.8837
175.28	300.00	8.437	95.220	35.4790
176.33	300.00	8.435	95.187	39.2646
177.38	300.00	8.432	95.153	47.9734
178.43	300.00	8.429	95.125	54.5835
179.48	300.00	8.426	95.090	63.1442
180.53	300.00	8.423	95.058	68.7831
181.58	300.00	8.420	95.024	71.9384
182.63	300.00	8.417	94.992	74.6205
183.68	300.00	8.414	94.961	72.7364
184.73	300.00	8.412	94.929	75.9178
185.78	300.00	8.409	94.899	82.8124
186.83	300.00	8.406	94.866	85.3276
187.88	300.00	8.404	94.838	85.9746
188.93	300.00	8.401	94.805	88.6800
189.98	300.00	8.398	94.776	87.6976
191.03	300.00	8.395	94.743	86.0024
192.08	300.00	8.393	94.713	84.7842
193.13	300.00	8.390	94.681	80.0130
194.18	300.00	8.387	94.650	72.6751
195.23	300.00	8.384	94.621	57.8217
196.28	300.00	8.382	94.591	23.9080
197.33	300.00	8.379	94.564	-6.73886
198.38	300.00	8.376	94.528	-12.3782
199.43	300.00	8.373	94.497	5.39445
200.48	300.00	8.370	94.464	32.9246
201.53	300.00	8.368	94.436	55.6787
202.58	300.00	8.366	94.410	62.0032
203.63	300.00	8.362	94.374	16.5492
204.68	300.00	8.360	94.345	-8.47484
205.73	300.00	8.357	94.313	-30.0019
206.78	300.00	8.354	94.283	-42.1509
207.83	300.00	8.352	94.251	-44.1289
208.88	300.00	8.349	94.223	-39.6165
209.93	300.00	8.346	94.190	-28.4498
210.98	300.00	8.344	94.162	-14.8742
212.03	300.00	8.341	94.131	-13.0487
213.08	300.00	8.338	94.102	-9.78049
214.13	300.00	8.336	94.071	-14.6105
215.18	300.00	8.333	94.040	-14.0474
216.23	300.00	8.331	94.013	2.31006
217.28	300.00	8.328	93.982	-0.566107
218.33	300.00	8.325	93.946	9.18261
219.38	300.00	8.323	93.923	8.84516
220.43	300.00	8.320	93.896	-2.70425
221.48	300.00	8.317	93.865	-5.09896
222.53	300.00	8.314	93.831	-15.8462
223.58	300.00	8.312	93.804	-23.5060
224.63	300.00	8.310	93.780	-24.3821
225.68	300.00	8.307	93.748	-35.0161
226.73	300.00	8.304	93.718	-45.8051
227.78	300.00	8.302	93.695	-41.6790
228.83	300.00	8.299	93.661	-37.7687
229.88	300.00	8.297	93.633	-38.3261
230.93	300.00	8.294	93.603	-32.2034
231.98	300.00	8.292	93.577	-13.9539
233.03	300.00	8.289	93.548	4.15900
234.08	300.00	8.287	93.518	-24.2865
235.13	300.00	8.284	93.489	-29.1057
236.18	300.00	8.282	93.465	-15.0627
237.23	300.00	8.279	93.434	0.537282
238.28	300.00	8.277	93.406	0.735479
239.33	300.00	8.274	93.379	4.59251
240.38	300.00	8.272	93.352	6.67991
241.43	300.00	8.269	93.322	0.617858
242.48	300.00	8.267	93.300	8.12860
243.53	300.00	8.265	93.275	18.3060
244.58	300.00	8.262	93.243	18.1257
245.63	300.00	8.260	93.215	19.8816
246.68	300.00	8.257	93.188	29.4414
247.73	300.00	8.255	93.161	4.55119
248.78	300.00	8.253	93.135	5.41914
249.83	300.00	8.250	93.106	3.13594
250.88	300.00	8.248	93.080	0.286099
251.93	300.00	8.247	93.067	0.216085
252.98	300.00	8.243	93.029	-10.5109
254.03	300.00	8.241	93.000	-12.9661
255.08	300.00	8.238	92.974	-12.0233
256.13	300.00	8.236	92.950	-22.1832
257.17	300.00	8.234	92.922	-29.6829
258.23	300.00	8.232	92.896	-40.8512
259.28	300.00	8.229	92.872	-47.6598
260.33	300.00	8.227	92.848	-52.7793
261.38	300.00	8.225	92.819	-49.4568
262.42	300.00	8.223	92.794	-26.1521
263.48	300.00	8.220	92.770	-6.92537
264.53	300.00	8.218	92.742	-5.21863
265.58	300.00	8.216	92.717	-5.35080
266.63	300.00	8.213	92.692	-9.29539
267.67	300.00	8.211	92.668	-9.97893
268.73	300.00	8.209	92.647	-12.6133
269.78	300.00	8.207	92.619	-19.0816
270.83	300.00	8.204	92.588	-25.1030
271.88	300.00	8.203	92.573	-25.8904
272.92	300.00	8.200	92.545	-5.37235
273.98	300.00	8.198	92.522	11.5692
275.03	300.00	8.196	92.495	21.7827
276.08	300.00	8.194	92.471	24.7968
277.13	300.00	8.192	92.448	7.05920
278.18	300.00	8.190	92.423	-21.8300
279.23	300.00	8.187	92.399	-38.7897
280.28	300.00	8.185	92.375	-41.9731
281.33	300.00	8.184	92.355	-36.1655
282.38	300.00	8.181	92.330	-28.8943
283.43	300.00	8.179	92.306	-22.4012
284.48	300.00	8.177	92.283	-14.5000
285.53	300.00	8.175	92.256	-11.1181
286.58	300.00	8.173	92.235	-7.50822
287.63	300.00	8.171	92.212	-22.4183
288.68	300.00	8.168	92.185	-39.1147
289.73	300.00	8.167	92.165	-48.3959
290.78	300.00	8.165	92.145	-51.7363
291.83	300.00	8.163	92.125	-32.0902
292.88	300.00	8.161	92.097	-11.4050
293.93	300.00	8.159	92.080	19.5835
294.98	300.00	8.157	92.052	7.01463
296.03	300.00	8.155	92.037	15.5325
297.08	300.00	8.153	92.009	4.20004
298.13	300.00	8.151	91.988	-17.5704
299.18	300.00	8.149	91.966	-35.7776
300.23	300.00	8.148	91.949	-44.8915
301.28	300.00	8.145	91.923	-50.2001
302.33	300.00	8.143	91.902	-45.9898
303.38	300.00	8.141	91.880	-26.4364
304.43	300.00	8.140	91.861	-5.04608
305.48	300.00	8.138	91.840	12.4712
306.53	300.00	8.136	91.817	18.7906
307.58	300.00	8.134	91.795	17.4148
308.63	300.00	8.132	91.774	14.0617
309.68	300.00	8.130	91.751	1.99624
310.73	300.00	8.128	91.732	-1.34554
311.78	300.00	8.127	91.711	-2.20198
312.83	300.00	8.125	91.692	-3.89915
313.88	300.00	8.123	91.672	-2.88025
314.93	300.00	8.121	91.645	-0.359639
315.98	300.00	8.119	91.630	1.29615
317.03	300.00	8.117	91.607	5.92327
318.08	300.00	8.116	91.590	6.76642
319.13	300.00	8.114	91.570	-1.06443
320.18	300.00	8.112	91.548	-2.24422
321.23	300.00	8.110	91.529	-4.16579
322.28	300.00	8.109	91.510	-1.84502
323.33	300.00	8.107	91.489	3.92500
324.38	300.00	8.105	91.465	9.44951
325.43	300.00	8.103	91.448	5.48038
326.48	300.00	8.102	91.431	11.6899
327.53	300.00	8.100	91.411	14.2751
328.58	300.00	8.098	91.389	12.0987
329.63	300.00	8.096	91.369	6.64139
330.68	300.00	8.094	91.348	-10.4105
331.73	300.00	8.093	91.331	-37.1059
332.78	300.00	8.091	91.310	-37.1089
333.83	300.00	8.090	91.295	-30.6479
334.88	300.00	8.088	91.273	-26.4100
335.93	300.00	8.086	91.252	-17.6069
336.98	300.00	8.085	91.237	-8.16454
338.03	300.00	8.083	91.219	4.72297
339.08	300.00	8.081	91.197	5.83099
340.13	300.00	8.079	91.179	11.0704
341.18	300.00	8.078	91.161	21.9754
342.23	300.00	8.076	91.140	16.7187
343.28	300.00	8.074	91.119	15.0711
344.33	300.00	8.072	91.098	9.58460
345.38	300.00	8.071	91.085	7.40217
346.43	300.00	8.069	91.066	5.31488
347.48	300.00	8.068	91.046	4.56463
348.53	300.00	8.066	91.030	-3.57665
349.58	300.00	8.065	91.012	-19.2124
350.63	300.00	8.063	90.992	-23.8759
351.68	300.00	8.061	90.973	-28.9370
352.73	300.00	8.060	90.956	-33.0341
353.78	300.00	8.058	90.937	-30.7200
354.83	300.00	8.056	90.919	-24.0458
355.88	300.00	8.055	90.900	-14.6622
356.93	300.00	8.053	90.882	-8.05626
357.98	300.00	8.052	90.867	1.69438
359.03	300.00	8.050	90.843	16.4174
360.08	300.00	8.048	90.827	18.6842
361.13	300.00	8.047	90.809	4.40164
362.18	300.00	8.045	90.794	-11.4925
363.23	300.00	8.044	90.774	-13.0228
364.28	300.00	8.042	90.757	-11.3994
365.33	300.00	8.041	90.742	-14.4202
366.38	300.00	8.039	90.724	-14.8808
367.43	300.00	8.037	90.701	-10.1624
368.48	300.00	8.036	90.687	-3.59777
369.53	300.00	8.034	90.672	3.65399
370.58	300.00	8.033	90.653	14.9862
371.63	300.00	8.031	90.635	27.1101
372.68	300.00	8.029	90.616	21.8463
373.73	300.00	8.029	90.607	24.1519
374.78	300.00	8.027	90.586	17.9230
375.83	300.00	8.025	90.568	15.1093
376.88	300.00	8.024	90.550	16.4098
377.93	300.00	8.022	90.533	20.7283
378.98	300.00	8.021	90.517	19.7217
380.03	300.00	8.019	90.501	19.0816
381.08	300.00	8.018	90.484	16.2895
382.13	300.00	8.017	90.470	10.7742
383.18	300.00	8.015	90.447	5.23699
384.23	300.00	8.013	90.432	-2.69985
385.28	300.00	8.012	90.415	-10.4048
386.33	300.00	8.010	90.402	-9.35972
387.38	300.00	8.009	90.387	-7.68927
388.43	300.00	8.007	90.367	1.60241
389.48	300.00	8.006	90.352	14.6698
390.53	300.00	8.004	90.331	14.6296
391.58	300.00	8.003	90.319	8.16782
392.63	300.00	8.002	90.305	-4.50337
393.68	300.00	8.000	90.284	-6.85900
394.73	300.00	7.999	90.269	-2.37067
395.78	300.00	7.997	90.253	-1.29630
396.83	300.00	7.995	90.231	-3.96544
397.88	300.00	7.994	90.218	-4.68846
398.93	300.00	7.993	90.202	1.88141
399.98	300.00	7.991	90.186	11.7863
401.03	300.00	7.990	90.171	17.1738
402.08	300.00	7.989	90.154	11.2275
403.13	300.00	7.987	90.138	0.398803
404.18	300.00	7.986	90.122	-1.33606
405.23	300.00	7.984	90.107	-15.0444
406.28	300.00	7.983	90.088	-20.8199
407.33	300.00	7.982	90.075	-12.7734
408.38	300.00	7.980	90.060	-4.96271
409.43	300.00	7.979	90.041	-5.59773
410.48	300.00	7.977	90.026	1.73549
411.53	300.00	7.976	90.011	1.36497
412.58	300.00	7.974	89.994	-0.534312
413.63	300.00	7.973	89.982	3.82008
414.68	300.00	7.971	89.962	-2.98975
415.73	300.00	7.970	89.949	-31.3845
416.78	300.00	7.969	89.934	-37.3722
417.83	300.00	7.968	89.920	-42.3673
418.88	300.00	7.966	89.905	-42.7712
419.93	300.00	7.965	89.889	-36.6257
420.98	300.00	7.963	89.867	-15.7642
422.03	300.00	7.962	89.853	-14.0359
423.08	300.00	7.961	89.840	-9.06688
424.13	300.00	7.959	89.826	6.63802
425.18	300.00	7.958	89.810	16.8444
426.23	300.00	7.957	89.796	29.8971
427.28	300.00	7.955	89.780	31.6592
428.33	300.00	7.954	89.762	34.0845
429.38	300.00	7.953	89.749	48.5719
430.43	300.00	7.951	89.735	52.5561
431.48	300.00	7.950	89.717	54.3109
432.53	300.00	7.949	89.704	44.3614
433.58	300.00	7.947	89.691	45.6765
434.63	300.00	7.946	89.676	45.3948
435.68	300.00	7.945	89.659	41.9340
436.73	300.00	7.943	89.642	26.5352
437.78	300.00	7.942	89.633	29.6077
438.83	300.00	7.940	89.609	25.3965
439.88	300.00	7.940	89.602	23.4677
440.93	300.00	7.938	89.584	13.8856
441.98	300.00	7.937	89.569	0.889092
443.03	300.00	7.935	89.553	-12.6735
444.08	300.00	7.934	89.538	-23.8265
445.13	300.00	7.932	89.520	-31.9922
446.18	300.00	7.931	89.506	-30.2812
447.23	300.00	7.930	89.493	-30.1572
448.28	300.00	7.929	89.480	-33.8039
449.33	300.00	7.927	89.462	-44.5727
450.38	300.00	7.926	89.448	-40.1570
451.43	300.00	7.925	89.433	-29.6501
452.48	300.00	7.923	89.417	-26.7961
453.53	300.00	7.922	89.402	-16.9088
454.58	300.00	7.921	89.389	-12.9763
455.63	300.00	7.919	89.370	-5.68985
456.68	300.00	7.918	89.361	1.88942
457.73	300.00	7.917	89.346	10.9794
458.78	300.00	7.916	89.331	13.8106
459.83	300.00	7.914	89.316	5.17499
460.88	300.00	7.913	89.302	13.6029
461.93	300.00	7.911	89.284	7.66787
462.98	300.00	7.911	89.275	8.17859
464.03	300.00	7.909	89.259	5.65371
465.08	300.00	7.908	89.241	10.5531
466.13	300.00	7.906	89.227	11.0447
467.18	300.00	7.905	89.213	5.19422
468.23	300.00	7.904	89.197	0.240205
469.28	300.00	7.903	89.185	1.51850
470.33	300.00	7.901	89.168	4.95914
471.38	300.00	7.899	89.147	6.01275
472.43	300.00	7.899	89.140	5.74649
473.48	300.00	7.897	89.126	-5.95434
474.53	300.00	7.896	89.111	-15.0552
475.58	300.00	7.895	89.097	-28.8426
476.63	300.00	7.894	89.082	-21.9367
477.68	300.00	7.892	89.067	-31.8114
478.73	300.00	7.891	89.055	-23.6944
479.78	300.00	7.889	89.034	-17.2460
480.83	300.00	7.889	89.025	-13.9274
481.88	300.00	7.887	89.012	-9.16160
482.93	300.00	7.886	88.996	2.14319
483.98	300.00	7.885	88.983	5.42006
485.03	300.00	7.884	88.970	-0.420572
486.08	300.00	7.882	88.954	-1.73807
487.13	300.00	7.881	88.942	-5.49182
488.18	300.00	7.879	88.923	6.60781
489.23	300.00	7.879	88.913	-1.17457
490.28	300.00	7.877	88.896	-8.83885
491.33	300.00	7.876	88.881	-2.21461
492.38	300.00	7.874	88.866	6.62523
493.43	300.00	7.873	88.855	10.6922
494.48	300.00	7.872	88.839	12.7402
495.53	300.00	7.871	88.827	23.7938
496.58	300.00	7.870	88.811	26.3913
497.63	300.00	7.868	88.796	27.5559
498.68	300.00	7.867	88.784	28.6399
499.73	300.00	7.866	88.769	24.0379
500.78	300.00	7.864	88.753	19.0740
501.83	300.00	7.863	88.742	20.2396
502.88	300.00	7.862	88.726	17.5931
503.93	300.00	7.861	88.715	8.43271
504.98	300.00	7.860	88.699	3.77423
506.03	300.00	7.858	88.685	-6.15920
507.08	300.00	7.857	88.670	-0.149710
508.13	300.00	7.856	88.660	-1.99333
509.18	300.00	7.855	88.642	3.32884
510.23	300.00	7.853	88.627	14.7188
511.28	300.00	7.852	88.618	15.8684
512.33	300.00	7.851	88.603	12.1051
513.38	300.00	7.850	88.585	4.86474
514.43	300.00	7.849	88.574	-0.165393
515.47	300.00	7.847	88.561	-10.9602
516.53	300.00	7.846	88.546	-15.3968
517.58	300.00	7.845	88.532	-15.0769
518.63	300.00	7.844	88.518	-13.8648
519.68	300.00	7.842	88.503	-25.2817
520.72	300.00	7.841	88.489	-33.6107
521.78	300.00	7.840	88.475	-26.7903
522.83	300.00	7.838	88.460	-13.3523
523.88	300.00	7.837	88.449	-2.04761
524.93	300.00	7.836	88.435	13.7375
525.97	300.00	7.835	88.421	10.5607
527.03	300.00	7.834	88.406	28.8085
528.08	300.00	7.832	88.393	30.8137
529.13	300.00	7.831	88.379	44.7389
530.18	300.00	7.830	88.368	43.0042
531.22	300.00	7.829	88.351	41.9144
532.28	300.00	7.828	88.341	39.8777
533.33	300.00	7.827	88.329	41.3931
534.38	300.00	7.825	88.314	33.8774
535.43	300.00	7.824	88.297	33.6058
536.47	300.00	7.823	88.284	33.7263
537.53	300.00	7.822	88.274	45.0055
538.58	300.00	7.820	88.255	37.6066
539.63	300.00	7.819	88.243	40.2138
540.68	300.00	7.818	88.229	39.8466
541.72	300.00	7.817	88.217	42.5874
542.78	300.00	7.815	88.198	38.9045
543.83	300.00	7.814	88.187	24.9332
544.88	300.00	7.813	88.175	-2.67659
545.93	300.00	7.812	88.162	-12.5996
546.98	300.00	7.811	88.146	-14.8857
548.03	300.00	7.809	88.132	-13.7530
549.08	300.00	7.808	88.120	-15.8647
550.13	300.00	7.807	88.107	-11.3897
551.18	300.00	7.806	88.091	-22.1925
552.23	300.00	7.804	88.076	4.68463
553.28	300.00	7.803	88.065	18.6212
554.33	300.00	7.802	88.049	21.8835
555.38	300.00	7.801	88.036	9.44346
556.43	300.00	7.800	88.022	-13.1038
557.48	300.00	7.798	88.007	-15.2413
558.53	300.00	7.797	87.996	-25.3559
559.58	300.00	7.796	87.985	-21.4314
560.63	300.00	7.795	87.968	-23.4606
561.68	300.00	7.794	87.956	-23.9693
562.73	300.00	7.792	87.940	-16.1710
563.78	300.00	7.791	87.929	-4.63990
564.83	300.00	7.790	87.908	-6.61281
565.88	300.00	7.789	87.900	-9.14164
566.93	300.00	7.788	87.886	-4.22478
567.98	300.00	7.787	87.876	-5.69898
569.03	300.00	7.785	87.854	-5.83707
570.08	300.00	7.784	87.843	3.05519
571.13	300.00	7.782	87.827	2.04627
572.18	300.00	7.781	87.813	4.41622
573.23	300.00	7.780	87.801	8.33554
574.28	300.00	7.779	87.786	3.45324
575.33	300.00	7.778	87.774	-15.4593
576.38	300.00	7.776	87.759	-18.2306
577.43	300.00	7.775	87.749	-25.9150
578.48	300.00	7.774	87.737	-30.4969
579.53	300.00	7.773	87.719	-38.1480
580.58	300.00	7.772	87.705	-40.1165
581.63	300.00	7.770	87.691	-43.6120
582.68	300.00	7.769	87.679	-44.1012
583.73	300.00	7.768	87.665	-45.1556
584.78	300.00	7.767	87.649	-46.7328
585.83	300.00	7.765	87.635	-54.2745
586.88	300.00	7.764	87.622	-60.9123
587.93	300.00	7.763	87.609	-53.5314
588.98	300.00	7.762	87.595	-44.4418
590.03	300.00	7.761	87.584	-41.2813
591.08	300.00	7.759	87.568	-46.5900
592.13	300.00	7.758	87.554	-46.0336
593.18	300.00	7.757	87.540	-44.5803
594.23	300.00	7.756	87.529	-42.1265
595.28	300.00	7.755	87.518	-40.5288
596.33	300.00	7.754	87.505	-34.2555
597.38	300.00	7.753	87.492	-23.0708
598.43	300.00	7.751	87.477	-14.4207
599.48	300.00	7.750	87.466	-6.81871
600.53	300.00	7.749	87.448	-3.89843
601.58	300.00	7.748	87.437	-6.41982
602.63	300.00	7.747	87.423	-6.38174
603.68	300.00	7.746	87.413	-2.10657
604.73	300.00	7.745	87.401	3.53193
605.78	300.00	7.743	87.388	14.6196
606.83	300.00	7.742	87.376	21.0375
607.88	300.00	7.741	87.364	20.3652
608.93	300.00	7.740	87.350	12.5412
609.98	300.00	7.739	87.343	8.50410
611.03	300.00	7.738	87.328	7.99160
612.08	300.00	7.737	87.319	8.81151
613.13	300.00	7.736	87.303	3.47370
614.18	300.00	7.735	87.291	-3.78855
615.23	300.00	7.734	87.277	-5.62506
616.28	300.00	7.733	87.265	-7.24093
617.33	300.00	7.732	87.257	-10.4308
618.38	300.00	7.731	87.244	-1.00055
619.43	300.00	7.730	87.231	6.69599
620.48	300.00	7.729	87.221	6.03829
621.53	300.00	7.728	87.209	-4.74475
622.58	300.00	7.727	87.198	-8.12573
623.63	300.00	7.726	87.187	-7.84134
624.68	300.00	7.725	87.175	-11.9356
625.73	300.00	7.723	87.160	-7.39763
626.78	300.00	7.722	87.151	1.41101
627.83	300.00	7.722	87.141	16.1809
628.88	300.00	7.721	87.129	29.0562
629.93	300.00	7.720	87.120	21.7475
630.98	300.00	7.719	87.109	18.2024
632.03	300.00	7.717	87.095	14.8471
633.08	300.00	7.716	87.081	1.93445
634.13	300.00	7.715	87.072	-5.57026
635.18	300.00	7.714	87.058	-5.93410
636.23	300.00	7.714	87.051	-1.64824
637.28	300.00	7.713	87.041	6.23476
638.33	300.00	7.711	87.026	9.88570
639.38	300.00	7.711	87.017	5.37854
640.43	300.00	7.710	87.005	1.77299
641.48	300.00	7.708	86.992	4.49244
642.53	300.00	7.708	86.983	7.37048
643.58	300.00	7.707	86.972	1.04911
644.63	300.00	7.705	86.959	-3.23304
645.68	300.00	7.705	86.949	3.24945
646.73	300.00	7.703	86.935	6.88183
647.78	300.00	7.702	86.925	9.86617
648.83	300.00	7.702	86.915	19.4682
649.88	300.00	7.700	86.903	23.9902
650.93	300.00	7.700	86.893	22.2016
651.98	300.00	7.699	86.883	18.6925
653.03	300.00	7.698	86.869	21.7318
654.08	300.00	7.696	86.856	20.3417
655.13	300.00	7.696	86.849	19.3485
656.18	300.00	7.694	86.836	21.5270
657.23	300.00	7.694	86.830	21.7409
658.28	300.00	7.692	86.813	25.4184
659.33	300.00	7.691	86.799	21.9264
660.38	300.00	7.690	86.787	11.4231
661.43	300.00	7.689	86.777	4.39321
662.48	300.00	7.688	86.767	4.44977
663.53	300.00	7.687	86.754	2.33077
664.58	300.00	7.687	86.749	-5.58422
665.63	300.00	7.685	86.731	-12.8918
666.68	300.00	7.685	86.723	-11.0380
667.73	300.00	7.683	86.710	-2.45490
668.78	300.00	7.682	86.698	2.42778
669.83	300.00	7.681	86.685	7.08156
670.88	300.00	7.680	86.675	9.42760
671.93	300.00	7.679	86.664	2.30999
672.98	300.00	7.678	86.650	-0.742260
674.03	300.00	7.677	86.639	-5.30180
675.08	300.00	7.676	86.630	-17.7468
676.13	300.00	7.675	86.618	-21.0121
677.18	300.00	7.674	86.609	-18.5739
678.23	300.00	7.673	86.593	-15.7908
679.28	300.00	7.672	86.583	-8.46892
680.33	300.00	7.671	86.569	-0.731686
681.38	300.00	7.670	86.563	-3.48128
682.43	300.00	7.669	86.551	-7.04827
683.48	300.00	7.668	86.542	-2.98654
684.53	300.00	7.667	86.529	3.78447
685.58	300.00	7.666	86.516	17.7127
686.63	300.00	7.665	86.503	25.3189
687.68	300.00	7.664	86.492	24.9803
688.73	300.00	7.663	86.483	19.5635
689.78	300.00	7.662	86.467	8.87700
690.83	300.00	7.661	86.459	-1.12588
691.88	300.00	7.660	86.447	-11.6780
692.93	300.00	7.659	86.435	-13.1392
693.98	300.00	7.658	86.423	-13.3004
695.03	300.00	7.657	86.412	-12.2290
696.08	300.00	7.656	86.399	-7.67122
697.13	300.00	7.655	86.389	-2.61898
698.18	300.00	7.654	86.376	0.352762
699.23	300.00	7.652	86.359	-0.348437
700.28	300.00	7.652	86.353	1.50180
701.33	300.00	7.651	86.339	1.55593
702.38	300.00	7.650	86.331	1.02056
703.43	300.00	7.649	86.319	2.45563
704.48	300.00	7.648	86.306	7.89469
705.53	300.00	7.647	86.299	6.45490
706.58	300.00	7.646	86.284	8.32671
707.63	300.00	7.645	86.272	12.7758
708.68	300.00	7.644	86.267	14.2120
709.73	300.00	7.641	86.234	15.9042
710.78	300.00	7.641	86.237	12.6308
711.83	300.00	7.641	86.227	6.75428
712.88	300.00	7.639	86.209	0.0450147
713.93	300.00	7.638	86.200	-3.45080
714.98	300.00	7.637	86.191	2.61954
716.03	300.00	7.636	86.177	13.7526
717.08	300.00	7.635	86.168	23.5157
718.13	300.00	7.634	86.157	23.3197
719.18	300.00	7.633	86.143	20.7460
720.23	300.00	7.632	86.134	18.7935
721.28	300.00	7.631	86.122	12.0880
722.33	300.00	7.630	86.107	2.60432
723.38	300.00	7.629	86.097	-2.64194
724.43	300.00	7.628	86.087	-17.1321
725.48	300.00	7.627	86.074	-14.5580
726.53	300.00	7.626	86.063	-0.451711
727.58	300.00	7.625	86.050	4.69521
728.63	300.00	7.624	86.038	4.62492
729.68	300.00	7.623	86.029	0.410359
730.73	300.00	7.622	86.016	2.98998
731.78	300.00	7.621	86.007	-0.469002
732.83	300.00	7.620	85.990	-1.64219
733.88	300.00	7.619	85.978	-6.04611
734.93	300.00	7.618	85.967	-12.2686
735.98	300.00	7.617	85.957	-14.0102
737.03	300.00	7.616	85.951	-8.94995
738.08	300.00	7.615	85.939	-7.03939
739.13	300.00	7.613	85.920	-0.459434
740.18	300.00	7.613	85.910	12.5947
741.23	300.00	7.612	85.899	9.31063
742.28	300.00	7.611	85.889	10.2975
743.33	300.00	7.609	85.876	11.4135
744.38	300.00	7.608	85.864	15.8588
745.43	300.00	7.607	85.853	16.9986
746.48	300.00	7.606	85.840	9.53770
747.53	300.00	7.605	85.828	7.53379
748.58	300.00	7.604	85.812	-2.18259
749.63	300.00	7.603	85.807	-8.20506
750.68	300.00	7.602	85.795	-1.02086
751.73	300.00	7.601	85.785	1.16552
752.78	300.00	7.600	85.772	0.801320
753.83	300.00	7.599	85.762	5.78340
754.88	300.00	7.599	85.752	-5.40316
755.93	300.00	7.597	85.733	-3.38331
756.98	300.00	7.596	85.729	-0.816369
758.03	300.00	7.595	85.707	-2.88112
759.08	300.00	7.594	85.703	-5.57461
760.13	300.00	7.593	85.690	-13.0940
761.18	300.00	7.592	85.677	-17.2298
762.23	300.00	7.591	85.667	-14.1699
763.28	300.00	7.590	85.658	-11.3751
764.33	300.00	7.589	85.642	-9.30705
765.38	300.00	7.588	85.632	-7.61367
766.43	300.00	7.587	85.621	-10.5863
767.48	300.00	7.586	85.609	-16.6726
768.53	300.00	7.585	85.596	-23.2985
769.58	300.00	7.584	85.586	-20.8044
770.63	300.00	7.583	85.575	-18.5314
771.68	300.00	7.581	85.560	-19.2712
772.73	300.00	7.581	85.549	-11.6466
773.78	300.00	7.580	85.540	-3.18396
774.83	300.00	7.578	85.526	4.48374
775.88	300.00	7.578	85.517	7.65371
776.93	300.00	7.577	85.504	14.6955
777.98	300.00	7.575	85.487	18.2675
779.03	300.00	7.574	85.480	13.8271
780.08	300.00	7.573	85.470	6.16231
781.13	300.00	7.572	85.459	9.85171
782.18	300.00	7.571	85.445	11.6645
783.23	300.00	7.570	85.436	7.29791
784.28	300.00	7.570	85.426	9.22404
785.33	300.00	7.568	85.413	6.69031
786.38	300.00	7.568	85.402	13.5357
787.43	300.00	7.566	85.385	15.6604
788.48	300.00	7.565	85.378	17.5802
789.53	300.00	7.564	85.366	20.0776
790.58	300.00	7.563	85.355	17.6400
791.63	300.00	7.562	85.344	13.6696
792.68	300.00	7.561	85.332	10.9137
793.73	300.00	7.560	85.320	8.52971
794.78	300.00	7.559	85.309	10.3708
795.83	300.00	7.559	85.301	8.52724
796.88	300.00	7.557	85.288	3.97550
797.93	300.00	7.556	85.275	1.87511
798.98	300.00	7.555	85.263	-2.69943
800.03	300.00	7.554	85.251	-4.86705
801.08	300.00	7.553	85.236	-8.87756
802.13	300.00	7.553	85.234	-12.7148
803.18	300.00	7.551	85.221	-10.3441
804.23	300.00	7.550	85.204	-8.76925
805.28	300.00	7.550	85.200	-7.82686
806.33	300.00	7.549	85.190	-2.77396
807.38	300.00	7.547	85.172	8.31480
808.43	300.00	7.546	85.159	9.05104
809.48	300.00	7.545	85.148	1.43160
810.53	300.00	7.544	85.138	-3.74865
811.58	300.00	7.543	85.125	-4.20895
812.63	300.00	7.542	85.114	-4.83299
813.68	300.00	7.541	85.102	-13.8061
814.73	300.00	7.540	85.092	-18.1565
815.78	300.00	7.539	85.080	-25.1100
816.83	300.00	7.538	85.069	-22.1777
817.88	300.00	7.537	85.058	-24.8951
818.93	300.00	7.536	85.047	-22.8268
819.98	300.00	7.535	85.035	-11.0690
821.03	300.00	7.534	85.024	0.630996
822.08	300.00	7.533	85.014	3.66219
823.13	300.00	7.532	85.000	2.15594
824.18	300.00	7.531	84.987	7.59634
825.23	300.00	7.530	84.975	8.85423
826.28	300.00	7.529	84.966	3.75982
827.33	300.00	7.527	84.949	6.64495
828.38	300.00	7.527	84.944	17.4633
829.43	300.00	7.525	84.928	15.2463
830.48	300.00	7.525	84.922	20.6543
831.53	300.00	7.524	84.912	20.5626
832.58	300.00	7.523	84.898	12.6502
833.63	300.00	7.522	84.885	15.7364
834.68	300.00	7.521	84.878	8.38748
835.73	300.00	7.520	84.867	3.73128
836.78	300.00	7.519	84.851	-1.17756
837.83	300.00	7.518	84.841	4.64400
838.88	300.00	7.517	84.829	3.58651
839.93	300.00	7.516	84.817	6.69940
840.98	300.00	7.515	84.808	-3.20187
842.03	300.00	7.514	84.793	-5.08361
843.08	300.00	7.513	84.784	-4.04524
844.13	300.00	7.512	84.770	-3.88453
845.18	300.00	7.511	84.760	-4.60869
846.23	300.00	7.510	84.754	-8.26118
847.28	300.00	7.509	84.739	-13.3095
848.33	300.00	7.508	84.727	-32.8938
849.38	300.00	7.507	84.715	-39.5600
850.43	300.00	7.506	84.703	-28.9346
851.48	300.00	7.505	84.692	-13.1228
852.53	300.00	7.504	84.680	-8.47527
853.58	300.00	7.503	84.671	-4.26233
854.63	300.00	7.501	84.657	5.98738
855.68	300.00	7.501	84.649	14.3892
856.73	300.00	7.500	84.636	14.2445
857.78	300.00	7.499	84.625	16.5367
858.83	300.00	7.497	84.609	21.7412
859.88	300.00	7.497	84.607	24.5287
860.93	300.00	7.495	84.589	32.4830
861.98	300.00	7.495	84.579	37.7547
863.03	300.00	7.494	84.568	36.6006
864.08	300.00	7.492	84.555	37.3790
865.13	300.00	7.492	84.545	30.9149
866.18	300.00	7.491	84.536	20.7272
867.23	300.00	7.490	84.523	2.62362
868.28	300.00	7.489	84.519	-4.45074
869.33	300.00	7.488	84.506	-3.06287
870.38	300.00	7.487	84.496	2.66051
871.43	300.00	7.486	84.478	2.67522
872.48	300.00	7.485	84.468	10.1394
873.53	300.00	7.484	84.456	15.8597
874.58	300.00	7.482	84.443	16.5838
875.63	300.00	7.482	84.433	11.2736
876.68	300.00	7.481	84.423	-5.46312
877.73	300.00	7.480	84.412	-12.2159
878.78	300.00	7.479	84.400	-20.5796
879.83	300.00	7.478	84.392	-27.2408
880.88	300.00	7.477	84.378	-25.5757
881.93	300.00	7.476	84.367	-16.1272
882.98	300.00	7.475	84.357	-11.9093
884.03	300.00	7.474	84.344	-8.70727
885.08	300.00	7.473	84.330	-2.26045
886.13	300.00	7.472	84.320	-1.40244
887.18	300.00	7.471	84.310	-2.85642
888.23	300.00	7.470	84.298	-8.59303
889.28	300.00	7.469	84.287	-13.9830
890.33	300.00	7.468	84.275	-12.0639
891.38	300.00	7.467	84.265	-11.9267
892.43	300.00	7.466	84.254	-13.7319
893.48	300.00	7.464	84.239	-8.58488
894.53	300.00	7.464	84.236	-4.75260
895.58	300.00	7.463	84.220	-0.699424
896.63	300.00	7.462	84.210	2.24369
897.68	300.00	7.461	84.200	1.03432
898.73	300.00	7.460	84.186	-0.577602
899.78	300.00	7.459	84.174	-0.917795
900.83	300.00	7.458	84.165	-2.29777
901.88	300.00	7.457	84.153	0.0448168
902.93	300.00	7.456	84.140	8.77106
903.98	300.00	7.455	84.127	17.2180
905.03	300.00	7.454	84.121	22.8489
906.08	300.00	7.453	84.106	18.1251
907.13	300.00	7.451	84.093	11.0451
908.18	300.00	7.451	84.086	3.06100
909.23	300.00	7.450	84.075	-3.27172
910.28	300.00	7.449	84.062	-4.95369
911.33	300.00	7.448	84.051	1.55145
912.38	300.00	7.447	84.039	13.3726
913.43	300.00	7.446	84.030	18.0452
914.48	300.00	7.445	84.019	23.8462
915.53	300.00	7.444	84.006	27.0348
916.58	300.00	7.443	83.994	29.0831
917.63	300.00	7.442	83.989	29.0673
918.68	300.00	7.441	83.969	24.2995
919.73	300.00	7.440	83.961	14.0304
920.78	300.00	7.439	83.951	7.73523
921.83	300.00	7.438	83.944	-0.776297
922.88	300.00	7.437	83.928	-6.47508
923.93	300.00	7.436	83.920	0.268655
924.98	300.00	7.435	83.907	6.18445
926.03	300.00	7.434	83.897	11.2558
927.08	300.00	7.433	83.880	16.2486
928.13	300.00	7.432	83.874	17.2295
929.18	300.00	7.431	83.860	9.44018
930.23	300.00	7.430	83.849	2.31731
931.28	300.00	7.429	83.838	-4.00009
932.33	300.00	7.428	83.831	-4.41031
933.38	300.00	7.427	83.818	-1.41848
934.43	300.00	7.426	83.804	-2.54954
935.48	300.00	7.425	83.794	-5.34122
936.53	300.00	7.424	83.781	-7.29894
937.58	300.00	7.423	83.771	-11.2677
938.63	300.00	7.422	83.758	-16.5860
939.68	300.00	7.421	83.746	-21.2969
940.73	300.00	7.420	83.735	-23.9372
941.78	300.00	7.419	83.729	-23.9505
942.83	300.00	7.418	83.717	-22.0773
943.88	300.00	7.417	83.702	-21.3429
944.93	300.00	7.416	83.692	-21.4908
945.98	300.00	7.415	83.678	-18.8388
947.03	300.00	7.413	83.663	-14.9129
948.08	300.00	7.413	83.655	-6.91916
949.13	300.00	7.412	83.645	-3.46460
950.18	300.00	7.411	83.634	-7.76501
951.23	300.00	7.410	83.620	-21.8578
952.28	300.00	7.409	83.612	-18.6936
953.33	300.00	7.408	83.602	-4.05997
954.38	300.00	7.407	83.587	9.54217
955.43	300.00	7.406	83.577	11.1968
956.48	300.00	7.404	83.562	10.0564
957.53	300.00	7.404	83.553	15.6033
958.58	300.00	7.403	83.542	19.7061
959.63	300.00	7.402	83.533	15.5926
960.68	300.00	7.401	83.521	11.2570
961.73	300.00	7.400	83.509	5.96618
962.78	300.00	7.399	83.497	2.83161
963.83	300.00	7.398	83.487	-1.64401
964.88	300.00	7.397	83.476	-3.41464
965.93	300.00	7.396	83.462	-0.514507
966.98	300.00	7.395	83.450	7.64476
968.03	300.00	7.394	83.445	8.28361
969.08	300.00	7.393	83.432	13.1792
970.13	300.00	7.392	83.418	13.9204
971.18	300.00	7.391	83.406	12.3039
972.23	300.00	7.390	83.398	9.91838
973.28	300.00	7.389	83.392	7.14183
974.33	300.00	7.388	83.375	1.57803
975.38	300.00	7.386	83.359	-6.56430
976.43	300.00	7.385	83.346	-16.9080
977.48	300.00	7.385	83.346	-21.7133
978.53	300.00	7.384	83.329	-21.7110
979.58	300.00	7.383	83.316	-23.0597
980.63	300.00	7.382	83.306	-26.5678
981.68	300.00	7.381	83.296	-31.1143
982.73	300.00	7.380	83.284	-22.7542
983.78	300.00	7.379	83.270	-16.2739
984.83	300.00	7.378	83.259	-13.2297
985.88	300.00	7.377	83.247	-29.0686
986.93	300.00	7.376	83.236	-33.8184
987.98	300.00	7.375	83.225	-33.9373
989.03	300.00	7.373	83.212	-31.3848
990.08	300.00	7.373	83.204	-28.1891
991.13	300.00	7.372	83.192	-13.2106
992.18	300.00	7.371	83.181	-9.88296
993.23	300.00	7.370	83.170	-11.8599
994.28	300.00	7.369	83.158	-16.8077
995.33	300.00	7.369	83.157	-10.5711
996.38	300.00	7.367	83.136	-8.33317
997.43	300.00	7.366	83.131	-1.75803
998.48	300.00	7.365	83.118	2.67977
999.53	300.00	7.364	83.106	3.35531
1000.58	300.00	7.363	83.097	6.84721
1001.63	300.00	7.362	83.081	9.85989
1002.68	300.00	7.361	83.070	12.4499
1003.73	300.00	7.360	83.060	13.3780
1004.78	300.00	7.359	83.053	10.2054
1005.83	300.00	7.358	83.039	6.96552
1006.88	300.00	7.357	83.025	0.501184
1007.93	300.00	7.356	83.015	-3.05581
1008.98	300.00	7.355	83.005	-4.39074
1010.03	300.00	7.354	82.993	-4.18333
1011.08	300.00	7.353	82.983	3.39974
1012.13	300.00	7.352	82.972	13.7518
1013.18	300.00	7.351	82.962	24.2153
1014.23	300.00	7.350	82.951	23.3374
1015.28	300.00	7.349	82.941	23.0944
1016.33	300.00	7.348	82.929	11.2933
1017.38	300.00	7.347	82.918	2.55695
1018.43	300.00	7.346	82.907	-0.924426
1019.48	300.00	7.345	82.896	-9.98866
1020.53	300.00	7.345	82.887	-5.29749
1021.58	300.00	7.344	82.875	13.3695
1022.63	300.00	7.343	82.863	27.0692
1023.68	300.00	7.341	82.851	32.6713
1024.73	300.00	7.341	82.845	35.9587
1025.78	300.00	7.340	82.830	41.1754
1026.82	300.00	7.339	82.819	25.3436
1027.88	300.00	7.338	82.808	17.4554
1028.93	300.00	7.337	82.797	16.2386
1029.98	300.00	7.336	82.792	12.0651
1031.03	300.00	7.335	82.774	14.2076
1032.07	300.00	7.334	82.765	15.5927
1033.13	300.00	7.333	82.755	18.2247
1034.18	300.00	7.332	82.744	20.4085
1035.23	300.00	7.331	82.734	21.0837
1036.28	300.00	7.330	82.721	18.1994
1037.32	300.00	7.329	82.712	10.5817
1038.38	300.00	7.328	82.700	4.59498
1039.43	300.00	7.327	82.694	-1.92971
1040.48	300.00	7.326	82.679	-8.37884
1041.53	300.00	7.325	82.667	-9.24473
1042.57	300.00	7.324	82.660	-6.24778
1043.63	300.00	7.324	82.649	-5.98883
1044.68	300.00	7.323	82.638	-6.00044
1045.73	300.00	7.321	82.624	-6.51893
1046.78	300.00	7.320	82.613	-9.65649
1047.82	300.00	7.319	82.599	-5.06944
1048.88	300.00	7.318	82.588	0.736923
1049.93	300.00	7.318	82.583	0.531192
1050.98	300.00	7.317	82.570	-1.68744
1052.03	300.00	7.316	82.561	-5.66658
1053.07	300.00	7.314	82.544	-3.24312
1054.13	300.00	7.314	82.539	-4.19158
1055.18	300.00	7.313	82.525	-2.80002
1056.23	300.00	7.312	82.516	-3.41467
1057.28	300.00	7.311	82.506	-11.4382
1058.32	300.00	7.310	82.495	-19.1693
1059.38	300.00	7.309	82.483	-26.2207
1060.43	300.00	7.308	82.471	-28.5601
1061.48	300.00	7.307	82.460	-25.3892
1062.53	300.00	7.306	82.449	-19.6147
1063.57	300.00	7.305	82.436	-11.9411
1064.63	300.00	7.303	82.420	2.73624
1065.68	300.00	7.303	82.415	12.6974
1066.73	300.00	7.302	82.405	13.1978
1067.78	300.00	7.301	82.394	9.45474
1068.82	300.00	7.300	82.383	3.23433
1069.88	300.00	7.299	82.374	-5.17666
1070.93	300.00	7.298	82.361	-13.2369
1071.98	300.00	7.297	82.349	-9.23454
1073.03	300.00	7.296	82.341	-0.939560
1074.07	300.00	7.296	82.333	0.566513
1075.13	300.00	7.294	82.318	5.62938
1076.18	300.00	7.293	82.305	10.4745
1077.23	300.00	7.292	82.295	13.6724
1078.28	300.00	7.291	82.285	29.6774
1079.32	300.00	7.290	82.276	47.1988
1080.38	300.00	7.289	82.262	51.3869
1081.43	300.00	7.288	82.251	49.6424
1082.48	300.00	7.287	82.241	38.9720
1083.53	300.00	7.286	82.230	26.6722
1084.57	300.00	7.286	82.221	11.0653
1085.63	300.00	7.285	82.209	2.89850
1086.68	300.00	7.284	82.198	-3.68415
1087.73	300.00	7.283	82.189	-6.10974
1088.78	300.00	7.282	82.176	-6.73910
1089.82	300.00	7.281	82.166	-11.2063
1090.88	300.00	7.280	82.156	-16.8370
1091.93	300.00	7.279	82.146	-14.5320
1092.98	300.00	7.278	82.133	-13.9657
1094.03	300.00	7.278	82.130	-12.3569
1095.08	300.00	7.276	82.117	-5.75384
1096.13	300.00	7.275	82.099	-2.86943
1097.18	300.00	7.274	82.091	-3.03238
1098.23	300.00	7.274	82.085	-10.0438
1099.28	300.00	7.272	82.062	-18.5804
1100.33	300.00	7.271	82.058	-29.8124
1101.38	300.00	7.270	82.044	-30.9984
1102.43	300.00	7.269	82.037	-29.1212
1103.48	300.00	7.269	82.031	-29.0767
1104.53	300.00	7.267	82.014	-24.3087
1105.58	300.00	7.266	82.004	-18.3319
1106.63	300.00	7.265	81.992	-12.0551
1107.68	300.00	7.264	81.980	-14.4073
1108.73	300.00	7.263	81.971	-13.2109
1109.78	300.00	7.262	81.959	-11.0426
1110.83	300.00	7.261	81.949	-9.71300
1111.88	300.00	7.260	81.938	-6.19502
1112.93	300.00	7.260	81.929	-5.58469
1113.98	300.00	7.259	81.915	-9.65864
1115.03	300.00	7.258	81.905	-14.8739
1116.08	300.00	7.257	81.895	-13.8995
1117.13	300.00	7.256	81.883	-6.09091
1118.18	300.00	7.255	81.871	4.83592
1119.23	300.00	7.254	81.864	16.1323
1120.28	300.00	7.253	81.851	18.6726
1121.33	300.00	7.251	81.834	18.5930
1122.38	300.00	7.251	81.832	20.0126
1123.43	300.00	7.250	81.822	17.8834
1124.48	300.00	7.249	81.810	16.4330
1125.53	300.00	7.248	81.800	10.3304
1126.58	300.00	7.247	81.788	14.4413
1127.63	300.00	7.246	81.780	17.2022
1128.68	300.00	7.246	81.768	20.2735
1129.73	300.00	7.245	81.757	21.3415
1130.78	300.00	7.243	81.746	17.7924
1131.83	300.00	7.243	81.736	17.1821
1132.88	300.00	7.242	81.726	15.5407
1133.93	300.00	7.241	81.715	15.1504
1134.98	300.00	7.240	81.705	15.1285
1136.03	300.00	7.239	81.696	10.4957
1137.08	300.00	7.238	81.684	8.37539
1138.13	300.00	7.237	81.668	-5.03434
1139.18	300.00	7.236	81.661	-16.5041
1140.23	300.00	7.235	81.650	-25.5719
1141.28	300.00	7.234	81.640	-30.2493
1142.33	300.00	7.233	81.630	-30.0687
1143.38	300.00	7.233	81.625	-30.9179
1144.43	300.00	7.231	81.610	-35.0555
1145.48	300.00	7.230	81.594	-40.3511
1146.53	300.00	7.229	81.583	-41.6570
1147.58	300.00	7.229	81.580	-41.8511
1148.63	300.00	7.227	81.565	-40.7234
1149.68	300.00	7.227	81.554	-37.5805
1150.73	300.00	7.226	81.545	-29.8043
1151.78	300.00	7.225	81.534	-16.4147
1152.83	300.00	7.224	81.521	-9.17929
1153.88	300.00	7.223	81.511	-4.30430
1154.93	300.00	7.222	81.500	-11.4546
1155.98	300.00	7.221	81.492	-24.7480
1157.03	300.00	7.220	81.481	-27.7113
1158.08	300.00	7.219	81.468	-21.8562
1159.13	300.00	7.218	81.460	-7.84463
1160.18	300.00	7.217	81.449	1.68248
1161.23	300.00	7.216	81.439	9.08737
1162.28	300.00	7.215	81.430	10.5565
1163.33	300.00	7.214	81.417	12.5206
1164.38	300.00	7.213	81.404	8.87047
1165.43	300.00	7.212	81.394	7.34088
1166.48	300.00	7.212	81.385	2.44490
1167.53	300.00	7.211	81.383	0.828353
1168.58	300.00	7.210	81.367	0.169917
1169.63	300.00	7.208	81.349	5.27869
1170.68	300.00	7.208	81.341	12.0927
1171.73	300.00	7.207	81.331	20.2247
1172.78	300.00	7.206	81.322	23.9867
1173.83	300.00	7.205	81.313	24.7837
1174.88	300.00	7.205	81.307	22.5108
1175.93	300.00	7.203	81.284	17.8938
1176.98	300.00	7.202	81.280	10.0467
1178.03	300.00	7.201	81.269	4.51986
1179.08	300.00	7.200	81.259	5.14192
1180.13	300.00	7.199	81.249	6.65367
1181.18	300.00	7.199	81.239	8.73809
1182.23	300.00	7.197	81.227	10.8219
1183.28	300.00	7.197	81.217	11.9002
1184.33	300.00	7.196	81.207	17.6425
1185.38	300.00	7.195	81.196	18.9933
1186.43	300.00	7.194	81.188	16.9888
1187.48	300.00	7.193	81.175	15.1462
1188.53	300.00	7.192	81.165	15.8024
1189.58	300.00	7.191	81.155	21.1357
1190.63	300.00	7.190	81.141	21.4214
1191.68	300.00	7.190	81.137	15.7662
1192.73	300.00	7.188	81.122	7.00993
1193.78	300.00	7.188	81.114	-1.77890
1194.83	300.00	7.187	81.105	-12.9665
1195.88	300.00	7.185	81.091	-19.6599
1196.93	300.00	7.185	81.082	-25.2036
1197.98	300.00	7.184	81.072	-23.6649
1199.03	300.00	7.183	81.062	-18.1140
1200.08	300.00	7.182	81.051	-9.85269
1201.13	300.00	7.181	81.046	-3.15844
1202.18	300.00	7.180	81.027	-0.195367
1203.23	300.00	7.179	81.017	0.120835
1204.28	300.00	7.178	81.008	1.38886
1205.33	300.00	7.177	80.998	-0.359382
1206.38	300.00	7.176	80.988	-3.87555
1207.43	300.00	7.175	80.975	-7.37305
1208.48	300.00	7.174	80.966	-4.77337
1209.53	300.00	7.174	80.956	-2.44464
1210.58	300.00	7.173	80.947	-4.65754
1211.63	300.00	7.171	80.932	-9.87083
1212.68	300.00	7.171	80.924	-11.3633
1213.73	300.00	7.169	80.909	-12.3644
1214.78	300.00	7.169	80.905	-5.05968
1215.83	300.00	7.167	80.887	1.17169
1216.88	300.00	7.167	80.880	6.18613
1217.93	300.00	7.166	80.870	14.2353
1218.98	300.00	7.165	80.859	15.0462
1220.03	300.00	7.164	80.851	16.0441
1221.08	300.00	7.163	80.840	13.2765
1222.13	300.00	7.162	80.828	9.53738
1223.18	300.00	7.161	80.820	0.805037
1224.23	300.00	7.160	80.807	-8.75514
1225.28	300.00	7.159	80.795	-9.14959
1226.33	300.00	7.158	80.785	-19.0658
1227.38	300.00	7.158	80.777	-25.8840
1228.43	300.00	7.157	80.764	-22.9812
1229.48	300.00	7.156	80.753	-16.9692
1230.53	300.00	7.155	80.744	-11.7830
1231.58	300.00	7.154	80.734	-5.45702
1232.63	300.00	7.153	80.723	-2.07257
1233.68	300.00	7.152	80.712	2.43877
1234.73	300.00	7.151	80.701	-1.76378
1235.78	300.00	7.150	80.692	-11.9898
1236.83	300.00	7.149	80.681	-16.4866
1237.88	300.00	7.148	80.671	-17.2097
1238.93	300.00	7.147	80.658	-14.3243
1239.98	300.00	7.146	80.645	-8.98954
1241.03	300.00	7.145	80.638	-17.1573
1242.08	300.00	7.144	80.628	-22.1049
1243.13	300.00	7.144	80.620	-20.4278
1244.18	300.00	7.142	80.602	-19.6546
1245.23	300.00	7.142	80.601	-17.6239
1246.28	300.00	7.141	80.586	-18.1210
1247.33	300.00	7.140	80.576	-13.3017
1248.38	300.00	7.139	80.561	-0.850943
1249.43	300.00	7.138	80.557	0.542614
1250.48	300.00	7.137	80.542	-0.161156
1251.53	300.00	7.136	80.536	-0.0266119
1252.58	300.00	7.135	80.524	-0.0125133
1253.63	300.00	7.135	80.516	-8.69418e-3
1254.68	300.00	7.134	80.506	-7.47404e-3
1255.73	300.00	7.133	80.493	-7.55667e-3
1256.78	300.00	7.132	80.485	-8.80154e-3
1257.83	300.00	7.131	80.472	-0.0114961
1258.88	300.00	7.130	80.462	-0.0163646
1259.93	300.00	7.129	80.456	-0.0246404
1260.98	300.00	7.128	80.444	-0.0386939
1262.03	300.00	7.127	80.433	-0.0621897
1263.08	300.00	7.126	80.420	-0.0994482
1264.13	300.00	7.126	80.416	-0.152915
1265.18	300.39	7.125	80.407	-0.218569
1266.23	305.42	7.125	80.411	-0.284060
1267.28	314.21	7.123	80.388	-0.336453
1268.33	323.78	7.120	80.354	-0.372987
1269.38	333.58	7.114	80.289	-0.397092
1270.43	343.69	7.104	80.169	-0.412120
1271.48	354.11	7.083	79.931	-0.420522
1272.53	364.74	7.042	79.469	-0.424109
1273.58	375.46	6.961	78.561	-0.424185
1274.63	386.17	6.809	76.838	-0.421685
1275.68	396.83	6.510	73.472	-0.417285
1276.73	407.42	5.946	67.099	-0.411464
1277.78	417.97	4.972	56.109	-0.404575
1278.83	428.50	3.532	39.859	-0.396860
1279.88	439.03	1.889	21.320	-0.388474
1280.93	449.57	0.656	7.401	-0.379194
1281.98	460.09	0.188	2.120	-0.367591
1283.03	470.60	0.098	1.100	-0.352675
1284.08	481.13	0.072	0.809	-0.334225
1285.13	491.67	0.062	0.702	-0.312163
1286.18	502.21	0.061	0.692	-0.286425
1287.23	512.75	0.061	0.691	-0.257032
1288.28	523.27	0.061	0.693	-0.224148
1289.33	533.81	0.061	0.689	-0.188151
1290.38	544.33	0.061	0.686	-0.149771
1291.43	554.86	0.061	0.687	-0.110417
1292.48	565.38	0.061	0.691	-0.0725810
1293.53	575.91	0.061	0.693	-0.0400233
1294.58	586.43	0.061	0.693	-0.0168398
1295.63	596.95	0.061	0.694	-4.81033e-3
1296.68	607.47	0.062	0.696	-9.38931e-4
1297.73	618.00	0.061	0.693	-6.04488e-5
1298.78	628.51	0.062	0.705	2.16825e-4
1299.83	639.04	0.062	0.704	3.12279e-4
1300.88	649.56	0.062	0.705	3.36019e-4
1301.93	660.08	0.063	0.708	3.54605e-4
1302.98	670.59	0.063	0.714	3.74033e-4
1304.03	681.11	0.064	0.719	3.94328e-4
1305.08	691.63	0.064	0.721	4.11425e-4
1306.13	702.15	0.064	0.723	4.25238e-4
1307.18	712.65	0.065	0.738	4.44598e-4
1308.23	723.18	0.066	0.743	4.64066e-4
1309.28	733.69	0.067	0.751	4.84622e-4
1310.33	744.20	0.067	0.759	5.06295e-4
1311.38	754.72	0.068	0.763	5.28328e-4
1312.43	765.23	0.069	0.774	5.52546e-4
1313.48	775.74	0.070	0.786	5.78466e-4
1314.53	786.25	0.070	0.793	6.12063e-4