File: data/TGA/ps_scf3_flynn_ozawa_wall/1K/ExpDat_2025_11_11_SL_PS_Tosoh_A1000_20K_min.csv
#EXPORTTYPE:                 ,DATA ALL
#FILE:                       ,2025_11_11_SL_PS_Tosoh_A1000_20K_min.ngb-ss5
#FORMAT:                     ,NETZSCH5
#FTYPE:                      ,ASCII
#IDENTITY:                   ,PS_A1000_20K_min
#DECIMAL:                    ,POINT
#SEPARATOR:                  ,COMMA
#MTYPE:                      ,DSC
#INSTRUMENT:                 ,NETZSCH STA 449F5
#PROJECT:                    ,PS
#DATE/TIME:                  ,11/12/2025 10:51:39 AM (UTC-5)
#CORR. FILE:                 ,
#TEMPCAL:                    ,05-05-2025 14:38
#SENSITIVITY:                ,28-06-2023 13:53
#LABORATORY:                 ,Tran/AAG
#OPERATOR:                   ,Stan
#REMARK:                     ,
#SAMPLE:                     ,PS_A1000_20K_min
#SAMPLE MASS /mg:            ,4.92
#MATERIAL:                   ,
#REFERENCE:                  ,
#REFERENCE MASS /mg:         ,0
#TYPE OF CRUCIBLE:           ,Al2O3 85 ‘l, open
#SAMPLE CRUCIBLE MASS /mg:   ,0
#REFERENCE CRUCIBLE MASS /mg:,0
#DSC RANGE /‘V:              ,5000
#TG RANGE /mg:               ,35000
#TAU-R:                      ,---
#CORR. CODE:                 ,000
#EXO:                        ,-1
#RANGE:                      ,20›C....800›C/0.0....20.0K/min
#SEGMENT:                    ,S1-4/4
#SEG. 1:                     ,20›C/5.0(K/min)/100›C
#SEG. 2:                     ,100›C/00:05/100›C
#SEG. 3:                     ,100›C/20.0(K/min)/600›C
#SEG. 4:                     ,600›C/20.0(K/min)/800›C

##Temp./›C,Time/min,DSC/(mW/mg),Mass/%,Gas Flow(purge2)/(ml/min),Gas Flow(protective)/(ml/min),TIC(scan:1)/A,Sensit./(uV/mW),Segment
 33.69100, 0.00000,      1.31748,100,50.00000,50.00000,            ,0.92419,1
 36.46200, 0.86667,      0.80418, 91.51728,50.00000,48.00000,3.802317e-09,0.92438,1
 38.17200, 1.73333,      0.49915, 90.03862,50.00000,48.00000,3.809513e-09,0.92454,1
 39.22500, 2.60000,      0.29723, 89.87073,50.00000,48.00000,3.803913e-09,0.92468,1
 39.83400, 3.46667,      0.15992, 89.34187,50.00000,48.00000,3.809038e-09,0.92477,1
 40.18700, 4.33333, 7.760977e-02, 88.83374,50.00000,48.00000,3.800373e-09,0.92485,1
 40.76900, 5.20000,      0.13191, 88.79919,50.00000,48.00000,3.802494e-09,0.92491,1
 42.05300, 6.06667,      0.32512, 89.07744,50.00000,48.00000,3.812470e-09,0.92496,1
 44.21100, 6.93333,      0.57050, 89.49817,50.00000,48.00000,3.805393e-09,0.92501,1
 47.11700, 7.80000,      0.81674, 89.98110,50.00000,48.00000,3.804677e-09,0.92503,1
 50.77200, 8.66667,      1.05283, 90.42724,50.00000,48.00000,3.813396e-09,0.92506,1
 55.06400, 9.53333,      1.26964, 90.85955,50.00000,48.00000,3.818879e-09,0.92508,1
 59.90100,10.40000,      1.45861, 91.27114,50.00000,48.00000,3.810215e-09,0.92510,1
 65.09600,11.26667,      1.60783, 91.50793,50.00000,48.00000,3.817807e-09,0.92511,1
 70.50800,12.13333,      1.72008, 91.69431,50.00000,48.00000,3.817795e-09,0.92513,1
 76.05000,13.00000,      1.79944, 91.72419,50.00000,48.00000,3.821428e-09,0.92517,1
 81.63000,13.86667,      1.85545, 91.65285,50.00000,49.00000,3.819970e-09,0.92523,1
 87.18600,14.73333,      1.88120, 91.45508,50.00000,49.00000,3.813938e-09,0.92529,1
 92.68800,15.60000,      1.88483, 91.14472,50.00000,49.00000,3.823510e-09,0.92536,1
 97.29100,16.35000,      1.85509, 90.88943,50.00000,48.00000,3.823279e-09,0.92544,2
100.634,17.00000,      1.64218, 90.25244,50.00000,49.00000,3.820035e-09,0.92551,2
103,17.65000,      1.27339, 89.56728,50.00000,49.00000,3.822449e-09,0.92558,2
104.738,18.30000,      0.96147, 89.05915,50.00000,49.00000,3.825567e-09,0.92566,2
106.093,18.95000,      0.74581, 88.60833,50.00000,49.00000,3.822270e-09,0.92573,2
107.091,19.60000,      0.56080, 88.22886,50.00000,48.00000,3.822909e-09,0.92581,2
107.68,20.25000,      0.37663, 87.79898,50.00000,48.00000,3.828125e-09,0.92588,2
107.925,20.90000,      0.20403, 87.32988,50.00000,48.00000,3.829575e-09,0.92595,2
107.934,21.05500,      0.16673, 87.23089,50.00000,48.00000,3.829575e-09,0.92595,3
107.951,21.12000,      0.15306, 87.21260,50.00000,48.00000,3.823807e-09,0.92597,3
107.948,21.18500,      0.13990, 87.18496,50.00000,48.00000,3.823807e-09,0.92597,3
107.975,21.25000,      0.13180, 87.18496,50.00000,48.00000,3.831200e-09,0.92598,3
107.994,21.31500,      0.12910, 87.24024,50.00000,48.00000,3.831200e-09,0.92598,3
108.05,21.38000,      0.13585, 87.27012,50.00000,48.00000,3.831200e-09,0.92598,3
108.123,21.44500,      0.15290, 87.37134,50.00000,48.00000,3.819427e-09,0.92600,3
108.223,21.51000,      0.17822, 87.46789,50.00000,48.00000,3.819427e-09,0.92600,3
108.342,21.57500,      0.21840, 87.64024,50.00000,48.00000,3.825000e-09,0.92601,3
108.518,21.64000,      0.26888, 87.80589,50.00000,48.00000,3.825000e-09,0.92601,3
108.721,21.70500,      0.33372, 87.98069,50.00000,48.00000,3.825000e-09,0.92601,3
108.954,21.77000,      0.41106, 88.16911,50.00000,48.00000,3.833203e-09,0.92603,3
109.239,21.83500,      0.50125, 88.37154,50.00000,48.00000,3.833203e-09,0.92603,3
109.564,21.90000,      0.60531, 88.60142,50.00000,48.00000,3.821647e-09,0.92604,3
109.936,21.96500,      0.72072, 88.79919,50.00000,48.00000,3.821647e-09,0.92604,3
110.341,22.03000,      0.84613, 89.02459,50.00000,48.00000,3.821647e-09,0.92604,3
110.807,22.09500,      0.98105, 89.27988,50.00000,48.00000,3.831164e-09,0.92606,3
111.298,22.16000,      1.12515, 89.48455,50.00000,48.00000,3.831164e-09,0.92606,3
111.825,22.22500,      1.27540, 89.69370,50.00000,48.00000,3.824644e-09,0.92607,3
112.384,22.29000,      1.43096, 89.94675,50.00000,48.00000,3.824644e-09,0.92607,3
113.005,22.35500,      1.59000, 90.12378,50.00000,48.00000,3.824644e-09,0.92607,3
113.646,22.42000,      1.74946, 90.35833,50.00000,48.00000,3.823609e-09,0.92608,3
114.321,22.48500,      1.91189, 90.53293,50.00000,48.00000,3.823609e-09,0.92608,3
115.016,22.55000,      2.07273, 90.70325,50.00000,48.00000,3.829789e-09,0.92610,3
115.747,22.61500,      2.22980, 90.87114,50.00000,48.00000,3.829789e-09,0.92610,3
116.493,22.68000,      2.38612, 91.05508,50.00000,48.00000,3.829789e-09,0.92610,3
117.257,22.74500,      2.53663, 91.19533,50.00000,48.00000,3.831691e-09,0.92611,3
118.042,22.81000,      2.68251, 91.31707,50.00000,48.00000,3.831691e-09,0.92611,3
118.845,22.87500,      2.82224, 91.47358,50.00000,48.00000,3.831691e-09,0.92611,3
119.667,22.94000,      2.95615, 91.58618,50.00000,48.00000,3.822159e-09,0.92612,3
120.483,23.00500,      3.08422, 91.65061,50.00000,48.00000,3.822159e-09,0.92612,3
121.337,23.07000,      3.20650, 91.77236,50.00000,48.00000,3.833687e-09,0.92613,3
122.188,23.13500,      3.32107, 91.88516,50.00000,48.00000,3.833687e-09,0.92613,3
123.054,23.20000,      3.43016, 91.92419,50.00000,48.00000,3.833687e-09,0.92613,3
123.936,23.26500,      3.53460, 91.99085,50.00000,48.00000,3.832157e-09,0.92614,3
124.814,23.33000,      3.63201, 92.12419,50.00000,48.00000,3.832157e-09,0.92614,3
125.713,23.39500,      3.72494, 92.18862,50.00000,48.00000,3.828902e-09,0.92615,3
126.616,23.46000,      3.81406, 92.26911,50.00000,48.00000,3.828902e-09,0.92615,3
127.531,23.52500,      3.89972, 92.29675,50.00000,48.00000,3.828902e-09,0.92615,3
128.442,23.59000,      3.98035, 92.34492,50.00000,48.00000,3.829975e-09,0.92616,3
129.394,23.65500,      4.06080, 92.43699,50.00000,48.00000,3.829975e-09,0.92616,3
130.33,23.72000,      4.13876, 92.52907,50.00000,48.00000,3.827987e-09,0.92617,3
131.301,23.78500,      4.21448, 92.60935,50.00000,48.00000,3.827987e-09,0.92617,3
132.282,23.85000,      4.29168, 92.68984,50.00000,48.00000,3.827987e-09,0.92617,3
133.263,23.91500,      4.36897, 92.75894,50.00000,48.00000,3.819667e-09,0.92617,3
134.272,23.98000,      4.44505, 92.85081,50.00000,48.00000,3.819667e-09,0.92617,3
135.286,24.04500,      4.52448, 92.91748,50.00000,48.00000,3.833534e-09,0.92618,3
136.327,24.11000,      4.60390, 92.96362,50.00000,48.00000,3.833534e-09,0.92618,3
137.391,24.17500,      4.68672, 93.04858,50.00000,48.00000,3.833534e-09,0.92618,3
138.456,24.24000,      4.76813, 93.11768,50.00000,48.00000,3.826427e-09,0.92618,3
139.574,24.30500,      4.85593, 93.20955,50.00000,48.00000,3.826427e-09,0.92618,3
140.677,24.37000,      4.94417, 93.29004,50.00000,48.00000,3.829557e-09,0.92619,3
141.825,24.43500,      5.03472, 93.41199,50.00000,48.00000,3.829557e-09,0.92619,3
142.978,24.50000,      5.12696, 93.47642,50.00000,48.00000,3.829557e-09,0.92619,3
144.153,24.56500,      5.22283, 93.51077,50.00000,48.00000,3.822680e-09,0.92619,3
145.349,24.63000,      5.32081, 93.61667,50.00000,48.00000,3.822680e-09,0.92619,3
146.563,24.69500,      5.41935, 93.68110,50.00000,48.00000,3.833143e-09,0.92620,3
147.81,24.76000,      5.51954, 93.77988,50.00000,48.00000,3.833143e-09,0.92620,3
149.069,24.82500,      5.62149, 93.85813,50.00000,48.00000,3.833143e-09,0.92620,3
150.347,24.89000,      5.72455, 93.91789,50.00000,48.00000,3.827060e-09,0.92620,3
151.633,24.95500,      5.82921, 94.00061,50.00000,48.00000,3.827060e-09,0.92620,3
152.933,25.02000,      5.93137, 94.03740,50.00000,48.00000,3.827060e-09,0.92620,3
154.243,25.08500,      6.03480, 94.13638,50.00000,48.00000,3.828731e-09,0.92620,3
155.61,25.15000,      6.13641, 94.20305,50.00000,48.00000,3.828731e-09,0.92620,3
156.948,25.21500,      6.23951, 94.26728,50.00000,48.00000,3.823861e-09,0.92620,3
158.334,25.28000,      6.33852, 94.33171,50.00000,48.00000,3.823861e-09,0.92620,3
159.711,25.34500,      6.43635, 94.38699,50.00000,48.00000,3.823861e-09,0.92620,3
161.103,25.41000,      6.53411, 94.42825,50.00000,48.00000,3.823070e-09,0.92620,3
162.509,25.47500,      6.62818, 94.48354,50.00000,48.00000,3.823070e-09,0.92620,3
163.919,25.54000,      6.72059, 94.51809,50.00000,48.00000,3.832905e-09,0.92620,3
165.342,25.60500,      6.80947, 94.57317,50.00000,48.00000,3.832905e-09,0.92620,3
166.788,25.67000,      6.89712, 94.57317,50.00000,48.00000,3.832905e-09,0.92620,3
168.225,25.73500,      6.98132, 94.60081,50.00000,48.00000,3.828799e-09,0.92620,3
169.671,25.80000,      7.06300, 94.62846,50.00000,48.00000,3.828799e-09,0.92620,3
171.138,25.86500,      7.14361, 94.68354,50.00000,48.00000,3.825196e-09,0.92619,3
172.615,25.93000,      7.21892, 94.71118,50.00000,48.00000,3.825196e-09,0.92619,3
174.082,25.99500,      7.29180, 94.73882,50.00000,48.00000,3.825196e-09,0.92619,3
175.564,26.06000,      7.36217, 94.76626,50.00000,48.00000,3.831031e-09,0.92619,3
177.05,26.12500,      7.42806, 94.79634,50.00000,48.00000,3.831031e-09,0.92619,3
178.546,26.19000,      7.49632, 94.82378,50.00000,48.00000,3.831031e-09,0.92619,3
180.05,26.25500,      7.55941, 94.82378,50.00000,48.00000,3.830186e-09,0.92619,3
181.558,26.32000,      7.61958, 94.87215,50.00000,48.00000,3.830186e-09,0.92619,3
183.066,26.38500,      7.67732, 94.87907,50.00000,48.00000,3.828620e-09,0.92618,3
184.598,26.45000,      7.73382, 94.85142,50.00000,48.00000,3.828620e-09,0.92618,3
186.126,26.51500,      7.78769, 94.87907,50.00000,48.00000,3.828620e-09,0.92618,3
187.646,26.58000,      7.83907, 94.92033,50.00000,48.00000,3.824415e-09,0.92617,3
189.176,26.64500,      7.88912, 94.93415,50.00000,48.00000,3.824415e-09,0.92617,3
190.713,26.71000,      7.93817, 94.93415,50.00000,48.00000,3.828470e-09,0.92616,3
192.263,26.77500,      7.98537, 94.93415,50.00000,48.00000,3.828470e-09,0.92616,3
193.815,26.84000,      8.02995, 94.96179,50.00000,48.00000,3.828470e-09,0.92616,3
195.378,26.90500,      8.07514, 94.96179,50.00000,48.00000,3.827973e-09,0.92615,3
196.92,26.97000,      8.11702, 94.96179,50.00000,48.00000,3.827973e-09,0.92615,3
198.5,27.03500,      8.15577, 94.96179,50.00000,48.00000,3.824246e-09,0.92614,3
200.055,27.10000,      8.19685, 94.96870,50.00000,48.00000,3.824246e-09,0.92614,3
201.61,27.16500,      8.23491, 94.97561,50.00000,48.00000,3.824246e-09,0.92614,3
203.172,27.23000,      8.26998, 94.97561,50.00000,48.00000,3.831281e-09,0.92613,3
204.751,27.29500,      8.30444, 94.97561,50.00000,48.00000,3.831281e-09,0.92613,3
206.313,27.36000,      8.33878, 94.98943,50.00000,48.00000,3.827231e-09,0.92612,3
207.904,27.42500,      8.37045, 94.96179,50.00000,48.00000,3.827231e-09,0.92612,3
209.479,27.49000,      8.39894, 94.96179,50.00000,48.00000,3.827231e-09,0.92612,3
211.046,27.55500,      8.42770, 94.96179,50.00000,48.00000,3.831988e-09,0.92611,3
212.626,27.62000,      8.45348, 94.96179,50.00000,48.00000,3.831988e-09,0.92611,3
214.201,27.68500,      8.47793, 94.93415,50.00000,48.00000,3.831988e-09,0.92611,3
215.785,27.75000,      8.50097, 94.96179,50.00000,48.00000,3.822446e-09,0.92609,3
217.37,27.81500,      8.52397, 94.93415,50.00000,48.00000,3.822446e-09,0.92609,3
218.942,27.88000,      8.54231, 94.93415,50.00000,48.00000,3.831632e-09,0.92608,3
220.53,27.94500,      8.56127, 94.93415,50.00000,48.00000,3.831632e-09,0.92608,3
222.095,28.01000,      8.57655, 94.90671,50.00000,48.00000,3.831632e-09,0.92608,3
223.685,28.07500,      8.59159, 94.90671,50.00000,48.00000,3.834993e-09,0.92606,3
225.255,28.14000,      8.60278, 94.87907,50.00000,48.00000,3.834993e-09,0.92606,3
226.848,28.20500,      8.61425, 94.86524,50.00000,48.00000,3.837300e-09,0.92604,3
228.415,28.27000,      8.62379, 94.82378,50.00000,48.00000,3.837300e-09,0.92604,3
229.992,28.33500,      8.63242, 94.82378,50.00000,48.00000,3.837300e-09,0.92604,3
231.563,28.40000,      8.63834, 94.82378,50.00000,48.00000,3.837507e-09,0.92602,3
233.13,28.46500,      8.64139, 94.79634,50.00000,48.00000,3.837507e-09,0.92602,3
234.707,28.53000,      8.64514, 94.76626,50.00000,48.00000,3.831417e-09,0.92600,3
236.275,28.59500,      8.64485, 94.72500,50.00000,48.00000,3.831417e-09,0.92600,3
237.83,28.66000,      8.64231, 94.68354,50.00000,48.00000,3.831417e-09,0.92600,3
239.392,28.72500,      8.63970, 94.65589,50.00000,48.00000,3.830710e-09,0.92598,3
240.947,28.79000,      8.63487, 94.62846,50.00000,48.00000,3.830710e-09,0.92598,3
242.513,28.85500,      8.62851, 94.57093,50.00000,48.00000,3.834170e-09,0.92596,3
244.059,28.92000,      8.62220, 94.53638,50.00000,48.00000,3.834170e-09,0.92596,3
245.614,28.98500,      8.61397, 94.50874,50.00000,48.00000,3.834170e-09,0.92596,3
247.165,29.05000,      8.60314, 94.44898,50.00000,48.00000,3.832880e-09,0.92594,3
248.701,29.11500,      8.59034, 94.38923,50.00000,48.00000,3.832880e-09,0.92594,3
250.234,29.18000,      8.57957, 94.35935,50.00000,48.00000,3.829281e-09,0.92591,3
251.786,29.24500,      8.56564, 94.29492,50.00000,48.00000,3.829281e-09,0.92591,3
253.323,29.31000,      8.54971, 94.23293,50.00000,48.00000,3.829281e-09,0.92591,3
254.855,29.37500,      8.53467, 94.16382,50.00000,48.00000,3.838476e-09,0.92589,3
256.373,29.44000,      8.51782, 94.09715,50.00000,48.00000,3.838476e-09,0.92589,3
257.914,29.50500,      8.50117, 93.99146,50.00000,48.00000,3.835826e-09,0.92586,3
259.422,29.57000,      8.48103, 93.95000,50.00000,48.00000,3.835826e-09,0.92586,3
260.949,29.63500,      8.46424, 93.87419,50.00000,48.00000,3.835826e-09,0.92586,3
262.453,29.70000,      8.44402, 93.79146,50.00000,48.00000,3.829110e-09,0.92583,3
263.969,29.76500,      8.42352, 93.72012,50.00000,48.00000,3.829110e-09,0.92583,3
265.478,29.83000,      8.40179, 93.62358,50.00000,48.00000,3.829657e-09,0.92580,3
266.989,29.89500,      8.38176, 93.54065,50.00000,48.00000,3.829657e-09,0.92580,3
268.5,29.96000,      8.36190, 93.44654,50.00000,48.00000,3.829657e-09,0.92580,3
269.996,30.02500,      8.33826, 93.33841,50.00000,48.00000,3.830888e-09,0.92577,3
271.497,30.09000,      8.31577, 93.26240,50.00000,48.00000,3.830888e-09,0.92577,3
273,30.15500,      8.29383, 93.18211,50.00000,48.00000,3.830888e-09,0.92577,3
274.482,30.22000,      8.26976, 93.04634,50.00000,48.00000,3.825897e-09,0.92574,3
275.96,30.28500,      8.24752, 92.91077,50.00000,48.00000,3.825897e-09,0.92574,3
277.443,30.35000,      8.22203, 92.82785,50.00000,48.00000,3.834345e-09,0.92571,3
278.924,30.41500,      8.20012, 92.71992,50.00000,48.00000,3.834345e-09,0.92571,3
280.405,30.48000,      8.17336, 92.57033,50.00000,48.00000,3.834345e-09,0.92571,3
281.877,30.54500,      8.14838, 92.43923,50.00000,48.00000,3.832921e-09,0.92567,3
283.339,30.61000,      8.12384, 92.32439,50.00000,48.00000,3.832921e-09,0.92567,3
284.798,30.67500,      8.09981, 92.16565,50.00000,48.00000,3.829314e-09,0.92564,3
286.268,30.74000,      8.07447, 92.03679,50.00000,48.00000,3.829314e-09,0.92564,3
287.713,30.80500,      8.05524, 91.96789,50.00000,48.00000,3.829314e-09,0.92564,3
289.18,30.87000,      8.03910, 91.73801,50.00000,48.00000,3.829408e-09,0.92561,3
290.621,30.93500,      8.02211, 91.57236,50.00000,48.00000,3.829408e-09,0.92561,3
292.072,31.00000,      8.00031, 91.41138,50.00000,48.00000,3.827120e-09,0.92557,3
293.513,31.06500,      7.97855, 91.21138,50.00000,48.00000,3.827120e-09,0.92557,3
294.952,31.13000,      7.95399, 91.03659,50.00000,48.00000,3.827120e-09,0.92557,3
296.388,31.19500,      7.93326, 90.88720,50.00000,48.00000,3.828897e-09,0.92553,3
297.822,31.26000,      7.90952, 90.66646,50.00000,48.00000,3.828897e-09,0.92553,3
299.248,31.32500,      7.88997, 90.47561,50.00000,48.00000,3.834272e-09,0.92549,3
300.681,31.39000,      7.86907, 90.28232,50.00000,48.00000,3.834272e-09,0.92549,3
302.108,31.45500,      7.85023, 90.02480,50.00000,48.00000,3.834272e-09,0.92549,3
303.518,31.52000,      7.83099, 89.82012,50.00000,48.00000,3.833836e-09,0.92545,3
304.936,31.58500,      7.81534, 89.58333,50.00000,48.00000,3.833836e-09,0.92545,3
306.347,31.65000,      7.79721, 89.34878,50.00000,48.00000,3.824803e-09,0.92541,3
307.752,31.71500,      7.79748, 89.09593,50.00000,48.00000,3.824803e-09,0.92541,3
309.16,31.78000,      7.78404, 88.80386,50.00000,48.00000,3.824803e-09,0.92541,3
310.569,31.84500,      7.77258, 88.58537,50.00000,48.00000,3.833655e-09,0.92537,3
311.974,31.91000,      7.76146, 88.30020,50.00000,48.00000,3.833655e-09,0.92537,3
313.368,31.97500,      7.74860, 88.01748,50.00000,48.00000,3.833655e-09,0.92537,3
314.764,32.04000,      7.73654, 87.72317,50.00000,48.00000,3.832361e-09,0.92532,3
316.16,32.10500,      7.72365, 87.38272,50.00000,48.00000,3.832361e-09,0.92532,3
317.562,32.17000,      7.71420, 87.11829,50.00000,48.00000,3.836516e-09,0.92528,3
318.937,32.23500,      7.70448, 86.80549,50.00000,48.00000,3.836516e-09,0.92528,3
320.32,32.30000,      7.69804, 86.47907,50.00000,48.00000,3.836516e-09,0.92528,3
321.696,32.36500,      7.68869, 86.15244,50.00000,48.00000,3.827490e-09,0.92523,3
323.076,32.43000,      7.68361, 85.81220,50.00000,48.00000,3.827490e-09,0.92523,3
324.45,32.49500,      7.69186, 85.45589,50.00000,48.00000,3.824347e-09,0.92518,3
325.822,32.56000,      7.68386, 85.05793,50.00000,48.00000,3.824347e-09,0.92518,3
327.201,32.62500,      7.68589, 84.73150,50.00000,48.00000,3.824347e-09,0.92518,3
328.563,32.69000,      7.67819, 84.35203,50.00000,48.00000,3.823457e-09,0.92513,3
329.935,32.75500,      7.67628, 84.00020,50.00000,48.00000,3.823457e-09,0.92513,3
331.3,32.82000,      7.67369, 83.58394,50.00000,48.00000,3.832815e-09,0.92509,3
332.651,32.88500,      7.67198, 83.20000,50.00000,48.00000,3.832815e-09,0.92509,3
334.012,32.95000,      7.67305, 82.76992,50.00000,48.00000,3.832815e-09,0.92509,3
335.367,33.01500,      7.67221, 82.37459,50.00000,48.00000,3.832608e-09,0.92504,3
336.724,33.08000,      7.67201, 81.95142,50.00000,48.00000,3.832608e-09,0.92504,3
338.071,33.14500,      7.67254, 81.53760,50.00000,48.00000,3.833878e-09,0.92498,3
339.429,33.21000,      7.67525, 81.07988,50.00000,48.00000,3.833878e-09,0.92498,3
340.779,33.27500,      7.68432, 80.67297,50.00000,48.00000,3.833878e-09,0.92498,3
342.119,33.34000,      7.70639, 80.24289,50.00000,48.00000,3.831197e-09,0.92493,3
343.47,33.40500,      7.70849, 79.79675,50.00000,48.00000,3.831197e-09,0.92493,3
344.802,33.47000,      7.71186, 79.29776,50.00000,48.00000,3.831197e-09,0.92493,3
346.138,33.53500,      7.72134, 78.81728,50.00000,48.00000,3.833298e-09,0.92488,3
347.481,33.60000,      7.72716, 78.36199,50.00000,48.00000,3.833298e-09,0.92488,3
348.822,33.66500,      7.73067, 77.88821,50.00000,48.00000,3.831873e-09,0.92482,3
350.159,33.73000,      7.73583, 77.35935,50.00000,48.00000,3.831873e-09,0.92482,3
351.485,33.79500,      7.74195, 76.92012,50.00000,48.00000,3.831873e-09,0.92482,3
352.821,33.86000,      7.74504, 76.39350,50.00000,48.00000,3.823191e-09,0.92476,3
354.149,33.92500,      7.74931, 75.88780,50.00000,48.00000,3.823191e-09,0.92476,3
355.477,33.99000,      7.75423, 75.35183,50.00000,48.00000,3.823983e-09,0.92471,3
356.8,34.05500,      7.76081, 74.82764,50.00000,48.00000,3.823983e-09,0.92471,3
358.13,34.12000,      7.78887, 74.29411,50.00000,48.00000,3.823983e-09,0.92471,3
359.457,34.18500,      7.79513, 73.76077,50.00000,48.00000,3.832567e-09,0.92465,3
360.777,34.25000,      7.80262, 73.14898,50.00000,48.00000,3.832567e-09,0.92465,3
362.092,34.31500,      7.80837, 72.60630,50.00000,48.00000,3.830821e-09,0.92459,3
363.415,34.38000,      7.82041, 72.02459,50.00000,48.00000,3.830821e-09,0.92459,3
364.739,34.44500,      7.85108, 71.49350,50.00000,48.00000,3.830821e-09,0.92459,3
366.052,34.51000,      7.84963, 70.86341,50.00000,48.00000,3.833263e-09,0.92453,3
367.371,34.57500,      7.87610, 70.29085,50.00000,48.00000,3.833263e-09,0.92453,3
368.699,34.64000,      7.87912, 69.63780,50.00000,48.00000,3.834906e-09,0.92447,3
369.999,34.70500,      7.88229, 69.03293,50.00000,48.00000,3.834906e-09,0.92447,3
371.321,34.77000,      7.90530, 68.36159,50.00000,48.00000,3.834906e-09,0.92447,3
372.634,34.83500,      7.90476, 67.78902,50.00000,48.00000,3.831612e-09,0.92440,3
373.955,34.90000,      7.90731, 67.15203,50.00000,48.00000,3.831612e-09,0.92440,3
375.256,34.96500,      7.91269, 66.51280,50.00000,48.00000,3.823154e-09,0.92434,3
376.562,35.03000,      7.92594, 65.86667,50.00000,48.00000,3.823154e-09,0.92434,3
377.869,35.09500,      7.92554, 65.19512,50.00000,48.00000,3.823154e-09,0.92434,3
379.173,35.16000,      7.92989, 64.53069,50.00000,48.00000,3.829402e-09,0.92427,3
380.49,35.22500,      7.94768, 63.84309,50.00000,48.00000,3.829402e-09,0.92427,3
381.792,35.29000,      7.95007, 63.13943,50.00000,48.00000,3.830098e-09,0.92421,3
383.095,35.35500,      7.95247, 62.47947,50.00000,48.00000,3.830098e-09,0.92421,3
384.403,35.42000,      7.96193, 61.77358,50.00000,48.00000,3.830098e-09,0.92421,3
385.7,35.48500,      7.96844, 61.09289,50.00000,48.00000,3.824737e-09,0.92414,3
386.997,35.55000,      7.97408, 60.37317,50.00000,48.00000,3.824737e-09,0.92414,3
388.297,35.61500,      7.97909, 59.67419,50.00000,48.00000,3.824737e-09,0.92414,3
389.604,35.68000,      7.98639, 58.91301,50.00000,48.00000,3.839147e-09,0.92407,3
390.907,35.74500,      7.99476, 58.17256,50.00000,48.00000,3.839147e-09,0.92407,3
392.194,35.81000,      8.00032, 57.39309,50.00000,48.00000,3.832902e-09,0.92400,3
393.491,35.87500,      8.00443, 56.58821,50.00000,48.00000,3.832902e-09,0.92400,3
394.792,35.94000,      8.01148, 55.86626,50.00000,48.00000,3.832902e-09,0.92400,3
396.087,36.00500,      8.02493, 55.11199,50.00000,48.00000,3.825511e-09,0.92394,3
397.386,36.07000,      8.03220, 54.27724,50.00000,48.00000,3.825511e-09,0.92394,3
398.683,36.13500,      8.04013, 53.46321,50.00000,48.00000,3.824552e-09,0.92386,3
399.969,36.20000,      8.05310, 52.64919,50.00000,48.00000,3.824552e-09,0.92386,3
401.268,36.26500,      8.06264, 51.76850,50.00000,48.00000,3.824552e-09,0.92386,3
402.562,36.33000,      8.07238, 50.88557,50.00000,48.00000,3.836682e-09,0.92379,3
403.848,36.39500,      8.08452, 50.06016,50.00000,48.00000,3.836682e-09,0.92379,3
405.149,36.46000,      8.09887, 49.15407,50.00000,48.00000,3.833958e-09,0.92372,3
406.439,36.52500,      8.11132, 48.28252,50.00000,48.00000,3.833958e-09,0.92372,3
407.741,36.59000,      8.12348, 47.32134,50.00000,48.00000,3.833958e-09,0.92372,3
409.023,36.65500,      8.13680, 46.41301,50.00000,48.00000,3.827874e-09,0.92365,3
410.31,36.72000,      8.15088, 45.41504,50.00000,48.00000,3.827874e-09,0.92365,3
411.612,36.78500,      8.16765, 44.45630,50.00000,48.00000,3.836009e-09,0.92357,3
412.889,36.85000,      8.17690, 43.42846,50.00000,48.00000,3.836009e-09,0.92357,3
414.183,36.91500,      8.18588, 42.46484,50.00000,48.00000,3.836009e-09,0.92357,3
415.471,36.98000,      8.19458, 41.40711,50.00000,48.00000,3.834102e-09,0.92349,3
416.762,37.04500,      8.20332, 40.40224,50.00000,48.00000,3.834102e-09,0.92349,3
418.048,37.11000,      8.21155, 39.29390,50.00000,48.00000,3.830252e-09,0.92342,3
419.339,37.17500,      8.22053, 38.27988,50.00000,48.00000,3.830252e-09,0.92342,3
420.631,37.24000,      8.22746, 37.15772,50.00000,48.00000,3.830252e-09,0.92342,3
421.916,37.30500,      8.23269, 36.02642,50.00000,48.00000,3.824475e-09,0.92334,3
423.201,37.37000,      8.24554, 34.89959,50.00000,48.00000,3.824475e-09,0.92334,3
424.495,37.43500,      8.25110, 33.84654,50.00000,48.00000,3.824475e-09,0.92334,3
425.779,37.50000,      8.25354, 32.65996,50.00000,48.00000,3.829284e-09,0.92326,3
427.073,37.56500,      8.25374, 31.57012,50.00000,48.00000,3.829284e-09,0.92326,3
428.356,37.63000,      8.25170, 30.38130,50.00000,48.00000,3.830390e-09,0.92318,3
429.652,37.69500,      8.24838, 29.26606,50.00000,48.00000,3.830390e-09,0.92318,3
430.928,37.76000,      8.24363, 28.12073,50.00000,48.00000,3.830390e-09,0.92318,3
432.225,37.82500,      8.23813, 26.94350,50.00000,48.00000,3.829482e-09,0.92310,3
433.504,37.89000,      8.22957, 25.76382,50.00000,48.00000,3.829482e-09,0.92310,3
434.79,37.95500,      8.23300, 24.66931,50.00000,48.00000,3.828537e-09,0.92302,3
436.07,38.02000,      8.20979, 23.50122,50.00000,48.00000,3.828537e-09,0.92302,3
437.375,38.08500,      8.19121, 22.39289,50.00000,48.00000,3.828537e-09,0.92302,3
438.645,38.15000,      8.16745, 21.22703,50.00000,48.00000,3.830940e-09,0.92294,3
439.923,38.21500,      8.14129, 20.15325,50.00000,48.00000,3.830940e-09,0.92294,3
441.212,38.28000,      8.11041, 19.01260,50.00000,48.00000,3.834242e-09,0.92285,3
442.492,38.34500,      8.07905, 17.93882,50.00000,48.00000,3.834242e-09,0.92285,3
443.791,38.41000,      8.04135, 16.84431,50.00000,48.00000,3.834242e-09,0.92285,3
445.077,38.47500,      7.99907, 15.86463,50.00000,48.00000,3.825585e-09,0.92276,3
446.357,38.54000,      7.95321, 14.85061,50.00000,48.00000,3.825585e-09,0.92276,3
447.639,38.60500,      7.90766, 13.88252,50.00000,48.00000,3.828463e-09,0.92268,3
448.917,38.67000,      7.85064, 12.88923,50.00000,48.00000,3.828463e-09,0.92268,3
450.204,38.73500,      7.80259, 11.99919,50.00000,48.00000,3.828463e-09,0.92268,3
451.491,38.80000,      7.74452, 11.09776,50.00000,48.00000,3.830867e-09,0.92260,3
452.776,38.86500,      7.68018, 10.20793,50.00000,48.00000,3.830867e-09,0.92260,3
454.056,38.93000,      7.62083,  9.42378,50.00000,48.00000,3.830867e-09,0.92260,3
455.352,38.99500,      7.55611,  8.75935,50.00000,48.00000,3.829914e-09,0.92251,3
456.633,39.06000,      7.49050,  8.02805,50.00000,48.00000,3.829914e-09,0.92251,3
457.909,39.12500,      7.42942,  7.34045,50.00000,48.00000,3.821257e-09,0.92242,3
459.196,39.19000,      7.36531,  6.65752,50.00000,48.00000,3.821257e-09,0.92242,3
460.476,39.25500,      7.29140,  6.05508,50.00000,48.00000,3.821257e-09,0.92242,3
461.754,39.32000,      7.22304,  5.42967,50.00000,48.00000,3.828050e-09,0.92233,3
463.041,39.38500,      7.15522,  4.91220,50.00000,48.00000,3.828050e-09,0.92233,3
464.326,39.45000,      7.09079,  4.40874,50.00000,48.00000,3.828181e-09,0.92224,3
465.603,39.51500,      7.02505,  3.99939,50.00000,48.00000,3.828181e-09,0.92224,3
466.89,39.58000,      6.96552,  3.50041,50.00000,48.00000,3.828181e-09,0.92224,3
468.165,39.64500,      6.90932,  3.12337,50.00000,48.00000,3.834291e-09,0.92216,3
469.45,39.71000,      6.84931,  2.74614,50.00000,48.00000,3.834291e-09,0.92216,3
470.73,39.77500,      6.79272,  2.42663,50.00000,48.00000,3.831702e-09,0.92209,3
472.009,39.84000,      6.74008,  2.14146,50.00000,48.00000,3.831702e-09,0.92209,3
473.294,39.90500,      6.68729,  1.90000,50.00000,48.00000,3.831702e-09,0.92209,3
474.571,39.97000,      6.63892,  1.64248,50.00000,48.00000,3.832829e-09,0.92202,3
475.853,40.03500,      6.59535,  1.43089,50.00000,48.00000,3.832829e-09,0.92202,3
477.138,40.10000,      6.55437,  1.21463,50.00000,48.00000,3.823828e-09,0.92195,3
478.424,40.16500,      6.51397,  1.08598,50.00000,48.00000,3.823828e-09,0.92195,3
479.711,40.23000,      6.47864,  0.92276,50.00000,48.00000,3.823828e-09,0.92195,3
480.986,40.29500,      6.44506,  0.78699,50.00000,48.00000,3.832621e-09,0.92188,3
482.276,40.36000,      6.41571,  0.67215,50.00000,48.00000,3.832621e-09,0.92188,3
483.553,40.42500,      6.38787,  0.58923,50.00000,48.00000,3.832621e-09,0.92188,3
484.84,40.49000,      6.36124,  0.49492,50.00000,48.00000,3.837568e-09,0.92181,3
486.119,40.55500,      6.33544,  0.43516,50.00000,48.00000,3.837568e-09,0.92181,3
487.401,40.62000,      6.30929,  0.38232,50.00000,48.00000,3.827652e-09,0.92174,3
488.691,40.68500,      6.28258,  0.34776,50.00000,48.00000,3.827652e-09,0.92174,3
489.961,40.75000,      6.25257,  0.32033,50.00000,48.00000,3.827652e-09,0.92174,3
491.248,40.81500,      6.22938,  0.29268,50.00000,48.00000,3.822213e-09,0.92168,3
492.528,40.88000,      6.20477,  0.29268,50.00000,48.00000,3.822213e-09,0.92168,3
493.81,40.94500,      6.18260,  0.26504,50.00000,48.00000,3.828792e-09,0.92161,3
495.098,41.01000,      6.15935,  0.24431,50.00000,48.00000,3.828792e-09,0.92161,3
496.379,41.07500,      6.13849,  0.23740,50.00000,48.00000,3.828792e-09,0.92161,3
497.673,41.14000,      6.11890,  0.20996,50.00000,48.00000,3.827851e-09,0.92154,3
498.946,41.20500,      6.10058,  0.20996,50.00000,48.00000,3.827851e-09,0.92154,3
500.227,41.27000,      6.08173,  0.20996,50.00000,48.00000,3.831246e-09,0.92147,3
501.504,41.33500,      6.06633,  0.20996,50.00000,48.00000,3.831246e-09,0.92147,3
502.79,41.40000,      6.03143,  0.22358,50.00000,48.00000,3.831246e-09,0.92147,3
504.081,41.46500,      6.02597,  0.22358,50.00000,48.00000,3.831206e-09,0.92141,3
505.358,41.53000,      6.01701,  0.22358,50.00000,48.00000,3.831206e-09,0.92141,3
506.641,41.59500,      6.00881,  0.22358,50.00000,48.00000,3.827923e-09,0.92134,3
507.925,41.66000,      5.99824,  0.25813,50.00000,48.00000,3.827923e-09,0.92134,3
509.197,41.72500,      5.98466,  0.25813,50.00000,48.00000,3.827923e-09,0.92134,3
510.491,41.79000,      5.97325,  0.23049,50.00000,48.00000,3.833779e-09,0.92128,3
511.783,41.85500,      5.96227,  0.23049,50.00000,48.00000,3.833779e-09,0.92128,3
513.05,41.92000,      5.94609,  0.23049,50.00000,48.00000,3.833779e-09,0.92128,3
514.333,41.98500,      5.93178,  0.23049,50.00000,48.00000,3.827078e-09,0.92122,3
515.611,42.05000,      5.91918,  0.23049,50.00000,48.00000,3.827078e-09,0.92122,3
516.885,42.11500,      5.90569,  0.23049,50.00000,48.00000,3.826769e-09,0.92116,3
518.175,42.18000,      5.89329,  0.23049,50.00000,48.00000,3.826769e-09,0.92116,3
519.459,42.24500,      5.87842,  0.23049,50.00000,48.00000,3.826769e-09,0.92116,3
520.741,42.31000,      5.86451,  0.23049,50.00000,48.00000,3.830136e-09,0.92110,3
522.023,42.37500,      5.85367,  0.23049,50.00000,48.00000,3.830136e-09,0.92110,3
523.322,42.44000,      5.84026,  0.25813,50.00000,48.00000,3.825837e-09,0.92104,3
524.595,42.50500,      5.82447,  0.23049,50.00000,48.00000,3.825837e-09,0.92104,3
525.883,42.57000,      5.81241,  0.23049,50.00000,48.00000,3.825837e-09,0.92104,3
527.167,42.63500,      5.79813,  0.23049,50.00000,48.00000,3.824158e-09,0.92098,3
528.444,42.70000,      5.78558,  0.23049,50.00000,48.00000,3.824158e-09,0.92098,3
529.73,42.76500,      5.76958,  0.23049,50.00000,48.00000,3.832083e-09,0.92092,3
531.026,42.83000,      5.75914,  0.25813,50.00000,48.00000,3.832083e-09,0.92092,3
532.312,42.89500,      5.74458,  0.25813,50.00000,48.00000,3.832083e-09,0.92092,3
533.594,42.96000,      5.73230,  0.25813,50.00000,48.00000,3.827338e-09,0.92087,3
534.884,43.02500,      5.71949,  0.25813,50.00000,48.00000,3.827338e-09,0.92087,3
536.165,43.09000,      5.70493,  0.28577,50.00000,48.00000,3.821635e-09,0.92081,3
537.457,43.15500,      5.68903,  0.27195,50.00000,48.00000,3.821635e-09,0.92081,3
538.739,43.22000,      5.67646,  0.26504,50.00000,48.00000,3.821635e-09,0.92081,3
540.032,43.28500,      5.66095,  0.26504,50.00000,48.00000,3.830085e-09,0.92076,3
541.306,43.35000,      5.64630,  0.26504,50.00000,48.00000,3.830085e-09,0.92076,3
542.597,43.41500,      5.63439,  0.29268,50.00000,48.00000,3.830125e-09,0.92071,3
543.899,43.48000,      5.61978,  0.29268,50.00000,48.00000,3.830125e-09,0.92071,3
545.181,43.54500,      5.60686,  0.29268,50.00000,48.00000,3.830125e-09,0.92071,3
546.462,43.61000,      5.59169,  0.29268,50.00000,48.00000,3.827186e-09,0.92066,3
547.751,43.67500,      5.58083,  0.29268,50.00000,48.00000,3.827186e-09,0.92066,3
549.042,43.74000,      5.56911,  0.32033,50.00000,48.00000,3.827186e-09,0.92066,3
550.33,43.80500,      5.55240,  0.29268,50.00000,48.00000,3.828811e-09,0.92061,3
551.629,43.87000,      5.53841,  0.31341,50.00000,48.00000,3.828811e-09,0.92061,3
552.915,43.93500,      5.52562,  0.35020,50.00000,48.00000,3.834601e-09,0.92056,3
554.207,44.00000,      5.50843,  0.35020,50.00000,48.00000,3.834601e-09,0.92056,3
555.502,44.06500,      5.49501,  0.35020,50.00000,48.00000,3.834601e-09,0.92056,3
556.806,44.13000,      5.48075,  0.35020,50.00000,48.00000,3.829880e-09,0.92052,3
558.083,44.19500,      5.46569,  0.35020,50.00000,48.00000,3.829880e-09,0.92052,3
559.383,44.26000,      5.45400,  0.35711,50.00000,48.00000,3.830548e-09,0.92047,3
560.674,44.32500,      5.43475,  0.37764,50.00000,48.00000,3.830548e-09,0.92047,3
561.977,44.39000,      5.41852,  0.37764,50.00000,48.00000,3.830548e-09,0.92047,3
563.266,44.45500,      5.40461,  0.40752,50.00000,48.00000,3.828720e-09,0.92043,3
564.552,44.52000,      5.38563,  0.40752,50.00000,48.00000,3.828720e-09,0.92043,3
565.843,44.58500,      5.36825,  0.40752,50.00000,48.00000,3.827983e-09,0.92038,3
567.135,44.65000,      5.35052,  0.40752,50.00000,48.00000,3.827983e-09,0.92038,3
568.425,44.71500,      5.33102,  0.40752,50.00000,48.00000,3.827983e-09,0.92038,3
569.717,44.78000,      5.31702,  0.42134,50.00000,48.00000,3.832129e-09,0.92034,3
571.013,44.84500,      5.29739,  0.43516,50.00000,48.00000,3.832129e-09,0.92034,3
572.311,44.91000,      5.28076,  0.40305,50.00000,48.00000,3.823154e-09,0.92030,3
573.606,44.97500,      5.26319,  0.40305,50.00000,48.00000,3.823154e-09,0.92030,3
574.9,45.04000,      5.24469,  0.43069,50.00000,48.00000,3.823154e-09,0.92030,3
576.188,45.10500,      5.22636,  0.45813,50.00000,48.00000,3.832564e-09,0.92026,3
577.486,45.17000,      5.20856,  0.45813,50.00000,48.00000,3.832564e-09,0.92026,3
578.773,45.23500,      5.18836,  0.46504,50.00000,48.00000,3.832564e-09,0.92026,3
580.075,45.30000,      5.17126,  0.47886,50.00000,48.00000,3.822526e-09,0.92022,3
581.374,45.36500,      5.15293,  0.48577,50.00000,48.00000,3.822526e-09,0.92022,3
582.67,45.43000,      5.13536,  0.48577,50.00000,48.00000,3.826798e-09,0.92018,3
583.958,45.49500,      5.11454,  0.48577,50.00000,48.00000,3.826798e-09,0.92018,3
585.251,45.56000,      5.09763,  0.48577,50.00000,48.00000,3.826798e-09,0.92018,3
586.553,45.62500,      5.07870,  0.48577,50.00000,48.00000,3.819572e-09,0.92014,3
587.848,45.69000,      5.05852,  0.48577,50.00000,48.00000,3.819572e-09,0.92014,3
589.139,45.75500,      5.03709,  0.51341,50.00000,48.00000,3.826681e-09,0.92011,3
590.438,45.82000,      5.01960,  0.54106,50.00000,48.00000,3.826681e-09,0.92011,3
591.737,45.88500,      5.00175,  0.53415,50.00000,48.00000,3.826681e-09,0.92011,3
593.026,45.95000,      4.98147,  0.51118,50.00000,48.00000,3.827823e-09,0.92007,3
594.329,46.01500,      4.96234,  0.51118,50.00000,48.00000,3.827823e-09,0.92007,4
595.635,46.08000,      4.93941,  0.53862,50.00000,48.00000,3.825607e-09,0.92003,4
596.921,46.14500,      4.91857,  0.53862,50.00000,48.00000,3.825607e-09,0.92003,4
598.213,46.21000,      4.89250,  0.53862,50.00000,48.00000,3.825607e-09,0.92003,4
599.512,46.27500,      4.86753,  0.53862,50.00000,48.00000,3.825772e-09,0.92000,4
600.8,46.34000,      4.84412,  0.53862,50.00000,48.00000,3.825772e-09,0.92000,4
602.087,46.40500,      4.82004,  0.53862,50.00000,48.00000,3.829390e-09,0.91996,4
603.385,46.47000,      4.79217,  0.58699,50.00000,48.00000,3.829390e-09,0.91996,4
604.677,46.53500,      4.76879,  0.59390,50.00000,48.00000,3.829390e-09,0.91996,4
605.974,46.60000,      4.74680,  0.59390,50.00000,48.00000,3.828242e-09,0.91993,4
607.27,46.66500,      4.72703,  0.56626,50.00000,48.00000,3.828242e-09,0.91993,4
608.56,46.73000,      4.70280,  0.56626,50.00000,48.00000,3.828242e-09,0.91993,4
609.86,46.79500,      4.68172,  0.56626,50.00000,48.00000,3.822093e-09,0.91989,4
611.157,46.86000,      4.66026,  0.58008,50.00000,48.00000,3.822093e-09,0.91989,4
612.455,46.92500,      4.63842,  0.59390,50.00000,48.00000,3.828981e-09,0.91986,4
613.759,46.99000,      4.62062,  0.62154,50.00000,48.00000,3.828981e-09,0.91986,4
615.055,47.05500,      4.60066,  0.62154,50.00000,48.00000,3.828981e-09,0.91986,4
616.355,47.12000,      4.57565,  0.59390,50.00000,48.00000,3.827801e-09,0.91982,4
617.651,47.18500,      4.55405,  0.59390,50.00000,48.00000,3.827801e-09,0.91982,4
618.957,47.25000,      4.53242,  0.57317,50.00000,48.00000,3.827167e-09,0.91980,4
620.256,47.31500,      4.50949,  0.60081,50.00000,48.00000,3.827167e-09,0.91980,4
621.559,47.38000,      4.48531,  0.60081,50.00000,48.00000,3.827167e-09,0.91980,4
622.849,47.44500,      4.46158,  0.60081,50.00000,48.00000,3.827320e-09,0.91976,4
624.167,47.51000,      4.43345,  0.60081,50.00000,48.00000,3.827320e-09,0.91976,4
625.455,47.57500,      4.40627,  0.60081,50.00000,48.00000,3.826904e-09,0.91973,4
626.759,47.64000,      4.37995,  0.62846,50.00000,48.00000,3.826904e-09,0.91973,4
628.051,47.70500,      4.35229,  0.62846,50.00000,48.00000,3.826904e-09,0.91973,4
629.353,47.77000,      4.32518,  0.62846,50.00000,48.00000,3.821572e-09,0.91970,4
630.661,47.83500,      4.29562,  0.62846,50.00000,48.00000,3.821572e-09,0.91970,4
631.961,47.90000,      4.26682,  0.65589,50.00000,48.00000,3.821572e-09,0.91970,4
633.249,47.96500,      4.23816,  0.65589,50.00000,48.00000,3.827892e-09,0.91967,4
634.557,48.03000,      4.20920,  0.66972,50.00000,48.00000,3.827892e-09,0.91967,4
635.857,48.09500,      4.18099,  0.66972,50.00000,48.00000,3.830590e-09,0.91964,4
637.15,48.16000,      4.14997,  0.66972,50.00000,48.00000,3.830590e-09,0.91964,4
638.452,48.22500,      4.12218,  0.66972,50.00000,48.00000,3.830590e-09,0.91964,4
639.759,48.29000,      4.09101,  0.66972,50.00000,48.00000,3.830494e-09,0.91961,4
641.058,48.35500,      4.05489,  0.68354,50.00000,48.00000,3.830494e-09,0.91961,4
642.354,48.42000,      4.02588,  0.68354,50.00000,48.00000,3.825417e-09,0.91958,4
643.655,48.48500,      3.99347,  0.65142,50.00000,48.00000,3.825417e-09,0.91958,4
644.95,48.55000,      3.95972,  0.68130,50.00000,48.00000,3.825417e-09,0.91958,4
646.252,48.61500,      3.92801,  0.68130,50.00000,48.00000,3.829206e-09,0.91955,4
647.556,48.68000,      3.89591,  0.68130,50.00000,48.00000,3.829206e-09,0.91955,4
648.847,48.74500,      3.86426,  0.70894,50.00000,48.00000,3.828519e-09,0.91953,4
650.158,48.81000,      3.82894,  0.70894,50.00000,48.00000,3.828519e-09,0.91953,4
651.457,48.87500,      3.79893,  0.70894,50.00000,48.00000,3.828519e-09,0.91953,4
652.762,48.94000,      3.76399,  0.70894,50.00000,48.00000,3.833557e-09,0.91950,4
654.056,49.00500,      3.73316,  0.73638,50.00000,48.00000,3.833557e-09,0.91950,4
655.365,49.07000,      3.69954,  0.73638,50.00000,48.00000,3.833738e-09,0.91947,4
656.67,49.13500,      3.66672,  0.72256,50.00000,48.00000,3.833738e-09,0.91947,4
657.983,49.20000,      3.62955,  0.70894,50.00000,48.00000,3.833738e-09,0.91947,4
659.28,49.26500,      3.59404,  0.70894,50.00000,48.00000,3.825754e-09,0.91945,4
660.586,49.33000,      3.55784,  0.72947,50.00000,48.00000,3.825754e-09,0.91945,4
661.879,49.39500,      3.52303,  0.76870,50.00000,48.00000,3.840871e-09,0.91942,4
663.189,49.46000,      3.48417,  0.74106,50.00000,48.00000,3.840871e-09,0.91942,4
664.493,49.52500,      3.44549,  0.74106,50.00000,48.00000,3.840871e-09,0.91942,4
665.783,49.59000,      3.40695,  0.72033,50.00000,48.00000,3.833602e-09,0.91939,4
667.102,49.65500,      3.36531,  0.72033,50.00000,48.00000,3.833602e-09,0.91939,4
668.399,49.72000,      3.32471,  0.74797,50.00000,48.00000,3.828418e-09,0.91937,4
669.704,49.78500,      3.28185,  0.74797,50.00000,48.00000,3.828418e-09,0.91937,4
671.011,49.85000,      3.24384,  0.77561,50.00000,48.00000,3.828418e-09,0.91937,4
672.313,49.91500,      3.19794,  0.77561,50.00000,48.00000,3.833434e-09,0.91934,4
673.618,49.98000,      3.15690,  0.77561,50.00000,48.00000,3.833434e-09,0.91934,4
674.91,50.04500,      3.11445,  0.77561,50.00000,48.00000,3.833434e-09,0.91934,4
676.215,50.11000,      3.06726,  0.77561,50.00000,48.00000,3.825460e-09,0.91932,4
677.523,50.17500,      3.02275,  0.77561,50.00000,48.00000,3.825460e-09,0.91932,4
678.821,50.24000,      2.97996,  0.77561,50.00000,48.00000,3.821502e-09,0.91930,4
680.126,50.30500,      2.93113,  0.80305,50.00000,48.00000,3.821502e-09,0.91930,4
681.441,50.37000,      2.88689,  0.80305,50.00000,48.00000,3.821502e-09,0.91930,4
682.737,50.43500,      2.83840,  0.80305,50.00000,48.00000,3.823381e-09,0.91928,4
684.033,50.50000,      2.79355,  0.80305,50.00000,48.00000,3.823381e-09,0.91928,4
685.343,50.56500,      2.74422,  0.80305,50.00000,48.00000,3.825482e-09,0.91925,4
686.651,50.63000,      2.69663,  0.80305,50.00000,48.00000,3.825482e-09,0.91925,4
687.965,50.69500,      2.64862,  0.83069,50.00000,48.00000,3.825482e-09,0.91925,4
689.262,50.76000,      2.59980,  0.83069,50.00000,48.00000,3.823653e-09,0.91923,4
690.574,50.82500,      2.55058,  0.80305,50.00000,48.00000,3.823653e-09,0.91923,4
691.876,50.89000,      2.50089,  0.80305,50.00000,48.00000,3.827977e-09,0.91921,4
693.189,50.95500,      2.44729,  0.82378,50.00000,48.00000,3.827977e-09,0.91921,4
694.479,51.02000,      2.39730,  0.83069,50.00000,48.00000,3.827977e-09,0.91921,4
695.801,51.08500,      2.34472,  0.83069,50.00000,48.00000,3.830700e-09,0.91920,4
697.108,51.15000,      2.29101,  0.83069,50.00000,48.00000,3.830700e-09,0.91920,4
698.403,51.21500,      2.23842,  0.83069,50.00000,48.00000,3.836064e-09,0.91917,4
699.722,51.28000,      2.18095,  0.83069,50.00000,48.00000,3.836064e-09,0.91917,4
701.029,51.34500,      2.12747,  0.83069,50.00000,48.00000,3.836064e-09,0.91917,4
702.33,51.41000,      2.07032,  0.84451,50.00000,48.00000,3.826283e-09,0.91915,4
703.63,51.47500,      2.01207,  0.84451,50.00000,48.00000,3.826283e-09,0.91915,4
704.934,51.54000,      1.96008,  0.84451,50.00000,48.00000,3.826283e-09,0.91915,4
706.257,51.60500,      1.90702,  0.85833,50.00000,48.00000,3.834586e-09,0.91914,4
707.558,51.67000,      1.84931,  0.83760,50.00000,48.00000,3.834586e-09,0.91914,4
708.874,51.73500,      1.78762,  0.83760,50.00000,48.00000,3.828938e-09,0.91912,4
710.178,51.80000,      1.72801,  0.86524,50.00000,48.00000,3.828938e-09,0.91912,4
711.493,51.86500,      1.67374,  0.86524,50.00000,48.00000,3.828938e-09,0.91912,4
712.798,51.93000,      1.61191,  0.86524,50.00000,48.00000,3.826043e-09,0.91910,4
714.11,51.99500,      1.55219,  0.89289,50.00000,48.00000,3.826043e-09,0.91910,4
715.421,52.06000,      1.49006,  0.89289,50.00000,48.00000,3.823935e-09,0.91909,4
716.725,52.12500,      1.42615,  0.86524,50.00000,48.00000,3.823935e-09,0.91909,4
718.028,52.19000,      1.36209,  0.86524,50.00000,48.00000,3.823935e-09,0.91909,4
719.351,52.25500,      1.29789,  0.89289,50.00000,48.00000,3.831726e-09,0.91907,4
720.653,52.32000,      1.23254,  0.89289,50.00000,48.00000,3.831726e-09,0.91907,4
721.967,52.38500,      1.16866,  0.89289,50.00000,48.00000,3.828388e-09,0.91906,4
723.265,52.45000,      1.10039,  0.89289,50.00000,48.00000,3.828388e-09,0.91906,4
724.57,52.51500,      1.03424,  0.89289,50.00000,48.00000,3.828388e-09,0.91906,4
725.876,52.58000,      0.96988,  0.89289,50.00000,48.00000,3.836120e-09,0.91904,4
727.18,52.64500,      0.90309,  0.89289,50.00000,48.00000,3.836120e-09,0.91904,4
728.5,52.71000,      0.83222,  0.92033,50.00000,48.00000,3.833917e-09,0.91903,4
729.81,52.77500,      0.76806,  0.92033,50.00000,48.00000,3.833917e-09,0.91903,4
731.111,52.84000,      0.69750,  0.92033,50.00000,48.00000,3.833917e-09,0.91903,4
732.415,52.90500,      0.62744,  0.92033,50.00000,48.00000,3.834917e-09,0.91902,4
733.729,52.97000,      0.56083,  0.93415,50.00000,48.00000,3.834917e-09,0.91902,4
735.026,53.03500,      0.48879,  0.93415,50.00000,48.00000,3.836329e-09,0.91901,4
736.339,53.10000,      0.41757,  0.93415,50.00000,48.00000,3.836329e-09,0.91901,4
737.651,53.16500,      0.34487,  0.93415,50.00000,48.00000,3.836329e-09,0.91901,4
738.976,53.23000,      0.27464,  0.93415,50.00000,48.00000,3.836397e-09,0.91900,4
740.272,53.29500,      0.20357,  0.93415,50.00000,48.00000,3.836397e-09,0.91900,4
741.588,53.36000,      0.12904,  0.93415,50.00000,48.00000,3.836397e-09,0.91900,4
742.891,53.42500, 5.796873e-02,  0.93415,50.00000,48.00000,3.831571e-09,0.91899,4
744.202,53.49000,-1.558698e-02,  0.94797,50.00000,48.00000,3.831571e-09,0.91899,4
745.509,53.55500,-8.765454e-02,  0.94797,50.00000,48.00000,3.828846e-09,0.91897,4
746.821,53.62000,     -0.16255,  0.94797,50.00000,48.00000,3.828846e-09,0.91897,4
748.135,53.68500,     -0.23962,  0.96870,50.00000,48.00000,3.828846e-09,0.91897,4
749.431,53.75000,     -0.31520,  0.97561,50.00000,48.00000,3.829754e-09,0.91897,4
750.74,53.81500,     -0.38862,  0.97561,50.00000,48.00000,3.829754e-09,0.91897,4
752.054,53.88000,     -0.46755,  0.97561,50.00000,48.00000,3.836705e-09,0.91896,4
753.353,53.94500,     -0.54065,  0.97561,50.00000,48.00000,3.836705e-09,0.91896,4
754.671,54.01000,     -0.61928,  0.97561,50.00000,48.00000,3.836705e-09,0.91896,4
755.973,54.07500,     -0.69473,  0.99634,50.00000,48.00000,3.835849e-09,0.91895,4
757.283,54.14000,     -0.77204,  1.00325,50.00000,48.00000,3.835849e-09,0.91895,4
758.593,54.20500,     -0.84987,  1.00325,50.00000,48.00000,3.827137e-09,0.91894,4
759.903,54.27000,     -0.92652,  1.00325,50.00000,48.00000,3.827137e-09,0.91894,4
761.209,54.33500,     -1.00437,  1.00325,50.00000,48.00000,3.827137e-09,0.91894,4
762.518,54.40000,     -1.07970,  1.03069,50.00000,48.00000,3.833028e-09,0.91893,4
763.83,54.46500,     -1.15824,  1.03069,50.00000,48.00000,3.833028e-09,0.91893,4
765.133,54.53000,     -1.23493,  1.03069,50.00000,48.00000,3.831153e-09,0.91893,4
766.447,54.59500,     -1.31079,  1.03069,50.00000,48.00000,3.831153e-09,0.91893,4
767.751,54.66000,     -1.38343,  1.03069,50.00000,48.00000,3.831153e-09,0.91893,4
769.066,54.72500,     -1.46235,  1.03069,50.00000,48.00000,3.823085e-09,0.91892,4
770.37,54.79000,     -1.53228,  1.03069,50.00000,48.00000,3.823085e-09,0.91892,4
771.683,54.85500,     -1.61053,  1.03069,50.00000,48.00000,3.821081e-09,0.91891,4
772.985,54.92000,     -1.68283,  1.03069,50.00000,48.00000,3.821081e-09,0.91891,4
774.301,54.98500,     -1.75872,  1.05833,50.00000,48.00000,3.821081e-09,0.91891,4
775.605,55.05000,     -1.83647,  1.03069,50.00000,48.00000,3.837773e-09,0.91891,4
776.908,55.11500,     -1.91201,  1.03069,50.00000,48.00000,3.837773e-09,0.91891,4
778.221,55.18000,     -1.98671,  1.03069,50.00000,48.00000,3.829769e-09,0.91891,4
779.538,55.24500,     -2.05955,  1.05833,50.00000,48.00000,3.829769e-09,0.91891,4
780.831,55.31000,     -2.13901,  1.05833,50.00000,48.00000,3.829769e-09,0.91891,4
782.142,55.37500,     -2.20806,  1.07907,50.00000,48.00000,3.833673e-09,0.91890,4
783.458,55.44000,     -2.28518,  1.07907,50.00000,48.00000,3.833673e-09,0.91890,4
784.759,55.50500,     -2.35557,  1.07907,50.00000,48.00000,3.828690e-09,0.91890,4
786.076,55.57000,     -2.43270,  1.07907,50.00000,48.00000,3.828690e-09,0.91890,4
787.381,55.63500,     -2.50239,  1.06524,50.00000,48.00000,3.828690e-09,0.91890,4
788.69,55.70000,     -2.57675,  1.08598,50.00000,48.00000,3.828931e-09,0.91890,4
789.989,55.76500,     -2.64503,  1.09289,50.00000,48.00000,            ,0.44890,4
791.308,55.83000,     -2.72044,  1.09289,50.00000,48.00000,            ,0.44837,4
792.614,55.89500,     -2.79150,  1.09289,50.00000,48.00000,            ,0.44785,4
793.93,55.96000,     -2.86031,  1.09289,50.00000,48.00000,            ,0.44732,4
794.728,56.00000,     -2.90260,  1.10671,50.00000,48.00000,            ,0.44700,4