File: data/TGA/ps_scf3_flynn_ozawa_wall/1K/ExpDat_2025_11_13_SL_PSSCF3_005f_J3_15K_min.csv
#EXPORTTYPE:                 ,DATA ALL
#FILE:                       ,2025_11_13_SL_PSSCF3_005f_J3_15K_min.ngb-ss5
#FORMAT:                     ,NETZSCH5
#FTYPE:                      ,ASCII
#IDENTITY:                   ,005f-J3
#DECIMAL:                    ,POINT
#SEPARATOR:                  ,COMMA
#MTYPE:                      ,DSC
#INSTRUMENT:                 ,NETZSCH STA 449F5
#PROJECT:                    ,PS
#DATE/TIME:                  ,11/13/2025 11:49:19 AM (UTC-5)
#CORR. FILE:                 ,
#TEMPCAL:                    ,05-05-2025 14:38
#SENSITIVITY:                ,28-06-2023 13:53
#LABORATORY:                 ,Tran/AAG
#OPERATOR:                   ,Stan
#REMARK:                     ,
#SAMPLE:                     ,005f-J3
#SAMPLE MASS /mg:            ,4.25
#MATERIAL:                   ,
#REFERENCE:                  ,
#REFERENCE MASS /mg:         ,0
#TYPE OF CRUCIBLE:           ,Al2O3 85 ‘l, open
#SAMPLE CRUCIBLE MASS /mg:   ,0
#REFERENCE CRUCIBLE MASS /mg:,0
#DSC RANGE /‘V:              ,5000
#TG RANGE /mg:               ,35000
#TAU-R:                      ,---
#CORR. CODE:                 ,000
#EXO:                        ,-1
#RANGE:                      ,20›C....800›C/0.0....20.0K/min
#SEGMENT:                    ,S1-4/4
#SEG. 1:                     ,20›C/5.0(K/min)/100›C
#SEG. 2:                     ,100›C/00:05/100›C
#SEG. 3:                     ,100›C/15.0(K/min)/600›C
#SEG. 4:                     ,600›C/20.0(K/min)/800›C

##Temp./›C,Time/min,DSC/(mW/mg),Mass/%,Gas Flow(purge2)/(ml/min),Gas Flow(protective)/(ml/min),TIC(scan:1)/A,Sensit./(uV/mW),Segment
 33.06700, 0.00000,      2.49373,    100,50.00000,53.00000,            ,0.92409,1
 38.02800, 0.86667,      1.59089,     97.97153,50.00000,50.00000,3.573052e-09,0.92439,1
 40.81600, 1.73333,      0.93447,     87.28118,50.00000,49.00000,3.586885e-09,0.92467,1
 42.44000, 2.60000,      0.53912,     86.59435,50.00000,49.00000,3.590045e-09,0.92490,1
 43.32500, 3.46667,      0.28747,     86.13647,50.00000,49.00000,3.599103e-09,0.92505,1
 43.75500, 4.33333,      0.12453,     85.51882,50.00000,49.00000,3.613450e-09,0.92516,1
 43.90100, 5.20000, 1.978452e-02,     85.02094,50.00000,49.00000,3.608902e-09,0.92524,1
 44.21500, 6.06667, 6.575236e-02,     84.95718,50.00000,49.00000,3.615064e-09,0.92532,1
 45.22200, 6.93333,      0.28820,     85.34847,50.00000,49.00000,3.615732e-09,0.92537,1
 47.13800, 7.80000,      0.58502,     85.89953,50.00000,49.00000,3.620077e-09,0.92541,1
 49.86000, 8.66667,      0.88405,     86.53835,50.00000,49.00000,3.619770e-09,0.92544,1
 53.39300, 9.53333,      1.17757,     87.24376,50.00000,49.00000,3.627006e-09,0.92546,1
 57.63100,10.40000,      1.45636,     87.86400,50.00000,49.00000,3.632446e-09,0.92548,1
 62.48300,11.26667,      1.70142,     88.43906,50.00000,49.00000,3.631860e-09,0.92549,1
 67.73900,12.13333,      1.90575,     88.93671,50.00000,49.00000,3.631520e-09,0.92549,1
 73.25700,13.00000,      2.06970,     89.34141,50.00000,50.00000,3.624235e-09,0.92550,1
 78.96400,13.86667,      2.19003,     89.66612,50.00000,50.00000,3.636482e-09,0.92550,1
 84.74500,14.73333,      2.27025,     89.92165,50.00000,50.00000,3.631703e-09,0.92552,1
 90.50500,15.60000,      2.30735,     90.08141,50.00000,50.00000,3.638907e-09,0.92554,1
 95.41600,16.35000,      2.29899,     90.11341,50.00000,50.00000,3.628974e-09,0.92557,2
 99.00000,17.00000,      2.05027,     89.62353,50.00000,50.00000,3.636653e-09,0.92560,2
101.61,17.65000,      1.62975,     89.06188,50.00000,50.00000,3.642356e-09,0.92563,2
103.625,18.30000,      1.28652,     88.63859,50.00000,50.00000,3.633785e-09,0.92567,2
105.251,18.95000,      1.04080,     88.23412,50.00000,50.00000,3.637553e-09,0.92572,2
106.458,19.60000,      0.81525,     87.84800,50.00000,50.00000,3.641271e-09,0.92577,2
107.268,20.25000,      0.58498,     87.41953,50.00000,50.00000,3.640080e-09,0.92582,2
107.69,20.90000,      0.37174,     87.03082,50.00000,50.00000,3.647872e-09,0.92588,2
107.752,21.07333,      0.32311,     86.93506,50.00000,50.00000,3.642061e-09,0.92589,3
107.781,21.16000,      0.29908,     86.87106,50.00000,50.00000,3.641807e-09,0.92591,3
107.818,21.24667,      0.28287,     86.87106,50.00000,50.00000,3.641807e-09,0.92591,3
107.86,21.33333,      0.27721,     86.90306,50.00000,50.00000,3.635699e-09,0.92592,3
107.942,21.42000,      0.28777,     86.96965,50.00000,50.00000,3.635699e-09,0.92592,3
108.067,21.50667,      0.31279,     87.07082,50.00000,50.00000,3.647640e-09,0.92594,3
108.206,21.59333,      0.35871,     87.21176,50.00000,50.00000,3.647640e-09,0.92594,3
108.397,21.68000,      0.42263,     87.40894,50.00000,50.00000,3.646867e-09,0.92595,3
108.645,21.76667,      0.50532,     87.61106,50.00000,50.00000,3.646867e-09,0.92595,3
108.947,21.85333,      0.61129,     87.82400,50.00000,50.00000,3.642844e-09,0.92596,3
109.283,21.94000,      0.72979,     88.05835,50.00000,50.00000,3.648157e-09,0.92598,3
109.681,22.02667,      0.86261,     88.30871,50.00000,50.00000,3.648157e-09,0.92598,3
110.128,22.11333,      1.01073,     88.58000,50.00000,50.00000,3.641703e-09,0.92599,3
110.628,22.20000,      1.16674,     88.81435,50.00000,50.00000,3.641703e-09,0.92599,3
111.177,22.28667,      1.33045,     89.02988,50.00000,50.00000,3.642163e-09,0.92600,3
111.749,22.37333,      1.49697,     89.25624,50.00000,50.00000,3.642163e-09,0.92600,3
112.364,22.46000,      1.66260,     89.47176,50.00000,50.00000,3.645574e-09,0.92602,3
113.011,22.54667,      1.82755,     89.66353,50.00000,50.00000,3.645574e-09,0.92602,3
113.686,22.63333,      1.98829,     89.84188,50.00000,50.00000,3.648454e-09,0.92603,3
114.403,22.72000,      2.14484,     90.01224,50.00000,50.00000,3.648454e-09,0.92603,3
115.12,22.80667,      2.29266,     90.18000,50.00000,50.00000,3.647411e-09,0.92604,3
115.865,22.89333,      2.43549,     90.33435,50.00000,50.00000,3.647411e-09,0.92604,3
116.64,22.98000,      2.56766,     90.46753,50.00000,50.00000,3.639916e-09,0.92605,3
117.415,23.06667,      2.69110,     90.58988,50.00000,50.00000,3.639916e-09,0.92605,3
118.206,23.15333,      2.80797,     90.65906,50.00000,50.00000,3.645258e-09,0.92607,3
119.012,23.24000,      2.91729,     90.79765,50.00000,50.00000,3.645258e-09,0.92607,3
119.837,23.32667,      3.01964,     90.92000,50.00000,50.00000,3.635828e-09,0.92608,3
120.653,23.41333,      3.11598,     91.00518,50.00000,50.00000,3.635828e-09,0.92608,3
121.501,23.50000,      3.20890,     91.12753,50.00000,50.00000,3.641884e-09,0.92609,3
122.359,23.58667,      3.29877,     91.22353,50.00000,50.00000,3.641884e-09,0.92609,3
123.251,23.67333,      3.38699,     91.33529,50.00000,50.00000,3.649921e-09,0.92610,3
124.137,23.76000,      3.47253,     91.40988,50.00000,50.00000,3.649921e-09,0.92610,3
125.049,23.84667,      3.55859,     91.54565,50.00000,50.00000,3.640083e-09,0.92611,3
125.989,23.93333,      3.64909,     91.67059,50.00000,50.00000,3.645506e-09,0.92612,3
126.921,24.02000,      3.73751,     91.73200,50.00000,50.00000,3.645506e-09,0.92612,3
127.907,24.10667,      3.83063,     91.85435,50.00000,50.00000,3.642148e-09,0.92613,3
128.919,24.19333,      3.92607,     91.96353,50.00000,50.00000,3.642148e-09,0.92613,3
129.92,24.28000,      4.02436,     92.09129,50.00000,50.00000,3.639539e-09,0.92614,3
130.984,24.36667,      4.12642,     92.22965,50.00000,50.00000,3.639539e-09,0.92614,3
132.048,24.45333,      4.23156,     92.36282,50.00000,50.00000,3.650601e-09,0.92615,3
133.153,24.54000,      4.34145,     92.47459,50.00000,50.00000,3.650601e-09,0.92615,3
134.285,24.62667,      4.45174,     92.62094,50.00000,50.00000,3.643913e-09,0.92615,3
135.432,24.71333,      4.56676,     92.73812,50.00000,50.00000,3.643913e-09,0.92615,3
136.619,24.80000,      4.68163,     92.86847,50.00000,50.00000,3.645996e-09,0.92616,3
137.834,24.88667,      4.80009,     92.99365,50.00000,50.00000,3.645996e-09,0.92616,3
139.063,24.97333,      4.91739,     93.09224,50.00000,50.00000,3.643242e-09,0.92617,3
140.312,25.06000,      5.03552,     93.19341,50.00000,50.00000,3.643242e-09,0.92617,3
141.579,25.14667,      5.15170,     93.32376,50.00000,50.00000,3.642264e-09,0.92618,3
142.872,25.23333,      5.26796,     93.39553,50.00000,50.00000,3.642264e-09,0.92618,3
144.196,25.32000,      5.38113,     93.50753,50.00000,50.00000,3.643744e-09,0.92618,3
145.511,25.40667,      5.49588,     93.60588,50.00000,50.00000,3.643744e-09,0.92618,3
146.867,25.49333,      5.60460,     93.70447,50.00000,50.00000,3.643256e-09,0.92619,3
148.221,25.58000,      5.71016,     93.75506,50.00000,50.00000,3.643256e-09,0.92619,3
149.606,25.66667,      5.81403,     93.81882,50.00000,50.00000,3.637281e-09,0.92619,3
151.005,25.75333,      5.91579,     93.91741,50.00000,50.00000,3.641766e-09,0.92619,3
152.403,25.84000,      6.01158,     93.99718,50.00000,50.00000,3.641766e-09,0.92619,3
153.809,25.92667,      6.10422,     94.04259,50.00000,50.00000,3.640280e-09,0.92620,3
155.236,26.01333,      6.19436,     94.13576,50.00000,50.00000,3.640280e-09,0.92620,3
156.683,26.10000,      6.28239,     94.20494,50.00000,50.00000,3.645739e-09,0.92620,3
158.127,26.18667,      6.36563,     94.26871,50.00000,50.00000,3.645739e-09,0.92620,3
159.575,26.27333,      6.44790,     94.33271,50.00000,50.00000,3.638927e-09,0.92620,3
161.036,26.36000,      6.52722,     94.36447,50.00000,50.00000,3.638927e-09,0.92620,3
162.515,26.44667,      6.60082,     94.39647,50.00000,50.00000,3.649784e-09,0.92620,3
163.998,26.53333,      6.67485,     94.46847,50.00000,50.00000,3.649784e-09,0.92620,3
165.479,26.62000,      6.74606,     94.50824,50.00000,50.00000,3.650893e-09,0.92620,3
166.972,26.70667,      6.81592,     94.56424,50.00000,50.00000,3.650893e-09,0.92620,3
168.486,26.79333,      6.88167,     94.63341,50.00000,50.00000,3.647788e-09,0.92620,3
169.998,26.88000,      6.94760,     94.64941,50.00000,50.00000,3.647788e-09,0.92620,3
171.512,26.96667,      7.01094,     94.69741,50.00000,50.00000,3.643381e-09,0.92620,3
173.038,27.05333,      7.07170,     94.72918,50.00000,50.00000,3.643381e-09,0.92620,3
174.57,27.14000,      7.13028,     94.77718,50.00000,50.00000,3.637288e-09,0.92620,3
176.111,27.22667,      7.18850,     94.82518,50.00000,50.00000,3.637288e-09,0.92620,3
177.654,27.31333,      7.24247,     94.82518,50.00000,50.00000,3.649751e-09,0.92619,3
179.196,27.40000,      7.29663,     94.88894,50.00000,50.00000,3.649751e-09,0.92619,3
180.757,27.48667,      7.34805,     94.89694,50.00000,50.00000,3.645026e-09,0.92619,3
182.318,27.57333,      7.39519,     94.92094,50.00000,50.00000,3.645026e-09,0.92619,3
183.88,27.66000,      7.44314,     94.95294,50.00000,50.00000,3.639508e-09,0.92618,3
185.443,27.74667,      7.48558,     94.98471,50.00000,50.00000,3.646543e-09,0.92617,3
187.018,27.83333,      7.52622,     94.98471,50.00000,50.00000,3.646543e-09,0.92617,3
188.588,27.92000,      7.56722,     95.01671,50.00000,50.00000,3.644988e-09,0.92617,3
190.144,28.00667,      7.60177,     95.04871,50.00000,50.00000,3.644988e-09,0.92617,3
191.728,28.09333,      7.63461,     95.04871,50.00000,50.00000,3.646641e-09,0.92616,3
193.296,28.18000,      7.66586,     95.04871,50.00000,50.00000,3.646641e-09,0.92616,3
194.872,28.26667,      7.69138,     95.02471,50.00000,50.00000,3.641319e-09,0.92615,3
196.436,28.35333,      7.71634,     95.02471,50.00000,50.00000,3.641319e-09,0.92615,3
198.005,28.44000,      7.73860,     95.05671,50.00000,50.00000,3.639536e-09,0.92614,3
199.577,28.52667,      7.75936,     95.08071,50.00000,50.00000,3.639536e-09,0.92614,3
201.143,28.61333,      7.77712,     95.08071,50.00000,50.00000,3.642080e-09,0.92613,3
202.705,28.70000,      7.79229,     95.08071,50.00000,50.00000,3.642080e-09,0.92613,3
204.267,28.78667,      7.80406,     95.08071,50.00000,50.00000,3.647788e-09,0.92611,3
205.824,28.87333,      7.81465,     95.08071,50.00000,50.00000,3.647788e-09,0.92611,3
207.379,28.96000,      7.82265,     95.08071,50.00000,50.00000,3.641242e-09,0.92610,3
208.933,29.04667,      7.82927,     95.04871,50.00000,50.00000,3.641242e-09,0.92610,3
210.479,29.13333,      7.83302,     95.08071,50.00000,50.00000,3.644296e-09,0.92609,3
212.023,29.22000,      7.83746,     95.04871,50.00000,50.00000,3.644296e-09,0.92609,3
213.562,29.30667,      7.83966,     95.04871,50.00000,50.00000,3.640953e-09,0.92607,3
215.093,29.39333,      7.84062,     95.04871,50.00000,50.00000,3.640953e-09,0.92607,3
216.63,29.48000,      7.83856,     95.04871,50.00000,50.00000,3.647836e-09,0.92605,3
218.161,29.56667,      7.83965,     95.01671,50.00000,50.00000,3.650730e-09,0.92604,3
219.688,29.65333,      7.83701,     95.01671,50.00000,50.00000,3.650730e-09,0.92604,3
221.224,29.74000,      7.83407,     94.98471,50.00000,50.00000,3.645370e-09,0.92602,3
222.734,29.82667,      7.82807,     94.98471,50.00000,50.00000,3.645370e-09,0.92602,3
224.258,29.91333,      7.82515,     94.95294,50.00000,50.00000,3.644486e-09,0.92600,3
225.781,30.00000,      7.81975,     94.92094,50.00000,50.00000,3.644486e-09,0.92600,3
227.275,30.08667,      7.81291,     94.94494,50.00000,50.00000,3.658835e-09,0.92597,3
228.781,30.17333,      7.80705,     94.94494,50.00000,50.00000,3.658835e-09,0.92597,3
230.287,30.26000,      7.80038,     94.91294,50.00000,50.00000,3.645845e-09,0.92595,3
231.781,30.34667,      7.79069,     94.88094,50.00000,50.00000,3.645845e-09,0.92595,3
233.281,30.43333,      7.78193,     94.84918,50.00000,50.00000,3.643467e-09,0.92593,3
234.766,30.52000,      7.77329,     94.81718,50.00000,50.00000,3.643467e-09,0.92593,3
236.251,30.60667,      7.76277,     94.81718,50.00000,50.00000,3.645763e-09,0.92590,3
237.736,30.69333,      7.75056,     94.78518,50.00000,50.00000,3.645763e-09,0.92590,3
239.214,30.78000,      7.73939,     94.75318,50.00000,50.00000,3.643978e-09,0.92588,3
240.697,30.86667,      7.72634,     94.71859,50.00000,50.00000,3.643978e-09,0.92588,3
242.163,30.95333,      7.71489,     94.68659,50.00000,50.00000,3.650268e-09,0.92585,3
243.638,31.04000,      7.69988,     94.65482,50.00000,50.00000,3.650268e-09,0.92585,3
245.087,31.12667,      7.68725,     94.62282,50.00000,50.00000,3.644345e-09,0.92582,3
246.553,31.21333,      7.67261,     94.57482,50.00000,50.00000,3.644345e-09,0.92582,3
248.008,31.30000,      7.65917,     94.55882,50.00000,50.00000,3.646443e-09,0.92579,3
249.456,31.38667,      7.64267,     94.49506,50.00000,50.00000,3.652555e-09,0.92576,3
250.908,31.47333,      7.62533,     94.46306,50.00000,50.00000,3.652555e-09,0.92576,3
252.348,31.56000,      7.61091,     94.42588,50.00000,50.00000,3.648748e-09,0.92573,3
253.783,31.64667,      7.59450,     94.39388,50.00000,50.00000,3.648748e-09,0.92573,3
255.22,31.73333,      7.57658,     94.32988,50.00000,50.00000,3.640091e-09,0.92569,3
256.649,31.82000,      7.56097,     94.29812,50.00000,50.00000,3.640091e-09,0.92569,3
258.069,31.90667,      7.54289,     94.26612,50.00000,50.00000,3.650574e-09,0.92566,3
259.504,31.99333,      7.52710,     94.19953,50.00000,50.00000,3.650574e-09,0.92566,3
260.92,32.08000,      7.51048,     94.19953,50.00000,50.00000,3.654150e-09,0.92562,3
262.34,32.16667,      7.49454,     94.14894,50.00000,50.00000,3.654150e-09,0.92562,3
263.745,32.25333,      7.47518,     94.06376,50.00000,50.00000,3.652696e-09,0.92559,3
265.158,32.34000,      7.45871,     93.99718,50.00000,50.00000,3.652696e-09,0.92559,3
266.561,32.42667,      7.44060,     93.96518,50.00000,50.00000,3.649348e-09,0.92555,3
267.972,32.51333,      7.42364,     93.89882,50.00000,50.00000,3.649348e-09,0.92555,3
269.365,32.60000,      7.40673,     93.82682,50.00000,50.00000,3.644092e-09,0.92551,3
270.762,32.68667,      7.38851,     93.79482,50.00000,50.00000,3.644092e-09,0.92551,3
272.148,32.77333,      7.37128,     93.72565,50.00000,50.00000,3.647456e-09,0.92547,3
273.539,32.86000,      7.35429,     93.65647,50.00000,50.00000,3.647456e-09,0.92547,3
274.917,32.94667,      7.33849,     93.55529,50.00000,50.00000,3.641775e-09,0.92543,3
276.292,33.03333,      7.32155,     93.51529,50.00000,50.00000,3.641775e-09,0.92543,3
277.687,33.12000,      7.30607,     93.48071,50.00000,50.00000,3.650467e-09,0.92538,3
279.048,33.20667,      7.28874,     93.40353,50.00000,50.00000,3.650467e-09,0.92538,3
280.43,33.29333,      7.27311,     93.33976,50.00000,50.00000,3.646797e-09,0.92534,3
281.794,33.38000,      7.25440,     93.22800,50.00000,50.00000,3.654702e-09,0.92530,3
283.154,33.46667,      7.23877,     93.15341,50.00000,50.00000,3.654702e-09,0.92530,3
284.52,33.55333,      7.22337,     93.07082,50.00000,50.00000,3.646027e-09,0.92525,3
285.881,33.64000,      7.20657,     92.97506,50.00000,50.00000,3.646027e-09,0.92525,3
287.228,33.72667,      7.19210,     92.92706,50.00000,50.00000,3.645944e-09,0.92520,3
288.586,33.81333,      7.17634,     92.82329,50.00000,50.00000,3.645944e-09,0.92520,3
289.941,33.90000,      7.16007,     92.67694,50.00000,50.00000,3.648198e-09,0.92515,3
291.293,33.98667,      7.14940,     92.59976,50.00000,50.00000,3.648198e-09,0.92515,3
292.636,34.07333,      7.14293,     92.50659,50.00000,50.00000,3.642243e-09,0.92510,3
293.99,34.16000,      7.13066,     92.42659,50.00000,50.00000,3.642243e-09,0.92510,3
295.314,34.24667,      7.12108,     92.30965,50.00000,50.00000,3.651164e-09,0.92505,3
296.653,34.33333,      7.10842,     92.19765,50.00000,50.00000,3.651164e-09,0.92505,3
297.998,34.42000,      7.10012,     92.09388,50.00000,50.00000,3.642268e-09,0.92499,3
299.329,34.50667,      7.09169,     91.96353,50.00000,50.00000,3.642268e-09,0.92499,3
300.656,34.59333,      7.08025,     91.83294,50.00000,50.00000,3.651724e-09,0.92494,3
301.991,34.68000,      7.07091,     91.70800,50.00000,50.00000,3.651724e-09,0.92494,3
303.323,34.76667,      7.06222,     91.58541,50.00000,50.00000,3.638778e-09,0.92489,3
304.644,34.85333,      7.05388,     91.43647,50.00000,50.00000,3.638778e-09,0.92489,3
305.978,34.94000,      7.04564,     91.24212,50.00000,50.00000,3.648341e-09,0.92483,3
307.299,35.02667,      7.04349,     91.08776,50.00000,50.00000,3.645520e-09,0.92477,3
308.62,35.11333,      7.03858,     90.90400,50.00000,50.00000,3.645520e-09,0.92477,3
309.942,35.20000,      7.03529,     90.75765,50.00000,50.00000,3.644366e-09,0.92471,3
311.271,35.28667,      7.03022,     90.56871,50.00000,50.00000,3.644366e-09,0.92471,3
312.582,35.37333,      7.02683,     90.35576,50.00000,50.00000,3.647542e-09,0.92465,3
313.894,35.46000,      7.02508,     90.16659,50.00000,50.00000,3.647542e-09,0.92465,3
315.215,35.54667,      7.02086,     89.98824,50.00000,50.00000,3.650870e-09,0.92459,3
316.536,35.63333,      7.02152,     89.71953,50.00000,50.00000,3.650870e-09,0.92459,3
317.842,35.72000,      7.01950,     89.46118,50.00000,50.00000,3.643542e-09,0.92453,3
319.155,35.80667,      7.02034,     89.25365,50.00000,50.00000,3.643542e-09,0.92453,3
320.474,35.89333,      7.02101,     88.96612,50.00000,50.00000,3.656896e-09,0.92446,3
321.787,35.98000,      7.02258,     88.71318,50.00000,50.00000,3.656896e-09,0.92446,3
323.085,36.06667,      7.03341,     88.44424,50.00000,50.00000,3.649261e-09,0.92440,3
324.396,36.15333,      7.07141,     88.14612,50.00000,50.00000,3.649261e-09,0.92440,3
325.7,36.24000,      7.12124,     87.88800,50.00000,50.00000,3.639418e-09,0.92433,3
327.004,36.32667,      7.20518,     87.54988,50.00000,50.00000,3.639418e-09,0.92433,3
328.306,36.41333,      7.24855,     87.24376,50.00000,50.00000,3.639969e-09,0.92426,3
329.612,36.50000,      7.28855,     86.94306,50.00000,50.00000,3.639969e-09,0.92426,3
330.91,36.58667,      7.32174,     86.59953,50.00000,50.00000,3.641298e-09,0.92420,3
332.21,36.67333,      7.35057,     86.25082,50.00000,50.00000,3.641298e-09,0.92420,3
333.516,36.76000,      7.37218,     85.90494,50.00000,50.00000,3.656455e-09,0.92412,3
334.817,36.84667,      7.39977,     85.59600,50.00000,50.00000,3.656455e-09,0.92412,3
336.1,36.93333,      7.42299,     85.21271,50.00000,50.00000,3.640584e-09,0.92405,3
337.408,37.02000,      7.43436,     84.84259,50.00000,50.00000,3.646642e-09,0.92398,3
338.699,37.10667,      7.44440,     84.47812,50.00000,50.00000,3.646642e-09,0.92398,3
339.991,37.19333,      7.45977,     84.05741,50.00000,50.00000,3.638774e-09,0.92391,3
341.294,37.28000,      7.47217,     83.69529,50.00000,50.00000,3.638774e-09,0.92391,3
342.59,37.36667,      7.48550,     83.29600,50.00000,50.00000,3.636011e-09,0.92383,3
343.887,37.45333,      7.53284,     82.87012,50.00000,50.00000,3.636011e-09,0.92383,3
345.177,37.54000,      7.55423,     82.43882,50.00000,50.00000,3.644625e-09,0.92376,3
346.46,37.62667,      7.56813,     82.00776,50.00000,50.00000,3.644625e-09,0.92376,3
347.76,37.71333,      7.60692,     81.57647,50.00000,50.00000,3.643412e-09,0.92368,3
349.052,37.80000,      7.61934,     81.12400,50.00000,50.00000,3.643412e-09,0.92368,3
350.341,37.88667,      7.65314,     80.67671,50.00000,50.00000,3.648351e-09,0.92360,3
351.629,37.97333,      7.66053,     80.16824,50.00000,50.00000,3.648351e-09,0.92360,3
352.927,38.06000,      7.67999,     79.70518,50.00000,50.00000,3.642930e-09,0.92352,3
354.208,38.14667,      7.70738,     79.21788,50.00000,50.00000,3.642930e-09,0.92352,3
355.5,38.23333,      7.72545,     78.68824,50.00000,50.00000,3.640513e-09,0.92344,3
356.778,38.32000,      7.74245,     78.17176,50.00000,50.00000,3.640513e-09,0.92344,3
358.087,38.40667,      7.76570,     77.64212,50.00000,50.00000,3.650833e-09,0.92336,3
359.371,38.49333,      7.78877,     77.12565,50.00000,50.00000,3.650833e-09,0.92336,3
360.659,38.58000,      7.79228,     76.56141,50.00000,50.00000,3.644681e-09,0.92328,3
361.942,38.66667,      7.83443,     75.95976,50.00000,50.00000,3.644681e-09,0.92328,3
363.233,38.75333,      7.85187,     75.39271,50.00000,50.00000,3.643657e-09,0.92320,3
364.511,38.84000,      7.86156,     74.75388,50.00000,50.00000,3.643657e-09,0.92320,3
365.802,38.92667,      7.88306,     74.09365,50.00000,50.00000,3.647393e-09,0.92311,3
367.09,39.01333,      7.91228,     73.48682,50.00000,50.00000,3.644389e-09,0.92303,3
368.374,39.10000,      7.91620,     72.78918,50.00000,50.00000,3.644389e-09,0.92303,3
369.666,39.18667,      7.95456,     72.09718,50.00000,50.00000,3.640648e-09,0.92294,3
370.941,39.27333,      7.97068,     71.41294,50.00000,50.00000,3.640648e-09,0.92294,3
372.223,39.36000,      7.98067,     70.68635,50.00000,50.00000,3.649048e-09,0.92285,3
373.512,39.44667,      8.00502,     69.93835,50.00000,50.00000,3.649048e-09,0.92285,3
374.799,39.53333,      8.03469,     69.09976,50.00000,50.00000,3.645781e-09,0.92276,3
376.082,39.62000,      8.05561,     68.30659,50.00000,50.00000,3.645781e-09,0.92276,3
377.365,39.70667,      8.08641,     67.46541,50.00000,50.00000,3.646154e-09,0.92267,3
378.655,39.79333,      8.11133,     66.57082,50.00000,50.00000,3.646154e-09,0.92267,3
379.944,39.88000,      8.14136,     65.69506,50.00000,50.00000,3.643780e-09,0.92258,3
381.211,39.96667,      8.16871,     64.76612,50.00000,50.00000,3.643780e-09,0.92258,3
382.503,40.05333,      8.19364,     63.82635,50.00000,50.00000,3.645691e-09,0.92251,3
383.792,40.14000,      8.21581,     62.84141,50.00000,50.00000,3.645691e-09,0.92251,3
385.082,40.22667,      8.24974,     61.84047,50.00000,50.00000,3.647772e-09,0.92245,3
386.351,40.31333,      8.27158,     60.79718,50.00000,50.00000,3.647772e-09,0.92245,3
387.641,40.40000,      8.29601,     59.78024,50.00000,50.00000,3.650855e-09,0.92238,3
388.918,40.48667,      8.32113,     58.67812,50.00000,50.00000,3.650855e-09,0.92238,3
390.213,40.57333,      8.34269,     57.54424,50.00000,50.00000,3.649454e-09,0.92231,3
391.488,40.66000,      8.36818,     56.41271,50.00000,50.00000,3.640861e-09,0.92224,3
392.781,40.74667,      8.38881,     55.23624,50.00000,50.00000,3.640861e-09,0.92224,3
394.073,40.83333,      8.42208,     54.02235,50.00000,50.00000,3.644820e-09,0.92217,3
395.354,40.92000,      8.43781,     52.76847,50.00000,50.00000,3.644820e-09,0.92217,3
396.631,41.00667,      8.45844,     51.51224,50.00000,50.00000,3.636951e-09,0.92210,3
397.913,41.09333,      8.47917,     50.19718,50.00000,50.00000,3.636951e-09,0.92210,3
399.208,41.18000,      8.50166,     48.89271,50.00000,50.00000,3.638720e-09,0.92203,3
400.492,41.26667,      8.51137,     47.53506,50.00000,50.00000,3.638720e-09,0.92203,3
401.771,41.35333,      8.52052,     46.16165,50.00000,50.00000,3.645138e-09,0.92196,3
403.045,41.44000,      8.54134,     44.77741,50.00000,50.00000,3.645138e-09,0.92196,3
404.344,41.52667,      8.54477,     43.37176,50.00000,50.00000,3.648879e-09,0.92190,3
405.629,41.61333,      8.56004,     41.92376,50.00000,50.00000,3.648879e-09,0.92190,3
406.9,41.70000,      8.55791,     40.45953,50.00000,50.00000,3.653281e-09,0.92183,3
408.195,41.78667,      8.55237,     39.03553,50.00000,50.00000,3.653281e-09,0.92183,3
409.479,41.87333,      8.55847,     37.52612,50.00000,50.00000,3.655779e-09,0.92176,3
410.76,41.96000,      8.56243,     36.03271,50.00000,50.00000,3.655779e-09,0.92176,3
412.045,42.04667,      8.54772,     34.60071,50.00000,50.00000,3.646765e-09,0.92170,3
413.327,42.13333,      8.54188,     33.08329,50.00000,50.00000,3.646765e-09,0.92170,3
414.609,42.22000,      8.52912,     31.58729,50.00000,50.00000,3.646009e-09,0.92163,3
415.901,42.30667,      8.51534,     30.07529,50.00000,50.00000,3.648493e-09,0.92157,3
417.183,42.39333,      8.48335,     28.65647,50.00000,50.00000,3.648493e-09,0.92157,3
418.474,42.48000,      8.45504,     27.19506,50.00000,50.00000,3.650253e-09,0.92151,3
419.752,42.56667,      8.43125,     25.73365,50.00000,50.00000,3.650253e-09,0.92151,3
421.039,42.65333,      8.39386,     24.26424,50.00000,50.00000,3.649135e-09,0.92145,3
422.311,42.74000,      8.34012,     22.88518,50.00000,50.00000,3.649135e-09,0.92145,3
423.594,42.82667,      8.29138,     21.51435,50.00000,50.00000,3.646562e-09,0.92139,3
424.879,42.91333,      8.22210,     20.13812,50.00000,50.00000,3.646562e-09,0.92139,3
426.172,43.00000,      8.14565,     18.86565,50.00000,50.00000,3.650490e-09,0.92133,3
427.455,43.08667,      8.05994,     17.57200,50.00000,50.00000,3.650490e-09,0.92133,3
428.728,43.17333,      7.95736,     16.37412,50.00000,50.00000,3.653563e-09,0.92127,3
430.014,43.26000,      7.86047,     15.15482,50.00000,50.00000,3.653563e-09,0.92127,3
431.298,43.34667,      7.76510,     13.98635,50.00000,50.00000,3.646507e-09,0.92122,3
432.596,43.43333,      7.65462,     12.85482,50.00000,50.00000,3.646507e-09,0.92122,3
433.869,43.52000,      7.54049,     11.77953,50.00000,50.00000,3.649541e-09,0.92116,3
435.146,43.60667,      7.42218,     10.74141,50.00000,50.00000,3.649541e-09,0.92116,3
436.432,43.69333,      7.29672,      9.71906,50.00000,50.00000,3.643035e-09,0.92111,3
437.731,43.78000,      7.18292,      8.79553,50.00000,50.00000,3.643035e-09,0.92111,3
439.014,43.86667,      7.06828,      7.90894,50.00000,50.00000,3.643191e-09,0.92106,3
440.313,43.95333,      6.96349,      7.00918,50.00000,50.00000,3.643191e-09,0.92106,3
441.593,44.04000,      6.85813,      6.24800,50.00000,50.00000,3.642171e-09,0.92100,3
442.894,44.12667,      6.75725,      5.46259,50.00000,50.00000,3.642171e-09,0.92100,3
444.163,44.21333,      6.66037,      4.72259,50.00000,50.00000,3.645337e-09,0.92096,3
445.457,44.30000,      6.55895,      4.10494,50.00000,50.00000,3.645144e-09,0.92090,3
446.75,44.38667,      6.46129,      3.42894,50.00000,50.00000,3.645144e-09,0.92090,3
448.039,44.47333,      6.36572,      2.92588,50.00000,50.00000,3.638825e-09,0.92086,3
449.333,44.56000,      6.28091,      2.39600,50.00000,50.00000,3.638825e-09,0.92086,3
450.608,44.64667,      6.19896,      1.90353,50.00000,50.00000,3.645147e-09,0.92081,3
451.896,44.73333,      6.11931,      1.52824,50.00000,50.00000,3.645147e-09,0.92081,3
453.18,44.82000,      6.05631,      1.14494,50.00000,50.00000,3.650637e-09,0.92076,3
454.47,44.90667,      5.99423,      0.84141,50.00000,50.00000,3.650637e-09,0.92076,3
455.756,44.99333,      5.93160,      0.58588,50.00000,50.00000,3.651295e-09,0.92071,3
457.04,45.08000,      5.87040,      0.41812,50.00000,50.00000,3.651295e-09,0.92071,3
458.331,45.16667,      5.80089,      0.19200,50.00000,50.00000,3.653025e-09,0.92067,3
459.615,45.25333,      5.75156, 6.423529e-02,50.00000,50.00000,3.653025e-09,0.92067,3
460.914,45.34000,      5.70468,-2.376471e-02,50.00000,50.00000,3.652337e-09,0.92062,3
462.189,45.42667,      5.66110,-6.635294e-02,50.00000,50.00000,3.652337e-09,0.92062,3
463.483,45.51333,      5.62510,     -0.13553,50.00000,50.00000,3.650123e-09,0.92058,3
464.761,45.60000,      5.59280,     -0.18353,50.00000,50.00000,3.650123e-09,0.92058,3
466.05,45.68667,      5.56384,     -0.19929,50.00000,50.00000,3.642189e-09,0.92053,3
467.336,45.77333,      5.53530,     -0.23129,50.00000,50.00000,3.642189e-09,0.92053,3
468.623,45.86000,      5.50864,     -0.22329,50.00000,50.00000,3.646266e-09,0.92049,3
469.921,45.94667,      5.48337,     -0.22329,50.00000,50.00000,3.649264e-09,0.92045,3
471.195,46.03333,      5.45924,     -0.22329,50.00000,50.00000,3.649264e-09,0.92045,3
472.49,46.12000,      5.43486,     -0.25529,50.00000,50.00000,3.651446e-09,0.92041,3
473.783,46.20667,      5.41008,     -0.25529,50.00000,50.00000,3.651446e-09,0.92041,3
475.073,46.29333,      5.38918,     -0.22329,50.00000,50.00000,3.638885e-09,0.92037,3
476.344,46.38000,      5.36805,     -0.25529,50.00000,50.00000,3.638885e-09,0.92037,3
477.639,46.46667,      5.34498,     -0.28729,50.00000,50.00000,3.654473e-09,0.92033,3
478.916,46.55333,      5.32226,     -0.26329,50.00000,50.00000,3.654473e-09,0.92033,3
480.202,46.64000,      5.30036,     -0.29529,50.00000,50.00000,3.650445e-09,0.92029,3
481.495,46.72667,      5.27841,     -0.26329,50.00000,50.00000,3.650445e-09,0.92029,3
482.763,46.81333,      5.25504,     -0.26329,50.00000,50.00000,3.650489e-09,0.92025,3
484.066,46.90000,      5.22948,     -0.26329,50.00000,50.00000,3.650489e-09,0.92025,3
485.342,46.98667,      5.21147,     -0.26329,50.00000,50.00000,3.646310e-09,0.92021,3
486.631,47.07333,      5.18735,     -0.29529,50.00000,50.00000,3.646310e-09,0.92021,3
487.906,47.16000,      5.16857,     -0.29529,50.00000,50.00000,3.645171e-09,0.92017,3
489.207,47.24667,      5.14432,     -0.26071,50.00000,50.00000,3.645171e-09,0.92017,3
490.485,47.33333,      5.12333,     -0.26071,50.00000,50.00000,3.647337e-09,0.92013,3
491.775,47.42000,      5.10261,     -0.29247,50.00000,50.00000,3.652459e-09,0.92010,3
493.059,47.50667,      5.08176,     -0.29247,50.00000,50.00000,3.652459e-09,0.92010,3
494.351,47.59333,      5.06410,     -0.29247,50.00000,50.00000,3.648609e-09,0.92006,3
495.646,47.68000,      5.03961,     -0.26071,50.00000,50.00000,3.648609e-09,0.92006,3
496.914,47.76667,      5.02043,     -0.26071,50.00000,50.00000,3.642100e-09,0.92002,3
498.213,47.85333,      4.99901,     -0.28447,50.00000,50.00000,3.642100e-09,0.92002,3
499.491,47.94000,      4.97824,     -0.25271,50.00000,50.00000,3.644034e-09,0.91999,3
500.787,48.02667,      4.95245,     -0.25271,50.00000,50.00000,3.644034e-09,0.91999,3
502.065,48.11333,      4.93119,     -0.28447,50.00000,50.00000,3.643447e-09,0.91995,3
503.356,48.20000,      4.91170,     -0.25271,50.00000,50.00000,3.643447e-09,0.91995,3
504.64,48.28667,      4.88939,     -0.25271,50.00000,50.00000,3.649295e-09,0.91992,3
505.934,48.37333,      4.86735,     -0.28447,50.00000,50.00000,3.649295e-09,0.91992,3
507.229,48.46000,      4.84671,     -0.25271,50.00000,50.00000,3.645290e-09,0.91988,3
508.52,48.54667,      4.82325,     -0.24471,50.00000,50.00000,3.645290e-09,0.91988,3
509.803,48.63333,      4.80204,     -0.24471,50.00000,50.00000,3.647405e-09,0.91985,3
511.086,48.72000,      4.78224,     -0.22071,50.00000,50.00000,3.647405e-09,0.91985,3
512.37,48.80667,      4.75514,     -0.25271,50.00000,50.00000,3.647107e-09,0.91981,3
513.667,48.89333,      4.73463,     -0.22071,50.00000,50.00000,3.647107e-09,0.91981,3
514.956,48.98000,      4.71278,     -0.22071,50.00000,50.00000,3.650851e-09,0.91978,3
516.25,49.06667,      4.69267,     -0.22071,50.00000,50.00000,3.650851e-09,0.91978,3
517.529,49.15333,      4.66663,     -0.22071,50.00000,50.00000,3.635936e-09,0.91974,3
518.831,49.24000,      4.64243,     -0.19671,50.00000,50.00000,3.651023e-09,0.91972,3
520.128,49.32667,      4.61871,     -0.19671,50.00000,50.00000,3.651023e-09,0.91972,3
521.411,49.41333,      4.59389,     -0.19671,50.00000,50.00000,3.647085e-09,0.91969,3
522.707,49.50000,      4.57209,     -0.14612,50.00000,50.00000,3.647085e-09,0.91969,3
524.003,49.58667,      4.54775,     -0.17812,50.00000,50.00000,3.643862e-09,0.91965,3
525.289,49.67333,      4.52631,     -0.14612,50.00000,50.00000,3.643862e-09,0.91965,3
526.592,49.76000,      4.50027,     -0.17812,50.00000,50.00000,3.643567e-09,0.91962,3
527.874,49.84667,      4.47586,     -0.14612,50.00000,50.00000,3.643567e-09,0.91962,3
529.167,49.93333,      4.45017,     -0.14612,50.00000,50.00000,3.638650e-09,0.91959,3
530.471,50.02000,      4.42382,     -0.13012,50.00000,50.00000,3.638650e-09,0.91959,3
531.752,50.10667,      4.39908,     -0.11412,50.00000,50.00000,3.643190e-09,0.91956,3
533.05,50.19333,      4.37125,     -0.11412,50.00000,50.00000,3.643190e-09,0.91956,3
534.336,50.28000,      4.34911,-7.694118e-02,50.00000,50.00000,3.643595e-09,0.91953,3
535.632,50.36667,      4.32415,     -0.10894,50.00000,50.00000,3.643595e-09,0.91953,3
536.921,50.45333,      4.29997,-7.694118e-02,50.00000,50.00000,3.649598e-09,0.91951,3
538.225,50.54000,      4.27484,-7.694118e-02,50.00000,50.00000,3.649598e-09,0.91951,3
539.523,50.62667,      4.24678,     -0.10894,50.00000,50.00000,3.644130e-09,0.91948,3
540.818,50.71333,      4.22264,-7.694118e-02,50.00000,50.00000,3.644130e-09,0.91948,3
542.104,50.80000,      4.19773,-7.694118e-02,50.00000,50.00000,3.643009e-09,0.91946,3
543.4,50.88667,      4.17026,-7.694118e-02,50.00000,50.00000,3.643009e-09,0.91946,3
544.704,50.97333,      4.14743,-7.694118e-02,50.00000,50.00000,3.651747e-09,0.91943,3
545.997,51.06000,      4.11848,-4.494118e-02,50.00000,50.00000,3.646566e-09,0.91940,3
547.286,51.14667,      4.09192,-7.764706e-03,50.00000,50.00000,3.646566e-09,0.91940,3
548.59,51.23333,      4.06783,-7.764706e-03,50.00000,50.00000,3.644908e-09,0.91938,3
549.881,51.32000,      4.03824,-3.976471e-02,50.00000,50.00000,3.644908e-09,0.91938,3
551.185,51.40667,      4.00890,-3.976471e-02,50.00000,50.00000,3.641664e-09,0.91936,3
552.482,51.49333,      3.98163,-7.764706e-03,50.00000,50.00000,3.641664e-09,0.91936,3
553.773,51.58000,      3.95359,-3.976471e-02,50.00000,50.00000,3.646610e-09,0.91934,3
555.068,51.66667,      3.92515,-1.576471e-02,50.00000,50.00000,3.646610e-09,0.91934,3
556.37,51.75333,      3.89091,-7.764706e-03,50.00000,50.00000,3.639030e-09,0.91932,3
557.665,51.84000,      3.86128,-7.764706e-03,50.00000,50.00000,3.639030e-09,0.91932,3
558.963,51.92667,      3.83474, 2.423529e-02,50.00000,50.00000,3.642164e-09,0.91929,3
560.262,52.01333,      3.80650, 8.235294e-03,50.00000,50.00000,3.642164e-09,0.91929,3
561.555,52.10000,      3.77940, 8.235294e-03,50.00000,50.00000,3.643494e-09,0.91927,3
562.854,52.18667,      3.74935, 4.023529e-02,50.00000,50.00000,3.643494e-09,0.91927,3
564.153,52.27333,      3.73008, 4.023529e-02,50.00000,50.00000,3.650782e-09,0.91925,3
565.45,52.36000,      3.70334, 4.023529e-02,50.00000,50.00000,3.650782e-09,0.91925,3
566.757,52.44667,      3.67686, 5.623529e-02,50.00000,50.00000,3.646662e-09,0.91923,3
568.049,52.53333,      3.65182, 6.423529e-02,50.00000,50.00000,3.646662e-09,0.91923,3
569.358,52.62000,      3.62032, 6.423529e-02,50.00000,50.00000,3.647868e-09,0.91921,3
570.652,52.70667,      3.59283, 6.423529e-02,50.00000,50.00000,3.644245e-09,0.91920,3
571.949,52.79333,      3.56525, 7.223529e-02,50.00000,50.00000,3.644245e-09,0.91920,3
573.251,52.88000,      3.53500, 7.223529e-02,50.00000,50.00000,3.640430e-09,0.91918,3
574.555,52.96667,      3.50756,      0.10400,50.00000,50.00000,3.640430e-09,0.91918,3
575.854,53.05333,      3.47935,      0.10400,50.00000,50.00000,3.651806e-09,0.91916,3
577.161,53.14000,      3.44945, 7.223529e-02,50.00000,50.00000,3.651806e-09,0.91916,3
578.462,53.22667,      3.42039,      0.10400,50.00000,50.00000,3.642511e-09,0.91914,3
579.752,53.31333,      3.38889,      0.10400,50.00000,50.00000,3.642511e-09,0.91914,3
581.057,53.40000,      3.36192,      0.10400,50.00000,50.00000,3.654778e-09,0.91913,3
582.351,53.48667,      3.32793,      0.10400,50.00000,50.00000,3.654778e-09,0.91913,3
583.654,53.57333,      3.29779,      0.10400,50.00000,50.00000,3.646496e-09,0.91911,3
584.958,53.66000,      3.27050,      0.10400,50.00000,50.00000,3.646496e-09,0.91911,3
586.26,53.74667,      3.23588,      0.13600,50.00000,50.00000,3.643584e-09,0.91910,3
587.556,53.83333,      3.20802,      0.16800,50.00000,50.00000,3.643584e-09,0.91910,3
588.864,53.92000,      3.17714,      0.16800,50.00000,50.00000,3.650099e-09,0.91909,3
590.16,54.00667,      3.14809,      0.13600,50.00000,50.00000,3.650099e-09,0.91909,3
591.467,54.09333,      3.11799,      0.14400,50.00000,50.00000,3.652534e-09,0.91907,3
592.763,54.18000,      3.09204,      0.18400,50.00000,50.00000,3.652534e-09,0.91907,3
594.066,54.26667,      3.05774,      0.18400,50.00000,50.00000,3.642665e-09,0.91906,3
595.295,54.34833,      3.02540,      0.18400,50.00000,50.00000,3.642665e-09,0.91906,4
596.286,54.41333,      3.00380,      0.18400,50.00000,50.00000,3.649140e-09,0.91905,4
597.274,54.47833,      2.99344,      0.18400,50.00000,50.00000,3.649140e-09,0.91905,4
598.302,54.54333,      3.02081,      0.18400,50.00000,50.00000,3.650058e-09,0.91904,4
599.378,54.60833,      3.09506,      0.18400,50.00000,50.00000,3.650058e-09,0.91904,4
600.491,54.67333,      3.22201,      0.20000,50.00000,50.00000,3.650058e-09,0.91904,4
601.657,54.73833,      3.38955,      0.23176,50.00000,50.00000,3.658758e-09,0.91903,4
602.869,54.80333,      3.58948,      0.26376,50.00000,50.00000,3.658758e-09,0.91903,4
604.116,54.86833,      3.81185,      0.26376,50.00000,50.00000,3.646704e-09,0.91902,4
605.407,54.93333,      4.04237,      0.27176,50.00000,50.00000,3.646704e-09,0.91902,4
606.719,54.99833,      4.26186,      0.32776,50.00000,50.00000,3.646704e-09,0.91902,4
608.049,55.06333,      4.46958,      0.32776,50.00000,50.00000,3.651571e-09,0.91901,4
609.396,55.12833,      4.64898,      0.32776,50.00000,50.00000,3.651571e-09,0.91901,4
610.754,55.19333,      4.79417,      0.35953,50.00000,50.00000,3.641000e-09,0.91900,4
612.099,55.25833,      4.90419,      0.35953,50.00000,50.00000,3.641000e-09,0.91900,4
613.443,55.32333,      4.96711,      0.35953,50.00000,50.00000,3.641000e-09,0.91900,4
614.783,55.38833,      5.00914,      0.43412,50.00000,50.00000,3.647664e-09,0.91899,4
616.106,55.45333,      5.01485,      0.43412,50.00000,50.00000,3.647664e-09,0.91899,4
617.414,55.51833,      4.98851,      0.43412,50.00000,50.00000,3.640575e-09,0.91898,4
618.707,55.58333,      4.94021,      0.43412,50.00000,50.00000,3.640575e-09,0.91898,4
619.993,55.64833,      4.87127,      0.40212,50.00000,50.00000,3.640575e-09,0.91898,4
621.265,55.71333,      4.79077,      0.40212,50.00000,50.00000,3.657186e-09,0.91898,4
622.52,55.77833,      4.70039,      0.40212,50.00000,50.00000,3.657186e-09,0.91898,4
623.78,55.84333,      4.60942,      0.37835,50.00000,50.00000,3.646131e-09,0.91897,4
625.019,55.90833,      4.51398,      0.37835,50.00000,50.00000,3.646131e-09,0.91897,4
626.266,55.97333,      4.42277,      0.41294,50.00000,50.00000,3.646131e-09,0.91897,4
627.499,56.03833,      4.34394,      0.41294,50.00000,50.00000,3.646714e-09,0.91896,4
628.735,56.10333,      4.27041,      0.41294,50.00000,50.00000,3.646714e-09,0.91896,4
629.982,56.16833,      4.20775,      0.44471,50.00000,50.00000,3.646714e-09,0.91896,4
631.232,56.23333,      4.15491,      0.44471,50.00000,50.00000,3.653930e-09,0.91896,4
632.483,56.29833,      4.11678,      0.44471,50.00000,50.00000,3.653930e-09,0.91896,4
633.732,56.36333,      4.07782,      0.41294,50.00000,50.00000,3.641247e-09,0.91895,4
634.995,56.42833,      4.05300,      0.41294,50.00000,50.00000,3.641247e-09,0.91895,4
636.266,56.49333,      4.04130,      0.44471,50.00000,50.00000,3.641247e-09,0.91895,4
637.538,56.55833,      4.02401,      0.44471,50.00000,50.00000,3.640435e-09,0.91895,4
638.808,56.62333,      4.00977,      0.44471,50.00000,50.00000,3.640435e-09,0.91895,4
640.106,56.68833,      4.00289,      0.47671,50.00000,50.00000,3.648752e-09,0.91895,4
641.384,56.75333,      3.99416,      0.47671,50.00000,50.00000,3.648752e-09,0.91895,4
642.682,56.81833,      3.98023,      0.51412,50.00000,50.00000,3.648752e-09,0.91895,4
643.98,56.88333,      3.95541,      0.51412,50.00000,50.00000,3.640728e-09,0.91895,4
645.27,56.94833,      3.93887,      0.48212,50.00000,50.00000,3.640728e-09,0.91895,4
646.57,57.01333,      3.92512,      0.48212,50.00000,50.00000,3.646932e-09,0.91895,4
647.869,57.07833,      3.89727,      0.51412,50.00000,50.00000,3.646932e-09,0.91895,4
649.169,57.14333,      3.87355,      0.51412,50.00000,50.00000,3.646932e-09,0.91895,4
650.466,57.20833,      3.84341,      0.54588,50.00000,50.00000,3.649776e-09,0.91895,4
651.779,57.27333,      3.81324,      0.54588,50.00000,50.00000,3.649776e-09,0.91895,4
653.069,57.33833,      3.77935,      0.54588,50.00000,50.00000,3.642998e-09,0.91895,4
654.376,57.40333,      3.74048,      0.54588,50.00000,50.00000,3.642998e-09,0.91895,4
655.676,57.46833,      3.69475,      0.54588,50.00000,50.00000,3.642998e-09,0.91895,4
656.973,57.53333,      3.65277,      0.51412,50.00000,50.00000,3.641649e-09,0.91895,4
658.283,57.59833,      3.61035,      0.51412,50.00000,50.00000,3.641649e-09,0.91895,4
659.579,57.66333,      3.56882,      0.54588,50.00000,50.00000,3.641649e-09,0.91895,4
660.871,57.72833,      3.52894,      0.54588,50.00000,50.00000,3.642973e-09,0.91895,4
662.176,57.79333,      3.48471,      0.54588,50.00000,50.00000,3.642973e-09,0.91895,4
663.47,57.85833,      3.44281,      0.55388,50.00000,50.00000,3.644738e-09,0.91895,4
664.78,57.92333,      3.40085,      0.57788,50.00000,50.00000,3.644738e-09,0.91895,4
666.089,57.98833,      3.35411,      0.57788,50.00000,50.00000,3.644738e-09,0.91895,4
667.392,58.05333,      3.31724,      0.57788,50.00000,50.00000,3.649627e-09,0.91895,4
668.696,58.11833,      3.26988,      0.60988,50.00000,50.00000,3.649627e-09,0.91895,4
670.003,58.18333,      3.22418,      0.60988,50.00000,50.00000,3.649960e-09,0.91895,4
671.32,58.24833,      3.18090,      0.58588,50.00000,50.00000,3.649960e-09,0.91895,4
672.622,58.31333,      3.13098,      0.58588,50.00000,50.00000,3.649960e-09,0.91895,4
673.931,58.37833,      3.09174,      0.61788,50.00000,50.00000,3.640735e-09,0.91895,4
675.236,58.44333,      3.04445,      0.61788,50.00000,50.00000,3.640735e-09,0.91895,4
676.548,58.50833,      3.00282,      0.61788,50.00000,50.00000,3.645999e-09,0.91894,4
677.867,58.57333,      2.95567,      0.61788,50.00000,50.00000,3.645999e-09,0.91894,4
679.172,58.63833,      2.91053,      0.61788,50.00000,50.00000,3.645999e-09,0.91894,4
680.488,58.70333,      2.86348,      0.61788,50.00000,50.00000,3.645878e-09,0.91894,4
681.799,58.76833,      2.81556,      0.61788,50.00000,50.00000,3.645878e-09,0.91894,4
683.116,58.83333,      2.76752,      0.64988,50.00000,50.00000,3.643041e-09,0.91895,4
684.428,58.89833,      2.71826,      0.64988,50.00000,50.00000,3.643041e-09,0.91895,4
685.739,58.96333,      2.68050,      0.67365,50.00000,50.00000,3.643041e-09,0.91895,4
687.055,59.02833,      2.63573,      0.67365,50.00000,50.00000,3.645039e-09,0.91894,4
688.369,59.09333,      2.58937,      0.67365,50.00000,50.00000,3.645039e-09,0.91894,4
689.681,59.15833,      2.53740,      0.67365,50.00000,50.00000,3.651969e-09,0.91894,4
691.001,59.22333,      2.48312,      0.67365,50.00000,50.00000,3.651969e-09,0.91894,4
692.308,59.28833,      2.42977,      0.67365,50.00000,50.00000,3.651969e-09,0.91894,4
693.621,59.35333,      2.37812,      0.67365,50.00000,50.00000,3.654774e-09,0.91894,4
694.943,59.41833,      2.32673,      0.67365,50.00000,50.00000,3.654774e-09,0.91894,4
696.258,59.48333,      2.27628,      0.67365,50.00000,50.00000,3.646172e-09,0.91894,4
697.566,59.54833,      2.22496,      0.68165,50.00000,50.00000,3.646172e-09,0.91894,4
698.887,59.61333,      2.16984,      0.68165,50.00000,50.00000,3.646172e-09,0.91894,4
700.202,59.67833,      2.11678,      0.68165,50.00000,50.00000,3.644461e-09,0.91894,4
701.52,59.74333,      2.06322,      0.71365,50.00000,50.00000,3.644461e-09,0.91894,4
702.833,59.80833,      2.00582,      0.71365,50.00000,50.00000,3.645991e-09,0.91894,4
704.149,59.87333,      1.95161,      0.71365,50.00000,50.00000,3.645991e-09,0.91894,4
705.475,59.93833,      1.89839,      0.71365,50.00000,50.00000,3.645991e-09,0.91894,4
706.783,60.00333,      1.84389,      0.73765,50.00000,50.00000,3.648031e-09,0.91894,4
708.112,60.06833,      1.78594,      0.73765,50.00000,50.00000,3.648031e-09,0.91894,4
709.419,60.13333,      1.72855,      0.73765,50.00000,50.00000,3.643089e-09,0.91894,4
710.737,60.19833,      1.66955,      0.73765,50.00000,50.00000,3.643089e-09,0.91894,4
712.052,60.26333,      1.61114,      0.73765,50.00000,50.00000,3.643089e-09,0.91894,4
713.372,60.32833,      1.55409,      0.73765,50.00000,50.00000,3.641499e-09,0.91894,4
714.692,60.39333,      1.49353,      0.70565,50.00000,50.00000,3.641499e-09,0.91894,4
716.005,60.45833,      1.43019,      0.73765,50.00000,51.00000,3.641499e-09,0.91894,4
717.323,60.52333,      1.37194,      0.77765,50.00000,50.00000,3.652341e-09,0.91894,4
718.642,60.58833,      1.31581,      0.77765,50.00000,50.00000,3.652341e-09,0.91894,4
719.953,60.65333,      1.25164,      0.77765,50.00000,50.00000,3.646953e-09,0.91894,4
721.269,60.71833,      1.19108,      0.77765,50.00000,50.00000,3.646953e-09,0.91894,4
722.586,60.78333,      1.12020,      0.74565,50.00000,50.00000,3.646953e-09,0.91894,4
723.908,60.84833,      1.06160,      0.74565,50.00000,50.00000,3.646432e-09,0.91894,4
725.221,60.91333,      0.99681,      0.74565,50.00000,50.00000,3.646432e-09,0.91894,4
726.536,60.97833,      0.93375,      0.77765,50.00000,50.00000,3.647393e-09,0.91893,4
727.857,61.04333,      0.87395,      0.77765,50.00000,50.00000,3.647393e-09,0.91893,4
729.175,61.10833,      0.80946,      0.77765,50.00000,50.00000,3.647393e-09,0.91893,4
730.479,61.17333,      0.73684,      0.80941,50.00000,50.00000,3.641611e-09,0.91893,4
731.813,61.23833,      0.67166,      0.80941,50.00000,50.00000,3.641611e-09,0.91893,4
733.117,61.30333,      0.60289,      0.80941,50.00000,50.00000,3.646589e-09,0.91893,4
734.437,61.36833,      0.53510,      0.80941,50.00000,50.00000,3.646589e-09,0.91893,4
735.752,61.43333,      0.46867,      0.80941,50.00000,50.00000,3.646589e-09,0.91893,4
737.063,61.49833,      0.40398,      0.80941,50.00000,50.00000,3.643859e-09,0.91893,4
738.383,61.56333,      0.33304,      0.80941,50.00000,50.00000,3.643859e-09,0.91893,4
739.7,61.62833,      0.26384,      0.80941,50.00000,50.00000,3.651530e-09,0.91893,4
741.009,61.69333,      0.19448,      0.84141,50.00000,50.00000,3.651530e-09,0.91893,4
742.318,61.75833,      0.10808,      0.83341,50.00000,51.00000,3.651530e-09,0.91893,4
743.653,61.82333, 3.453583e-02,      0.84141,50.00000,50.00000,3.639608e-09,0.91893,4
744.964,61.88833,-3.496044e-02,      0.84141,50.00000,50.00000,3.639608e-09,0.91893,4
746.284,61.95333,     -0.10770,      0.84141,50.00000,51.00000,3.639608e-09,0.91893,4
747.586,62.01833,     -0.17829,      0.84141,50.00000,50.00000,3.640523e-09,0.91893,4
748.902,62.08333,     -0.25060,      0.84141,50.00000,51.00000,3.640523e-09,0.91893,4
750.225,62.14833,     -0.32191,      0.84141,50.00000,50.00000,3.643196e-09,0.91893,4
751.529,62.21333,     -0.40151,      0.84141,50.00000,51.00000,3.643196e-09,0.91893,4
752.853,62.27833,     -0.48632,      0.84141,50.00000,50.00000,3.643196e-09,0.91893,4
754.165,62.34333,     -0.54886,      0.87341,50.00000,51.00000,3.649139e-09,0.91893,4
755.487,62.40833,     -0.62785,      0.87341,50.00000,51.00000,3.649139e-09,0.91893,4
756.787,62.47333,     -0.70428,      0.86541,50.00000,51.00000,3.643478e-09,0.91893,4
758.114,62.53833,     -0.78052,      0.86541,50.00000,51.00000,3.643478e-09,0.91893,4
759.433,62.60333,     -0.86121,      0.86541,50.00000,51.00000,3.643478e-09,0.91893,4
760.747,62.66833,     -0.93313,      0.90800,50.00000,51.00000,3.644760e-09,0.91892,4
762.058,62.73333,     -1.01574,      0.93200,50.00000,51.00000,3.644760e-09,0.91892,4
763.375,62.79833,     -1.08996,      0.90000,50.00000,51.00000,3.650493e-09,0.91893,4
764.688,62.86333,     -1.15927,      0.90000,50.00000,50.00000,3.650493e-09,0.91893,4
766.001,62.92833,     -1.23617,      0.90000,50.00000,51.00000,3.650493e-09,0.91893,4
767.322,62.99333,     -1.31326,      0.90000,50.00000,51.00000,3.644021e-09,0.91893,4
768.624,63.05833,     -1.39286,      0.90000,50.00000,51.00000,3.644021e-09,0.91893,4
769.949,63.12333,     -1.46717,      0.90000,50.00000,51.00000,3.653888e-09,0.91892,4
771.263,63.18833,     -1.53692,      0.90000,50.00000,51.00000,3.653888e-09,0.91892,4
772.573,63.25333,     -1.60801,      0.90000,50.00000,51.00000,3.653888e-09,0.91892,4
773.885,63.31833,     -1.68951,      0.90000,50.00000,51.00000,3.639481e-09,0.91892,4
775.189,63.38333,     -1.75541,      0.93200,50.00000,51.00000,3.639481e-09,0.91892,4
776.508,63.44833,     -1.83254,      0.93200,50.00000,51.00000,3.644939e-09,0.91892,4
777.821,63.51333,     -1.91974,      0.93200,50.00000,51.00000,3.644939e-09,0.91892,4
779.131,63.57833,     -1.98138,      0.93200,50.00000,51.00000,3.644939e-09,0.91892,4
780.451,63.64333,     -2.05945,      0.93200,50.00000,51.00000,3.647231e-09,0.91892,4
781.766,63.70833,     -2.13967,      0.93200,50.00000,51.00000,3.647231e-09,0.91892,4
783.074,63.77333,     -2.21530,      0.93200,50.00000,51.00000,3.647231e-09,0.91892,4
784.384,63.83833,     -2.29627,      0.93200,50.00000,51.00000,3.644698e-09,0.91892,4
785.697,63.90333,     -2.37147,      0.93200,50.00000,51.00000,3.644698e-09,0.91892,4
787.007,63.96833,     -2.45003,      0.96400,50.00000,51.00000,3.641443e-09,0.91892,4
788.323,64.03333,     -2.52958,      0.96400,50.00000,51.00000,            ,0.44957,4
789.631,64.09833,     -2.59850,      0.96400,50.00000,51.00000,            ,0.44905,4
790.959,64.16333,     -2.65763,      0.96400,50.00000,51.00000,            ,0.44851,4
792.272,64.22833,     -2.73248,      0.96400,50.00000,51.00000,            ,0.44799,4
793.575,64.29333,     -2.83196,      0.99576,50.00000,51.00000,            ,0.44746,4
794.394,64.33333,     -2.85573,      0.96400,50.00000,51.00000,            ,0.44713,4