File: data/TGA/ps_scf3_flynn_ozawa_wall/1K/ExpDat_2025_11_11_SL_PS_Tosoh_A1000_5K_min.csv
#EXPORTTYPE:                 ,DATA ALL
#FILE:                       ,2025_11_11_SL_PS_Tosoh_A1000_5K_min.ngb-ss5
#FORMAT:                     ,NETZSCH5
#FTYPE:                      ,ASCII
#IDENTITY:                   ,PS_A1000_5K_min
#DECIMAL:                    ,POINT
#SEPARATOR:                  ,COMMA
#MTYPE:                      ,DSC
#INSTRUMENT:                 ,NETZSCH STA 449F5
#PROJECT:                    ,PS
#DATE/TIME:                  ,11/11/2025 5:18:43 PM (UTC-5)
#CORR. FILE:                 ,
#TEMPCAL:                    ,05-05-2025 14:38
#SENSITIVITY:                ,28-06-2023 13:53
#LABORATORY:                 ,Tran/AAG
#OPERATOR:                   ,Stan
#REMARK:                     ,
#SAMPLE:                     ,PS_A1000_5K_min
#SAMPLE MASS /mg:            ,5.11
#MATERIAL:                   ,
#REFERENCE:                  ,
#REFERENCE MASS /mg:         ,0
#TYPE OF CRUCIBLE:           ,Al2O3 85 ‘l, open
#SAMPLE CRUCIBLE MASS /mg:   ,0
#REFERENCE CRUCIBLE MASS /mg:,0
#DSC RANGE /‘V:              ,5000
#TG RANGE /mg:               ,35000
#TAU-R:                      ,---
#CORR. CODE:                 ,000
#EXO:                        ,-1
#RANGE:                      ,20›C....800›C/0.0....20.0K/min
#SEGMENT:                    ,S1-4/4
#SEG. 1:                     ,20›C/5.0(K/min)/100›C
#SEG. 2:                     ,100›C/00:05/100›C
#SEG. 3:                     ,100›C/5.0(K/min)/600›C
#SEG. 4:                     ,600›C/20.0(K/min)/800›C

##Temp./›C,Time/min,DSC/(mW/mg),Mass/%,Gas Flow(purge2)/(ml/min),Gas Flow(protective)/(ml/min),TIC(scan:1)/A,Sensit./(uV/mW),Segment
 32.71600,  0.00000,      0.90484,    100,50.00000,51.00000,            ,0.92403,1
 36.44300,  1.13333,      0.41871,     96.30489,50.00000,48.00000,3.714058e-09,0.92433,1
 38.37600,  2.26667,      0.19388,     90.01937,50.00000,48.00000,3.709139e-09,0.92454,1
 39.35800,  3.40000, 6.988996e-02,     89.59863,50.00000,48.00000,3.717061e-09,0.92469,1
 39.93100,  4.53333, 2.469366e-02,     89.19569,50.00000,48.00000,3.716103e-09,0.92479,1
 41.24100,  5.66667,      0.14652,     89.35734,50.00000,48.00000,3.718386e-09,0.92488,1
 43.94300,  6.80000,      0.34862,     89.74266,50.00000,48.00000,3.721760e-09,0.92494,1
 47.98500,  7.93333,      0.54717,     90.29609,50.00000,49.00000,3.721002e-09,0.92498,1
 53.18700,  9.06667,      0.72967,     90.84951,50.00000,49.00000,3.723453e-09,0.92502,1
 59.38100, 10.20000,      0.88740,     91.28121,50.00000,49.00000,3.721569e-09,0.92504,1
 66.20500, 11.33333,      1.00349,     91.57358,50.00000,49.00000,3.728648e-09,0.92508,1
 73.33000, 12.46667,      1.08371,     91.73288,50.00000,49.00000,3.723753e-09,0.92513,1
 80.57800, 13.60000,      1.13116,     91.67984,50.00000,49.00000,3.726909e-09,0.92520,1
 87.79100, 14.73333,      1.15548,     91.35205,50.00000,49.00000,3.718249e-09,0.92528,1
 94.83700, 15.86667,      1.15819,     90.91605,50.00000,49.00000,3.718861e-09,0.92539,1
 99.77200, 16.73417,      1.06659,     90.27828,50.00000,49.00000,3.727252e-09,0.92550,2
103.02, 17.58417,      0.76464,     89.41722,50.00000,49.00000,3.729883e-09,0.92560,2
105.175, 18.43417,      0.52177,     88.75519,50.00000,49.00000,3.727313e-09,0.92570,2
106.686, 19.28417,      0.36820,     88.19061,50.00000,49.00000,3.727995e-09,0.92579,2
107.565, 20.13417,      0.22160,     87.64814,50.00000,49.00000,3.718964e-09,0.92589,2
107.846, 20.94750, 8.838757e-02,     87.13229,50.00000,49.00000,3.728271e-09,0.92597,3
107.85, 21.17417, 5.881681e-02,     87.05695,50.00000,49.00000,3.722149e-09,0.92599,3
107.862, 21.40083, 4.126941e-02,     86.97730,50.00000,49.00000,3.719246e-09,0.92602,3
107.949, 21.62750, 4.565757e-02,     86.97730,50.00000,49.00000,3.722754e-09,0.92604,3
108.104, 21.85417, 7.442063e-02,     87.03053,50.00000,49.00000,3.724709e-09,0.92606,3
108.34, 22.08083,      0.12074,     87.13679,50.00000,49.00000,3.724275e-09,0.92608,3
108.663, 22.30750,      0.17910,     87.24521,50.00000,49.00000,3.725789e-09,0.92609,3
109.08, 22.53417,      0.23942,     87.32485,50.00000,49.00000,3.725798e-09,0.92611,3
109.536, 22.76083,      0.29880,     87.43346,50.00000,49.00000,3.723620e-09,0.92613,3
110.035, 22.98750,      0.35087,     87.48650,50.00000,49.00000,3.723361e-09,0.92614,3
110.567, 23.21417,      0.39663,     87.53973,50.00000,49.00000,3.721860e-09,0.92615,3
111.141, 23.44083,      0.43330,     87.59276,50.00000,49.00000,3.721627e-09,0.92616,3
111.716, 23.66750,      0.46593,     87.61937,50.00000,49.00000,3.728847e-09,0.92617,3
112.323, 23.89417,      0.49482,     87.64599,50.00000,49.00000,3.720385e-09,0.92618,3
112.985, 24.12083,      0.52423,     87.72564,50.00000,49.00000,3.726840e-09,0.92619,3
113.649, 24.34750,      0.55463,     87.77886,50.00000,49.00000,3.724284e-09,0.92620,3
114.389, 24.57417,      0.58735,     87.81194,50.00000,49.00000,3.720530e-09,0.92620,3
115.156, 24.80083,      0.62171,     87.88728,50.00000,49.00000,3.720742e-09,0.92620,3
115.954, 25.02750,      0.65937,     87.94051,50.00000,49.00000,3.726162e-09,0.92620,3
116.809, 25.25417,      0.69624,     88.02016,50.00000,49.00000,3.715354e-09,0.92620,3
117.71, 25.48083,      0.73430,     88.09980,50.00000,49.00000,3.723197e-09,0.92620,3
118.639, 25.70750,      0.77207,     88.15969,50.00000,49.00000,3.721211e-09,0.92619,3
119.58, 25.93417,      0.80726,     88.23268,50.00000,49.00000,3.724419e-09,0.92619,3
120.59, 26.16083,      0.84055,     88.28571,50.00000,49.00000,3.718347e-09,0.92617,3
121.601, 26.38750,      0.87305,     88.33894,50.00000,49.00000,3.728986e-09,0.92617,3
122.653, 26.61417,      0.90217,     88.39198,50.00000,49.00000,3.721867e-09,0.92616,3
123.732, 26.84083,      0.92970,     88.44521,50.00000,49.00000,3.723535e-09,0.92614,3
124.833, 27.06750,      0.95579,     88.49843,50.00000,49.00000,3.725458e-09,0.92612,3
125.943, 27.29417,      0.97946,     88.52485,50.00000,49.00000,3.720075e-09,0.92611,3
127.079, 27.52083,      1.00334,     88.57808,50.00000,49.00000,3.723515e-09,0.92608,3
128.233, 27.74750,      1.02546,     88.60470,50.00000,49.00000,3.719809e-09,0.92607,3
129.419, 27.97417,      1.04664,     88.65773,50.00000,49.00000,3.726286e-09,0.92603,3
130.6, 28.20083,      1.06620,     88.65773,50.00000,49.00000,3.722232e-09,0.92601,3
131.804, 28.42750,      1.08483,     88.71096,50.00000,49.00000,3.728391e-09,0.92599,3
133.024, 28.65417,      1.10086,     88.76399,50.00000,49.00000,3.722217e-09,0.92594,3
134.253, 28.88083,      1.11627,     88.76399,50.00000,49.00000,3.722617e-09,0.92592,3
135.487, 29.10750,      1.13089,     88.79061,50.00000,49.00000,3.718924e-09,0.92589,3
136.736, 29.33417,      1.14308,     88.83053,50.00000,49.00000,3.725564e-09,0.92584,3
137.987, 29.56083,      1.15431,     88.84364,50.00000,49.00000,3.716925e-09,0.92581,3
139.245, 29.78750,      1.16425,     88.87025,50.00000,49.00000,3.724073e-09,0.92575,3
140.519, 30.01417,      1.17356,     88.87025,50.00000,49.00000,3.719258e-09,0.92572,3
141.784, 30.24083,      1.18141,     88.89687,50.00000,49.00000,3.718124e-09,0.92569,3
143.063, 30.46750,      1.18813,     88.92348,50.00000,49.00000,3.726050e-09,0.92562,3
144.325, 30.69417,      1.19354,     88.89687,50.00000,49.00000,3.720901e-09,0.92558,3
145.603, 30.92083,      1.19914,     88.92348,50.00000,49.00000,3.723598e-09,0.92554,3
146.879, 31.14750,      1.20311,     88.94990,50.00000,49.00000,3.731702e-09,0.92546,3
148.158, 31.37417,      1.20659,     88.94990,50.00000,49.00000,3.723450e-09,0.92542,3
149.424, 31.60083,      1.20843,     88.97652,50.00000,49.00000,3.725113e-09,0.92534,3
150.703, 31.82750,      1.21029,     88.94990,50.00000,49.00000,3.718127e-09,0.92529,3
151.952, 32.05417,      1.21248,     88.97652,50.00000,49.00000,3.716427e-09,0.92525,3
153.217, 32.28083,      1.21270,     88.98982,50.00000,49.00000,3.719834e-09,0.92515,3
154.481, 32.50750,      1.21326,     88.98982,50.00000,49.00000,3.723846e-09,0.92510,3
155.752, 32.73417,      1.21250,     89.00313,50.00000,49.00000,3.724603e-09,0.92505,3
156.995, 32.96083,      1.21174,     89.02975,50.00000,49.00000,3.726742e-09,0.92495,3
158.241, 33.18750,      1.21032,     89.00313,50.00000,49.00000,3.718401e-09,0.92490,3
159.499, 33.41417,      1.20875,     89.00313,50.00000,49.00000,3.720325e-09,0.92479,3
160.731, 33.64083,      1.20750,     89.00313,50.00000,49.00000,3.724465e-09,0.92473,3
161.974, 33.86750,      1.20610,     89.02309,50.00000,49.00000,3.726376e-09,0.92468,3
163.196, 34.09417,      1.20253,     89.03640,50.00000,49.00000,3.723938e-09,0.92456,3
164.429, 34.32083,      1.19996,     89.03640,50.00000,49.00000,3.725758e-09,0.92450,3
165.642, 34.54750,      1.19739,     89.04305,50.00000,49.00000,3.723888e-09,0.92443,3
166.864, 34.77417,      1.19432,     89.08278,50.00000,49.00000,3.724696e-09,0.92431,3
168.072, 35.00083,      1.19024,     89.08278,50.00000,49.00000,3.718805e-09,0.92424,3
169.283, 35.22750,      1.18785,     89.07613,50.00000,49.00000,3.723412e-09,0.92411,3
170.472, 35.45417,      1.18409,     89.05616,50.00000,49.00000,3.722161e-09,0.92404,3
171.679, 35.68083,      1.18069,     89.08278,50.00000,49.00000,3.721767e-09,0.92398,3
172.864, 35.90750,      1.17879,     89.08278,50.00000,49.00000,3.721670e-09,0.92383,3
174.055, 36.13417,      1.17454,     89.08278,50.00000,49.00000,3.723212e-09,0.92376,3
175.24, 36.36083,      1.17130,     89.05616,50.00000,49.00000,3.718390e-09,0.92369,3
176.426, 36.58750,      1.16840,     89.08278,50.00000,49.00000,3.715215e-09,0.92354,3
177.603, 36.81417,      1.16515,     89.08278,50.00000,49.00000,3.732398e-09,0.92347,3
178.79, 37.04083,      1.16327,     89.08278,50.00000,49.00000,3.726508e-09,0.92339,3
179.948, 37.26750,      1.16103,     89.10274,50.00000,49.00000,3.720099e-09,0.92323,3
181.124, 37.49417,      1.15830,     89.09609,50.00000,49.00000,3.719631e-09,0.92315,3
182.29, 37.72083,      1.15522,     89.12270,50.00000,49.00000,3.722513e-09,0.92299,3
183.452, 37.94750,      1.15282,     89.09609,50.00000,49.00000,3.717260e-09,0.92291,3
184.618, 38.17417,      1.14924,     89.10274,50.00000,49.00000,3.719268e-09,0.92283,3
185.782, 38.40083,      1.14803,     89.10939,50.00000,49.00000,3.730741e-09,0.92266,3
186.937, 38.62750,      1.14598,     89.10939,50.00000,49.00000,3.720089e-09,0.92257,3
188.098, 38.85417,      1.14511,     89.10939,50.00000,49.00000,3.725254e-09,0.92249,3
189.245, 39.08083,      1.14356,     89.10939,50.00000,49.00000,3.720459e-09,0.92232,3
190.408, 39.30750,      1.14254,     89.08278,50.00000,49.00000,3.730339e-09,0.92223,3
191.555, 39.53417,      1.14168,     89.05616,50.00000,49.00000,3.724093e-09,0.92207,3
192.713, 39.76083,      1.14135,     89.08278,50.00000,49.00000,3.723396e-09,0.92200,3
193.84, 39.98750,      1.13912,     89.05616,50.00000,49.00000,3.727521e-09,0.92193,3
195, 40.21417,      1.14067,     89.08278,50.00000,49.00000,3.726802e-09,0.92180,3
196.14, 40.44083,      1.13863,     89.05616,50.00000,49.00000,3.722229e-09,0.92173,3
197.274, 40.66750,      1.13812,     89.03640,50.00000,49.00000,3.719005e-09,0.92166,3
198.414, 40.89417,      1.13728,     89.03640,50.00000,49.00000,3.724062e-09,0.92152,3
199.56, 41.12083,      1.13765,     89.00978,50.00000,49.00000,3.727533e-09,0.92146,3
200.699, 41.34750,      1.13734,     89.03640,50.00000,49.00000,3.724107e-09,0.92133,3
201.834, 41.57417,      1.13874,     89.00978,50.00000,49.00000,3.722071e-09,0.92127,3
202.974, 41.80083,      1.13792,     89.00978,50.00000,49.00000,3.721783e-09,0.92121,3
204.115, 42.02750,      1.13797,     89.00978,50.00000,49.00000,3.729443e-09,0.92108,3
205.242, 42.25417,      1.13767,     88.98317,50.00000,49.00000,3.723654e-09,0.92103,3
206.385, 42.48083,      1.13807,     88.96321,50.00000,49.00000,3.725104e-09,0.92097,3
207.51, 42.70750,      1.13916,     89.01644,50.00000,49.00000,3.721174e-09,0.92086,3
208.651, 42.93417,      1.13975,     88.96986,50.00000,49.00000,3.728439e-09,0.92080,3
209.78, 43.16083,      1.14050,     88.96321,50.00000,49.00000,3.720492e-09,0.92071,3
210.9, 43.38750,      1.14212,     88.96321,50.00000,49.00000,3.728393e-09,0.92066,3
212.04, 43.61417,      1.14239,     88.91018,50.00000,49.00000,3.723753e-09,0.92061,3
213.172, 43.84083,      1.14352,     88.88356,50.00000,49.00000,3.729805e-09,0.92051,3
214.298, 44.06750,      1.14621,     88.85695,50.00000,49.00000,3.732926e-09,0.92047,3
215.429, 44.29417,      1.14822,     88.83053,50.00000,49.00000,3.727067e-09,0.92042,3
216.561, 44.52083,      1.15111,     88.77730,50.00000,49.00000,3.728201e-09,0.92034,3
217.684, 44.74750,      1.15296,     88.77730,50.00000,49.00000,3.724659e-09,0.92030,3
218.813, 44.97417,      1.15412,     88.77730,50.00000,49.00000,3.720805e-09,0.92022,3
219.944, 45.20083,      1.15635,     88.72407,50.00000,49.00000,3.728046e-09,0.92018,3
221.08, 45.42750,      1.15893,     88.69765,50.00000,49.00000,3.724252e-09,0.92014,3
222.213, 45.65417,      1.16135,     88.67769,50.00000,49.00000,3.714940e-09,0.92007,3
223.332, 45.88083,      1.16412,     88.64442,50.00000,49.00000,3.726090e-09,0.92003,3
224.463, 46.10750,      1.16760,     88.59139,50.00000,49.00000,3.725535e-09,0.92000,3
225.584, 46.33417,      1.16899,     88.56477,50.00000,49.00000,3.725862e-09,0.91993,3
226.712, 46.56083,      1.17197,     88.56477,50.00000,49.00000,3.730051e-09,0.91989,3
227.838, 46.78750,      1.17531,     88.51155,50.00000,49.00000,3.727714e-09,0.91983,3
228.971, 47.01417,      1.17779,     88.45851,50.00000,49.00000,3.722035e-09,0.91980,3
230.098, 47.24083,      1.18151,     88.45851,50.00000,49.00000,3.729913e-09,0.91977,3
231.209, 47.46750,      1.18540,     88.40528,50.00000,49.00000,3.722254e-09,0.91970,3
232.344, 47.69417,      1.18915,     88.37886,50.00000,49.00000,3.723630e-09,0.91968,3
233.47, 47.92083,      1.19255,     88.35225,50.00000,49.00000,3.716781e-09,0.91965,3
234.597, 48.14750,      1.19703,     88.32564,50.00000,49.00000,3.728846e-09,0.91959,3
235.72, 48.37417,      1.20151,     88.27260,50.00000,49.00000,3.729853e-09,0.91957,3
236.854, 48.60083,      1.20709,     88.21937,50.00000,49.00000,3.725089e-09,0.91951,3
237.965, 48.82750,      1.20964,     88.19276,50.00000,49.00000,3.722537e-09,0.91948,3
239.111, 49.05417,      1.21508,     88.13738,50.00000,49.00000,3.725012e-09,0.91945,3
240.231, 49.28083,      1.21819,     88.08434,50.00000,49.00000,3.722246e-09,0.91941,3
241.361, 49.50750,      1.22294,     88.05773,50.00000,49.00000,3.723611e-09,0.91938,3
242.481, 49.73417,      1.22554,     88.00235,50.00000,49.00000,3.723921e-09,0.91936,3
243.618, 49.96083,      1.22961,     87.94932,50.00000,49.00000,3.724388e-09,0.91932,3
244.735, 50.18750,      1.23384,     87.89609,50.00000,49.00000,3.723842e-09,0.91929,3
245.872, 50.41417,      1.23847,     87.84305,50.00000,49.00000,3.725196e-09,0.91925,3
246.995, 50.64083,      1.24059,     87.81644,50.00000,49.00000,3.721698e-09,0.91923,3
248.121, 50.86750,      1.24362,     87.76321,50.00000,49.00000,3.725134e-09,0.91921,3
249.254, 51.09417,      1.24721,     87.68356,50.00000,49.00000,3.723111e-09,0.91918,3
250.38, 51.32083,      1.25152,     87.65695,50.00000,49.00000,3.728521e-09,0.91916,3
251.502, 51.54750,      1.25512,     87.57515,50.00000,49.00000,3.723784e-09,0.91914,3
252.632, 51.77417,      1.25893,     87.52192,50.00000,49.00000,3.724447e-09,0.91911,3
253.765, 52.00083,      1.26347,     87.46888,50.00000,49.00000,3.723586e-09,0.91910,3
254.888, 52.22750,      1.26747,     87.38689,50.00000,49.00000,3.728096e-09,0.91907,3
256.015, 52.45417,      1.27203,     87.30724,50.00000,49.00000,3.724784e-09,0.91905,3
257.147, 52.68083,      1.27589,     87.25401,50.00000,49.00000,3.728107e-09,0.91904,3
258.275, 52.90750,      1.27939,     87.20098,50.00000,49.00000,3.723046e-09,0.91902,3
259.403, 53.13417,      1.28364,     87.14775,50.00000,49.00000,3.719504e-09,0.91901,3
260.528, 53.36083,      1.28753,     87.04149,50.00000,49.00000,3.726117e-09,0.91900,3
261.663, 53.58750,      1.29072,     86.96184,50.00000,49.00000,3.724241e-09,0.91898,3
262.788, 53.81417,      1.29554,     86.90861,50.00000,49.00000,3.723911e-09,0.91898,3
263.926, 54.04083,      1.29785,     86.85342,50.00000,49.00000,3.716416e-09,0.91896,3
265.053, 54.26750,      1.30180,     86.77358,50.00000,49.00000,3.722157e-09,0.91895,3
266.182, 54.49417,      1.30521,     86.69178,50.00000,49.00000,3.723135e-09,0.91895,3
267.309, 54.72083,      1.30900,     86.61194,50.00000,49.00000,3.721040e-09,0.91894,3
268.453, 54.94750,      1.31264,     86.53229,50.00000,49.00000,3.727944e-09,0.91894,3
269.58, 55.17417,      1.31554,     86.45264,50.00000,49.00000,3.728630e-09,0.91894,3
270.704, 55.40083,      1.31862,     86.34638,50.00000,49.00000,3.722734e-09,0.91893,3
271.843, 55.62750,      1.32156,     86.24442,50.00000,49.00000,3.721556e-09,0.91892,3
272.962, 55.85417,      1.32356,     86.15597,50.00000,49.00000,3.721021e-09,0.91892,3
274.089, 56.08083,      1.32539,     86.04971,50.00000,49.00000,3.727487e-09,0.91892,3
275.221, 56.30750,      1.32835,     85.97006,50.00000,49.00000,3.720592e-09,0.91892,3
276.357, 56.53417,      1.33206,     85.87691,50.00000,49.00000,3.728996e-09,0.91892,3
277.489, 56.76083,      1.33485,     85.81057,50.00000,49.00000,3.722572e-09,0.91892,3
278.616, 56.98750,      1.33765,     85.69980,50.00000,49.00000,3.718756e-09,0.91892,3
279.746, 57.21417,      1.34009,     85.56477,50.00000,49.00000,3.727417e-09,0.91892,3
280.877, 57.44083,      1.34310,     85.48513,50.00000,49.00000,3.715066e-09,0.91892,3
282.001, 57.66750,      1.34499,     85.37886,50.00000,49.00000,3.731164e-09,0.91892,3
283.137, 57.89417,      1.34729,     85.26380,50.00000,49.00000,3.720430e-09,0.91892,3
284.259, 58.12083,      1.34957,     85.15969,50.00000,49.00000,3.720046e-09,0.91892,3
285.397, 58.34750,      1.35132,     85.08004,50.00000,49.00000,3.720092e-09,0.91892,3
286.527, 58.57417,      1.35475,     84.94051,50.00000,49.00000,3.729388e-09,0.91892,3
287.656, 58.80083,      1.35669,     84.82975,50.00000,49.00000,3.719910e-09,0.91892,3
288.772, 59.02750,      1.35844,     84.72348,50.00000,49.00000,3.724649e-09,0.91892,3
289.912, 59.25417,      1.36004,     84.60841,50.00000,49.00000,3.726488e-09,0.91892,3
291.039, 59.48083,      1.36238,     84.50646,50.00000,49.00000,3.721661e-09,0.91891,3
292.169, 59.70750,      1.36341,     84.38924,50.00000,49.00000,3.722116e-09,0.91892,3
293.301, 59.93417,      1.36672,     84.27847,50.00000,49.00000,3.724101e-09,0.91892,3
294.42, 60.16083,      1.36869,     84.14129,50.00000,49.00000,3.721395e-09,0.91892,3
295.563, 60.38750,      1.36996,     84.02387,50.00000,49.00000,3.719068e-09,0.91892,3
296.696, 60.61417,      1.37329,     83.91311,50.00000,49.00000,3.717920e-09,0.91891,3
297.822, 60.84083,      1.37322,     83.80470,50.00000,49.00000,3.720702e-09,0.91891,3
298.95, 61.06750,      1.37467,     83.66967,50.00000,49.00000,3.721712e-09,0.91891,3
300.08, 61.29417,      1.37423,     83.52583,50.00000,49.00000,3.725938e-09,0.91891,3
301.195, 61.52083,      1.37529,     83.41057,50.00000,49.00000,3.725074e-09,0.91891,3
302.32, 61.74750,      1.37694,     83.27123,50.00000,49.00000,3.725182e-09,0.91891,3
303.468, 61.97417,      1.37654,     83.13386,50.00000,49.00000,3.717433e-09,0.91891,3
304.59, 62.20083,      1.37763,     83.04755,50.00000,49.00000,3.725373e-09,0.91891,3
305.72, 62.42750,      1.37930,     82.87710,50.00000,49.00000,3.722706e-09,0.91891,3
306.854, 62.65417,      1.37831,     82.76849,50.00000,49.00000,3.718434e-09,0.91890,3
307.976, 62.88083,      1.37883,     82.62016,50.00000,49.00000,3.721206e-09,0.91891,3
309.105, 63.10750,      1.37899,     82.48297,50.00000,49.00000,3.720285e-09,0.91891,3
310.245, 63.33417,      1.37686,     82.31037,50.00000,49.00000,3.717529e-09,0.91891,3
311.371, 63.56083,      1.37643,     82.16204,50.00000,49.00000,3.727455e-09,0.91890,3
312.507, 63.78750,      1.37448,     81.99804,50.00000,49.00000,3.725160e-09,0.91890,3
313.629, 64.01417,      1.37481,     81.86536,50.00000,49.00000,3.727080e-09,0.91890,3
314.765, 64.24083,      1.37440,     81.67045,50.00000,49.00000,3.716615e-09,0.91890,3
315.886, 64.46750,      1.37339,     81.53757,50.00000,49.00000,3.719166e-09,0.91889,3
317.022, 64.69417,      1.37046,     81.41135,50.00000,49.00000,3.718747e-09,0.91889,3
318.143, 64.92083,      1.36750,     81.23209,50.00000,49.00000,3.721408e-09,0.91888,3
319.282, 65.14750,      1.36515,     81.08376,50.00000,49.00000,3.719969e-09,0.91888,3
320.417, 65.37417,      1.36259,     80.90665,50.00000,49.00000,3.720147e-09,0.91888,3
321.546, 65.60083,      1.36060,     80.73836,50.00000,49.00000,3.716686e-09,0.91888,3
322.666, 65.82750,      1.35605,     80.56341,50.00000,49.00000,3.727150e-09,0.91887,3
323.814, 66.05417,      1.35076,     80.35969,50.00000,49.00000,3.721803e-09,0.91887,3
324.932, 66.28083,      1.34736,     80.20705,50.00000,49.00000,3.720618e-09,0.91886,3
326.073, 66.50750,      1.34341,     80.00998,50.00000,49.00000,3.728409e-09,0.91886,3
327.199, 66.73417,      1.34078,     79.80626,50.00000,49.00000,3.723494e-09,0.91885,3
328.333, 66.96083,      1.33542,     79.64697,50.00000,49.00000,3.722830e-09,0.91885,3
329.477, 67.18750,      1.32967,     79.42329,50.00000,49.00000,3.722010e-09,0.91884,3
330.602, 67.41417,      1.32564,     79.21957,50.00000,49.00000,3.723455e-09,0.91884,3
331.722, 67.64083,      1.35038,     79.00039,50.00000,49.00000,3.726836e-09,0.91884,3
332.851, 67.86750,      1.33552,     78.82114,50.00000,49.00000,3.726767e-09,0.91883,3
333.983, 68.09417,      1.32378,     78.61076,50.00000,49.00000,3.724773e-09,0.91883,3
335.119, 68.32083,      1.56191,     78.37613,50.00000,49.00000,3.720737e-09,0.91882,3
336.246, 68.54750,      1.53202,     78.17456,50.00000,49.00000,3.719377e-09,0.91881,3
337.381, 68.77417,      1.51258,     77.95753,50.00000,49.00000,3.722570e-09,0.91881,3
338.516, 69.00083,      1.50004,     77.74070,50.00000,49.00000,3.723487e-09,0.91880,3
339.65, 69.22750,      1.50639,     77.47945,50.00000,49.00000,3.723689e-09,0.91880,3
340.786, 69.45417,      1.50757,     77.22701,50.00000,49.00000,3.715344e-09,0.91879,3
341.918, 69.68083,      1.50456,     77.02779,50.00000,49.00000,3.721842e-09,0.91879,3
343.041, 69.90750,      1.49292,     76.78415,50.00000,49.00000,3.719423e-09,0.91878,3
344.181, 70.13417,      1.49230,     76.53190,50.00000,49.00000,3.723016e-09,0.91877,3
345.304, 70.36083,      1.50768,     76.25949,50.00000,49.00000,3.722707e-09,0.91876,3
346.445, 70.58750,      1.49061,     76.03366,50.00000,49.00000,3.722796e-09,0.91875,3
347.567, 70.81417,      1.55110,     75.76145,50.00000,49.00000,3.731786e-09,0.91875,3
348.689, 71.04083,      1.56805,     75.46477,50.00000,49.00000,3.724651e-09,0.91874,3
349.815, 71.26750,      1.55520,     75.21233,50.00000,49.00000,3.716928e-09,0.91873,3
350.955, 71.49417,      1.54395,     74.93777,50.00000,49.00000,3.716382e-09,0.91872,3
352.08, 71.72083,      1.51220,     74.65440,50.00000,49.00000,3.718238e-09,0.91872,3
353.214, 71.94750,      1.55698,     74.32231,50.00000,49.00000,3.724935e-09,0.91871,3
354.35, 72.17417,      1.52903,     74.03229,50.00000,49.00000,3.713687e-09,0.91870,3
355.483, 72.40083,      1.52173,     73.73777,50.00000,49.00000,3.715977e-09,0.91870,3
356.608, 72.62750,      1.48019,     73.34814,50.00000,49.00000,3.719702e-09,0.91869,3
357.74, 72.85417,      1.44466,     73.02055,50.00000,49.00000,3.720117e-09,0.91868,3
358.874, 73.08083,      1.51172,     72.70822,50.00000,49.00000,3.725237e-09,0.91867,3
360.004, 73.30750,      1.43707,     72.36067,50.00000,49.00000,3.715749e-09,0.91866,3
361.123, 73.53417,      1.67238,     72.03738,50.00000,49.00000,3.728256e-09,0.91865,3
362.26, 73.76083,      1.62689,     71.63894,50.00000,49.00000,3.724884e-09,0.91864,3
363.387, 73.98750,      1.62724,     71.29569,50.00000,49.00000,3.721222e-09,0.91863,3
364.514, 74.21417,      1.66584,     70.92818,50.00000,49.00000,3.716721e-09,0.91862,3
365.645, 74.44083,      1.68911,     70.50098,50.00000,49.00000,3.721410e-09,0.91861,3
366.778, 74.66750,      1.67884,     70.10470,50.00000,49.00000,3.722318e-09,0.91860,3
367.922, 74.89417,      1.67744,     69.66184,50.00000,49.00000,3.720716e-09,0.91859,3
369.055, 75.12083,      1.65242,     69.21252,50.00000,49.00000,3.726070e-09,0.91858,3
370.177, 75.34750,      1.67123,     68.70313,50.00000,49.00000,3.717590e-09,0.91857,3
371.304, 75.57417,      1.52639,     68.18297,50.00000,49.00000,3.719817e-09,0.91857,3
372.441, 75.80083,      1.73649,     67.63836,50.00000,49.00000,3.712187e-09,0.91855,3
373.571, 76.02750,      1.61650,     67.11585,50.00000,49.00000,3.722380e-09,0.91854,3
374.7, 76.25417,      1.72918,     66.52681,50.00000,49.00000,3.708190e-09,0.91853,3
375.825, 76.48083,      1.74449,     65.95793,50.00000,49.00000,3.716998e-09,0.91852,3
376.964, 76.70750,      1.69757,     65.36458,50.00000,49.00000,3.722120e-09,0.91851,3
378.086, 76.93417,      1.73443,     64.75342,50.00000,49.00000,3.715782e-09,0.91849,3
379.21, 77.16083,      1.73828,     64.15793,50.00000,49.00000,3.721765e-09,0.91849,3
380.343, 77.38750,      1.80515,     63.46947,50.00000,49.00000,3.719182e-09,0.91848,3
381.489, 77.61417,      1.83861,     62.82740,50.00000,49.00000,3.716304e-09,0.91847,3
382.611, 77.84083,      1.86536,     62.12779,50.00000,49.00000,3.722232e-09,0.91845,3
383.754, 78.06750,      1.76019,     61.40822,50.00000,49.00000,3.726773e-09,0.91845,3
384.877, 78.29417,      1.44592,     60.68200,50.00000,49.00000,3.717603e-09,0.91843,3
386.002, 78.52083,      1.56890,     59.86947,50.00000,49.00000,3.714618e-09,0.91842,3
387.145, 78.74750,      1.90441,     59.05245,50.00000,49.00000,3.720628e-09,0.91840,3
388.262, 78.97417,      1.55538,     58.26654,50.00000,49.00000,3.720828e-09,0.91840,3
389.383, 79.20083,      1.92859,     57.36321,50.00000,49.00000,3.715682e-09,0.91839,3
390.522, 79.42750,      1.54177,     56.49315,50.00000,49.00000,3.713881e-09,0.91837,3
391.654, 79.65417,      1.59399,     55.60978,50.00000,49.00000,3.721250e-09,0.91836,3
392.778, 79.88083,      1.96212,     54.65342,50.00000,49.00000,3.722368e-09,0.91835,3
393.908, 80.10750,      1.81691,     53.67476,50.00000,50.00000,3.721232e-09,0.91833,3
395.038, 80.33417,      1.72971,     52.68297,50.00000,49.00000,3.709517e-09,0.91832,3
396.172, 80.56083,      1.76322,     51.70000,50.00000,50.00000,3.707215e-09,0.91830,3
397.297, 80.78750,      1.83268,     50.65499,50.00000,49.00000,3.719927e-09,0.91829,3
398.437, 81.01417,      2.00586,     49.61213,50.00000,49.00000,3.714080e-09,0.91829,3
399.566, 81.24083,      1.83094,     48.48532,50.00000,50.00000,3.723207e-09,0.91827,3
400.699, 81.46750,      2.03850,     47.32740,50.00000,49.00000,3.720843e-09,0.91826,3
401.844, 81.69417,      1.94351,     46.13170,50.00000,50.00000,3.721439e-09,0.91823,3
402.973, 81.92083,      1.72698,     44.92740,50.00000,50.00000,3.718676e-09,0.91823,3
404.093, 82.14750,      1.54511,     43.73855,50.00000,50.00000,3.717006e-09,0.91822,3
405.226, 82.37417,      1.83729,     42.50744,50.00000,50.00000,3.718947e-09,0.91820,3
406.356, 82.60083,      2.09099,     41.24560,50.00000,50.00000,3.718676e-09,0.91819,3
407.485, 82.82750,      2.09503,     39.99902,50.00000,50.00000,3.713913e-09,0.91818,3
408.622, 83.05417,      2.09867,     38.70607,50.00000,50.00000,3.714914e-09,0.91817,3
409.753, 83.28083,      2.11715,     37.41311,50.00000,50.00000,3.721512e-09,0.91815,3
410.873, 83.50750,      2.00965,     36.11350,50.00000,50.00000,3.712689e-09,0.91813,3
412.006, 83.73417,      2.10078,     34.75871,50.00000,50.00000,3.719730e-09,0.91812,3
413.145, 83.96083,      2.09764,     33.37045,50.00000,50.00000,3.718770e-09,0.91812,3
414.278, 84.18750,      2.09490,     32.02446,50.00000,50.00000,3.719335e-09,0.91810,3
415.411, 84.41417,      2.08775,     30.62955,50.00000,50.00000,3.716148e-09,0.91809,3
416.554, 84.64083,      2.07972,     29.22153,50.00000,50.00000,3.716989e-09,0.91808,3
417.688, 84.86750,      2.06435,     27.80020,50.00000,50.00000,3.716345e-09,0.91806,3
418.813, 85.09417,      2.04293,     26.36986,50.00000,50.00000,3.714480e-09,0.91804,3
419.95, 85.32083,      2.00775,     24.95068,50.00000,50.00000,3.718855e-09,0.91803,3
421.082, 85.54750,      1.97621,     23.51174,50.00000,50.00000,3.719065e-09,0.91802,3
422.224, 85.77417,      1.93305,     22.08806,50.00000,50.00000,3.716860e-09,0.91801,3
423.341, 86.00083,      1.88635,     20.62016,50.00000,50.00000,3.716252e-09,0.91798,3
424.481, 86.22750,      1.83443,     19.20763,50.00000,50.00000,3.727588e-09,0.91797,3
425.61, 86.45417,      1.76203,     17.82172,50.00000,50.00000,3.716899e-09,0.91796,3
426.749, 86.68083,      1.69076,     16.42466,50.00000,50.00000,3.716738e-09,0.91794,3
427.887, 86.90750,      1.60919,     15.08297,50.00000,50.00000,3.719169e-09,0.91793,3
429.013, 87.13417,      1.52780,     13.73033,50.00000,50.00000,3.715949e-09,0.91791,3
430.165, 87.36083,      1.44418,     12.44618,50.00000,50.00000,3.719898e-09,0.91790,3
431.292, 87.58750,      1.34924,     11.17769,50.00000,50.00000,3.724771e-09,0.91789,3
432.419, 87.81417,      1.24027,      9.92231,50.00000,50.00000,3.720728e-09,0.91787,3
433.555, 88.04083,      1.13708,      8.77769,50.00000,50.00000,3.710112e-09,0.91786,3
434.693, 88.26750,      1.03537,      7.63307,50.00000,50.00000,3.721140e-09,0.91785,3
435.821, 88.49417,      0.94261,      6.57045,50.00000,50.00000,3.721141e-09,0.91783,3
436.964, 88.72083,      0.84800,      5.53425,50.00000,50.00000,3.719761e-09,0.91782,3
438.092, 88.94750,      0.72880,      4.57554,50.00000,50.00000,3.725288e-09,0.91780,3
439.231, 89.17417,      0.62151,      3.65010,50.00000,50.00000,3.725137e-09,0.91778,3
440.367, 89.40083,      0.55669,      2.81761,50.00000,50.00000,3.725255e-09,0.91778,3
441.499, 89.62750,      0.50875,      2.05166,50.00000,50.00000,3.710175e-09,0.91775,3
442.635, 89.85417,      0.45132,      1.33209,50.00000,50.00000,3.721963e-09,0.91774,3
443.779, 90.08083,      0.39965,      0.69217,50.00000,50.00000,3.717066e-09,0.91773,3
444.898, 90.30750,      0.34553,      0.11879,50.00000,50.00000,3.719500e-09,0.91771,3
446.036, 90.53417,      0.29216,     -0.46341,50.00000,50.00000,3.725212e-09,0.91770,3
447.18, 90.76083,      0.24162,     -0.92838,50.00000,50.00000,3.719578e-09,0.91768,3
448.316, 90.98750,      0.19368,     -1.34892,50.00000,50.00000,3.711623e-09,0.91766,3
449.45, 91.21417,      0.14997,     -1.78082,50.00000,50.00000,3.720430e-09,0.91765,3
450.585, 91.44083,      0.10567,     -2.10391,50.00000,50.00000,3.721039e-09,0.91763,3
451.721, 91.66750, 6.701155e-02,     -2.40509,50.00000,50.00000,3.718326e-09,0.91762,3
452.852, 91.89417, 3.054787e-02,     -2.68180,50.00000,50.00000,3.723169e-09,0.91761,3
453.992, 92.12083,-3.708405e-03,     -2.92975,50.00000,50.00000,3.720281e-09,0.91758,3
455.12, 92.34750,-3.574709e-02,     -3.12016,50.00000,50.00000,3.713042e-09,0.91757,3
456.25, 92.57417,-6.486013e-02,     -3.29295,50.00000,50.00000,3.717747e-09,0.91756,3
457.387, 92.80083,-9.499287e-02,     -3.43229,50.00000,50.00000,3.712391e-09,0.91754,3
458.522, 93.02750,     -0.12265,     -3.54305,50.00000,50.00000,3.719249e-09,0.91753,3
459.652, 93.25417,     -0.14876,     -3.65812,50.00000,50.00000,3.722891e-09,0.91750,3
460.784, 93.48083,     -0.16933,     -3.76438,50.00000,50.00000,3.717319e-09,0.91749,3
461.923, 93.70750,     -0.19043,     -3.81761,50.00000,50.00000,3.718501e-09,0.91748,3
463.033, 93.93417,     -0.20948,     -3.89726,50.00000,50.00000,3.712484e-09,0.91746,3
464.173, 94.16083,     -0.22530,     -3.92387,50.00000,50.00000,3.725406e-09,0.91744,3
465.304, 94.38750,     -0.24046,     -3.97691,50.00000,50.00000,3.727152e-09,0.91743,3
466.441, 94.61417,     -0.25591,     -4.00352,50.00000,50.00000,3.713753e-09,0.91740,3
467.573, 94.84083,     -0.26856,     -4.03014,50.00000,50.00000,3.713037e-09,0.91739,3
468.703, 95.06750,     -0.28314,     -4.08337,50.00000,50.00000,3.718618e-09,0.91737,3
469.826, 95.29417,     -0.29492,     -4.08337,50.00000,50.00000,3.711850e-09,0.91735,3
470.966, 95.52083,     -0.30532,     -4.10978,50.00000,50.00000,3.711038e-09,0.91734,3
472.091, 95.74750,     -0.31836,     -4.13640,50.00000,50.00000,3.726845e-09,0.91732,3
473.23, 95.97417,     -0.32859,     -4.16301,50.00000,50.00000,3.726085e-09,0.91730,3
474.356, 96.20083,     -0.34003,     -4.16301,50.00000,50.00000,3.713837e-09,0.91729,3
475.498, 96.42750,     -0.35031,     -4.18963,50.00000,50.00000,3.710986e-09,0.91727,3
476.627, 96.65417,     -0.36230,     -4.21605,50.00000,50.00000,3.714000e-09,0.91726,3
477.764, 96.88083,     -0.37480,     -4.21605,50.00000,50.00000,3.724494e-09,0.91723,3
478.899, 97.10750,     -0.38853,     -4.24266,50.00000,50.00000,3.723793e-09,0.91722,3
480.02, 97.33417,     -0.39750,     -4.26262,50.00000,50.00000,3.721725e-09,0.91720,3
481.16, 97.56083,     -0.41227,     -4.24932,50.00000,50.00000,3.718493e-09,0.91718,3
482.29, 97.78750,     -0.42491,     -4.26928,50.00000,50.00000,3.722440e-09,0.91716,3
483.418, 98.01417,     -0.43830,     -4.29589,50.00000,50.00000,3.719734e-09,0.91715,3
484.549, 98.24083,     -0.45174,     -4.31566,50.00000,50.00000,3.717453e-09,0.91713,3
485.684, 98.46750,     -0.46280,     -4.31566,50.00000,50.00000,3.715086e-09,0.91711,3
486.811, 98.69417,     -0.47607,     -4.28924,50.00000,50.00000,3.716773e-09,0.91710,3
487.958, 98.92083,     -0.48987,     -4.31566,50.00000,50.00000,3.721257e-09,0.91707,3
489.07, 99.14750,     -0.50393,     -4.31566,50.00000,50.00000,3.721409e-09,0.91706,3
490.209, 99.37417,     -0.51658,     -4.30254,50.00000,50.00000,3.720387e-09,0.91703,3
491.346, 99.60083,     -0.52879,     -4.32896,50.00000,50.00000,3.718553e-09,0.91702,3
492.476, 99.82750,     -0.54175,     -4.32896,50.00000,50.00000,3.722126e-09,0.91700,3
493.615,100.054,     -0.55574,     -4.32231,50.00000,50.00000,3.714305e-09,0.91697,3
494.746,100.281,     -0.56755,     -4.32231,50.00000,50.00000,3.718160e-09,0.91696,3
495.887,100.507,     -0.58014,     -4.32231,50.00000,50.00000,3.712538e-09,0.91695,3
497.025,100.734,     -0.59326,     -4.31566,50.00000,50.00000,3.712574e-09,0.91692,3
498.152,100.961,     -0.60836,     -4.32896,50.00000,50.00000,3.715205e-09,0.91690,3
499.275,101.188,     -0.62326,     -4.30900,50.00000,50.00000,3.716051e-09,0.91687,3
500.404,101.414,     -0.63747,     -4.30900,50.00000,50.00000,3.713100e-09,0.91686,3
501.552,101.641,     -0.65124,     -4.32231,50.00000,50.00000,3.720206e-09,0.91684,3
502.681,101.868,     -0.66502,     -4.29589,50.00000,50.00000,3.714187e-09,0.91682,3
503.808,102.094,     -0.67934,     -4.32231,50.00000,50.00000,3.726649e-09,0.91680,3
504.944,102.321,     -0.69420,     -4.30254,50.00000,50.00000,3.716695e-09,0.91679,3
506.079,102.547,     -0.70786,     -4.31566,50.00000,50.00000,3.720785e-09,0.91676,3
507.2,102.774,     -0.72179,     -4.31566,50.00000,50.00000,3.719318e-09,0.91674,3
508.344,103.001,     -0.73678,     -4.31566,50.00000,50.00000,3.719845e-09,0.91671,3
509.475,103.228,     -0.74980,     -4.28924,50.00000,50.00000,3.719293e-09,0.91670,3
510.61,103.454,     -0.76486,     -4.28924,50.00000,50.00000,3.724278e-09,0.91668,3
511.743,103.681,     -0.77770,     -4.26928,50.00000,50.00000,3.722347e-09,0.91665,3
512.883,103.907,     -0.79284,     -4.27593,50.00000,50.00000,3.713997e-09,0.91663,3
514.014,104.134,     -0.80650,     -4.27593,50.00000,50.00000,3.716127e-09,0.91660,3
515.145,104.361,     -0.82146,     -4.27593,50.00000,50.00000,3.717458e-09,0.91659,3
516.287,104.588,     -0.83772,     -4.27593,50.00000,50.00000,3.717851e-09,0.91657,3
517.41,104.814,     -0.85300,     -4.27593,50.00000,50.00000,3.712866e-09,0.91654,3
518.554,105.041,     -0.86759,     -4.26262,50.00000,50.00000,3.712640e-09,0.91653,3
519.682,105.267,     -0.88017,     -4.26262,50.00000,50.00000,3.719302e-09,0.91651,3
520.819,105.494,     -0.89735,     -4.26262,50.00000,50.00000,3.720711e-09,0.91648,3
521.956,105.721,     -0.91002,     -4.26262,50.00000,50.00000,3.722200e-09,0.91647,3
523.091,105.948,     -0.92703,     -4.23601,50.00000,50.00000,3.718749e-09,0.91645,3
524.218,106.174,     -0.93823,     -4.24932,50.00000,50.00000,3.714392e-09,0.91641,3
525.358,106.401,     -0.95253,     -4.22270,50.00000,50.00000,3.721327e-09,0.91640,3
526.488,106.627,     -0.96609,     -4.22270,50.00000,50.00000,3.714528e-09,0.91638,3
527.629,106.854,     -0.98071,     -4.22270,50.00000,50.00000,3.716806e-09,0.91635,3
528.756,107.081,     -0.99816,     -4.22270,50.00000,50.00000,3.718362e-09,0.91633,3
529.908,107.308,     -1.01084,     -4.20274,50.00000,50.00000,3.711892e-09,0.91630,3
531.031,107.534,     -1.02683,     -4.20274,50.00000,50.00000,3.723500e-09,0.91628,3
532.17,107.761,     -1.04160,     -4.22935,50.00000,50.00000,3.712799e-09,0.91626,3
533.303,107.987,     -1.05666,     -4.20274,50.00000,50.00000,3.716938e-09,0.91623,3
534.45,108.214,     -1.07229,     -4.20274,50.00000,50.00000,3.721483e-09,0.91621,3
535.574,108.441,     -1.08587,     -4.17632,50.00000,50.00000,3.721726e-09,0.91618,3
536.719,108.668,     -1.10235,     -4.19628,50.00000,50.00000,3.716786e-09,0.91616,3
537.853,108.894,     -1.11498,     -4.16967,50.00000,50.00000,3.712265e-09,0.91615,3
538.986,109.121,     -1.12841,     -4.16967,50.00000,50.00000,3.719246e-09,0.91611,3
540.127,109.347,     -1.14603,     -4.16301,50.00000,50.00000,3.720686e-09,0.91609,3
541.264,109.574,     -1.16239,     -4.18963,50.00000,50.00000,3.715533e-09,0.91608,3
542.396,109.801,     -1.17645,     -4.16301,50.00000,50.00000,3.720216e-09,0.91604,3
543.523,110.028,     -1.18976,     -4.16301,50.00000,50.00000,3.712610e-09,0.91602,3
544.673,110.254,     -1.20417,     -4.16301,50.00000,50.00000,3.718883e-09,0.91600,3
545.806,110.481,     -1.21755,     -4.14305,50.00000,50.00000,3.714905e-09,0.91597,3
546.946,110.707,     -1.23279,     -4.16301,50.00000,50.00000,3.714781e-09,0.91596,3
548.079,110.934,     -1.24937,     -4.16301,50.00000,50.00000,3.709215e-09,0.91592,3
549.209,111.161,     -1.26782,     -4.16301,50.00000,50.00000,3.715710e-09,0.91590,3
550.338,111.388,     -1.28264,     -4.16967,50.00000,50.00000,3.712523e-09,0.91588,3
551.475,111.614,     -1.29567,     -4.16967,50.00000,50.00000,3.718259e-09,0.91584,3
552.621,111.841,     -1.31006,     -4.14971,50.00000,50.00000,3.714921e-09,0.91583,3
553.749,112.067,     -1.32525,     -4.15636,50.00000,50.00000,3.717382e-09,0.91579,3
554.877,112.294,     -1.33994,     -4.15636,50.00000,50.00000,3.714018e-09,0.91577,3
556.018,112.521,     -1.35442,     -4.14305,50.00000,50.00000,3.719932e-09,0.91576,3
557.154,112.748,     -1.36946,     -4.14305,50.00000,50.00000,3.715449e-09,0.91572,3
558.287,112.974,     -1.38267,     -4.14305,50.00000,50.00000,3.716702e-09,0.91569,3
559.426,113.201,     -1.39593,     -4.14305,50.00000,50.00000,3.717574e-09,0.91568,3
560.566,113.427,     -1.41054,     -4.14971,50.00000,50.00000,3.715922e-09,0.91564,3
561.699,113.654,     -1.42915,     -4.14305,50.00000,50.00000,3.722580e-09,0.91562,3
562.828,113.881,     -1.44275,     -4.16301,50.00000,50.00000,3.724916e-09,0.91560,3
563.966,114.108,     -1.45640,     -4.13640,50.00000,50.00000,3.713293e-09,0.91556,3
565.106,114.334,     -1.47114,     -4.15636,50.00000,50.00000,3.716406e-09,0.91555,3
566.257,114.561,     -1.48834,     -4.14305,50.00000,50.00000,3.722074e-09,0.91552,3
567.383,114.787,     -1.50287,     -4.14305,50.00000,50.00000,3.716695e-09,0.91549,3
568.512,115.014,     -1.51501,     -4.12975,50.00000,50.00000,3.713390e-09,0.91546,3
569.652,115.241,     -1.53123,     -4.14305,50.00000,50.00000,3.723392e-09,0.91543,3
570.785,115.468,     -1.54559,     -4.12975,50.00000,50.00000,3.716360e-09,0.91541,3
571.932,115.694,     -1.56054,     -4.12975,50.00000,50.00000,3.711209e-09,0.91539,3
573.069,115.921,     -1.57659,     -4.12975,50.00000,50.00000,3.722010e-09,0.91535,3
574.205,116.147,     -1.59159,     -4.12975,50.00000,50.00000,3.724427e-09,0.91533,3
575.337,116.374,     -1.60932,     -4.12975,50.00000,50.00000,3.716305e-09,0.91531,3
576.473,116.601,     -1.62303,     -4.10313,50.00000,50.00000,3.717276e-09,0.91527,3
577.608,116.828,     -1.63786,     -4.12975,50.00000,50.00000,3.723856e-09,0.91525,3
578.749,117.054,     -1.65165,     -4.10313,50.00000,50.00000,3.714265e-09,0.91521,3
579.89,117.281,     -1.66655,     -4.12309,50.00000,50.00000,3.711377e-09,0.91519,3
581.027,117.507,     -1.68147,     -4.10313,50.00000,50.00000,3.714822e-09,0.91517,3
582.159,117.734,     -1.69777,     -4.10548,50.00000,50.00000,3.712765e-09,0.91513,3
583.291,117.961,     -1.71275,     -4.13190,50.00000,50.00000,3.711280e-09,0.91511,3
584.432,118.188,     -1.72560,     -4.13190,50.00000,50.00000,3.716223e-09,0.91509,3
585.565,118.414,     -1.74091,     -4.10548,50.00000,50.00000,3.721359e-09,0.91505,3
586.703,118.641,     -1.75216,     -4.13190,50.00000,50.00000,3.708076e-09,0.91503,3
587.845,118.868,     -1.76865,     -4.08552,50.00000,50.00000,3.719457e-09,0.91501,3
588.977,119.094,     -1.78268,     -4.13425,50.00000,50.00000,3.717581e-09,0.91496,3
590.117,119.321,     -1.80087,     -4.10763,50.00000,50.00000,3.718218e-09,0.91494,3
591.248,119.547,     -1.81469,     -4.12094,50.00000,50.00000,3.713281e-09,0.91490,3
592.37,119.774,     -1.82906,     -4.12094,50.00000,50.00000,3.718649e-09,0.91488,3
593.514,120.001,     -1.84461,     -4.09432,50.00000,50.00000,3.711750e-09,0.91486,3
594.637,120.228,     -1.85767,     -4.09432,50.00000,50.00000,3.717944e-09,0.91482,3
595.789,120.454,     -1.86943,     -4.09432,50.00000,50.00000,3.712684e-09,0.91480,3
596.929,120.681,     -1.88118,     -4.11429,50.00000,50.00000,3.708928e-09,0.91477,3
598.058,120.907,     -1.89626,     -4.11429,50.00000,50.00000,3.705905e-09,0.91473,3
598.578,121.009,     -1.90649,     -4.11429,50.00000,50.00000,3.705905e-09,0.91473,4
599.088,121.094,     -1.87735,     -4.08767,50.00000,50.00000,3.719639e-09,0.91471,4
599.746,121.179,     -1.75998,     -4.08767,50.00000,50.00000,3.719639e-09,0.91471,4
600.61,121.264,     -1.53038,     -4.02564,50.00000,50.00000,3.718301e-09,0.91469,4
601.707,121.349,     -1.20114,     -3.96810,50.00000,50.00000,3.718301e-09,0.91469,4
603.026,121.434,     -0.79421,     -3.91272,50.00000,50.00000,3.709746e-09,0.91467,4
604.536,121.519,     -0.35329,     -3.85519,50.00000,50.00000,3.713618e-09,0.91465,4
606.206,121.604, 8.966915e-02,     -3.80881,50.00000,50.00000,3.713618e-09,0.91465,4
608.004,121.689,      0.49988,     -3.76008,50.00000,50.00000,3.715850e-09,0.91463,4
609.858,121.774,      0.84555,     -3.71135,50.00000,50.00000,3.715850e-09,0.91463,4
611.74,121.859,      1.10973,     -3.68474,50.00000,50.00000,3.717143e-09,0.91460,4
613.603,121.944,      1.28709,     -3.68474,50.00000,50.00000,3.717143e-09,0.91460,4
615.439,122.029,      1.37651,     -3.65812,50.00000,50.00000,3.712030e-09,0.91458,4
617.213,122.114,      1.39070,     -3.65147,50.00000,50.00000,3.712030e-09,0.91458,4
618.911,122.199,      1.33912,     -3.63836,50.00000,50.00000,3.717679e-09,0.91456,4
620.561,122.284,      1.23905,     -3.66477,50.00000,50.00000,3.717679e-09,0.91456,4
622.136,122.369,      1.11183,     -3.66477,50.00000,50.00000,3.723488e-09,0.91454,4
623.658,122.454,      0.97388,     -3.66477,50.00000,50.00000,3.723488e-09,0.91454,4
625.15,122.539,      0.83374,     -3.66477,50.00000,50.00000,3.710885e-09,0.91451,4
626.598,122.624,      0.71367,     -3.69139,50.00000,50.00000,3.710885e-09,0.91451,4
628.057,122.709,      0.60840,     -3.66477,50.00000,50.00000,3.712615e-09,0.91449,4
629.513,122.794,      0.52972,     -3.60509,50.00000,50.00000,3.712615e-09,0.91449,4
630.98,122.879,      0.47862,     -3.57397,50.00000,50.00000,3.721192e-09,0.91447,4
632.474,122.964,      0.45438,     -3.60059,50.00000,50.00000,3.721192e-09,0.91447,4
633.98,123.049,      0.45249,     -3.60059,50.00000,50.00000,3.710090e-09,0.91445,4
635.527,123.134,      0.46877,     -3.60059,50.00000,50.00000,3.710090e-09,0.91445,4
637.107,123.219,      0.49752,     -3.57397,50.00000,50.00000,3.713940e-09,0.91443,4
638.713,123.304,      0.53303,     -3.57397,50.00000,50.00000,3.713940e-09,0.91443,4
640.348,123.389,      0.57243,     -3.54755,50.00000,50.00000,3.711240e-09,0.91441,4
641.995,123.474,      0.60761,     -3.54755,50.00000,50.00000,3.711240e-09,0.91441,4
643.652,123.559,      0.63826,     -3.54755,50.00000,50.00000,3.710357e-09,0.91438,4
645.335,123.644,      0.66525,     -3.48767,50.00000,50.00000,3.710357e-09,0.91438,4
647.016,123.729,      0.68503,     -3.50763,50.00000,50.00000,3.709877e-09,0.91436,4
648.71,123.814,      0.69525,     -3.50763,50.00000,50.00000,3.709877e-09,0.91436,4
650.407,123.899,      0.69643,     -3.50763,50.00000,50.00000,3.709677e-09,0.91434,4
652.115,123.984,      0.69029,     -3.48102,50.00000,50.00000,3.709677e-09,0.91434,4
653.804,124.069,      0.68030,     -3.48102,50.00000,50.00000,3.716111e-09,0.91432,4
655.508,124.154,      0.66293,     -3.48102,50.00000,50.00000,3.716111e-09,0.91432,4
657.211,124.239,      0.64373,     -3.46771,50.00000,50.00000,3.708988e-09,0.91429,4
658.903,124.324,      0.62239,     -3.46771,50.00000,50.00000,3.708988e-09,0.91429,4
660.606,124.409,      0.59920,     -3.45460,50.00000,50.00000,3.711500e-09,0.91427,4
662.305,124.494,      0.57682,     -3.42798,50.00000,50.00000,3.711500e-09,0.91427,4
664.011,124.579,      0.55555,     -3.45460,50.00000,50.00000,3.716768e-09,0.91425,4
665.714,124.664,      0.53539,     -3.42798,50.00000,50.00000,3.716768e-09,0.91425,4
667.423,124.749,      0.51457,     -3.42798,50.00000,50.00000,3.712121e-09,0.91423,4
669.128,124.834,      0.49695,     -3.40137,50.00000,50.00000,3.712121e-09,0.91423,4
670.842,124.919,      0.47987,     -3.40137,50.00000,50.00000,3.717514e-09,0.91420,4
672.556,125.004,      0.46004,     -3.38141,50.00000,50.00000,3.709252e-09,0.91418,4
674.288,125.089,      0.43625,     -3.37476,50.00000,50.00000,3.709252e-09,0.91418,4
676.01,125.174,      0.41928,     -3.37476,50.00000,50.00000,3.710977e-09,0.91416,4
677.733,125.259,      0.40104,     -3.37476,50.00000,50.00000,3.710977e-09,0.91416,4
679.464,125.344,      0.37854,     -3.34814,50.00000,50.00000,3.713684e-09,0.91413,4
681.201,125.429,      0.35897,     -3.34814,50.00000,50.00000,3.713684e-09,0.91413,4
682.928,125.514,      0.33661,     -3.32172,50.00000,50.00000,3.720852e-09,0.91411,4
684.661,125.599,      0.31539,     -3.32172,50.00000,50.00000,3.720852e-09,0.91411,4
686.395,125.684,      0.29198,     -3.32172,50.00000,50.00000,3.709508e-09,0.91409,4
688.14,125.769,      0.26698,     -3.32172,50.00000,50.00000,3.709508e-09,0.91409,4
689.891,125.854,      0.24098,     -3.29511,50.00000,50.00000,3.712405e-09,0.91406,4
691.604,125.939,      0.21428,     -3.29511,50.00000,50.00000,3.712405e-09,0.91406,4
693.349,126.024,      0.18597,     -3.29511,50.00000,50.00000,3.717841e-09,0.91404,4
695.097,126.109,      0.15940,     -3.28180,50.00000,50.00000,3.717841e-09,0.91404,4
696.833,126.194,      0.13305,     -3.26849,50.00000,50.00000,3.710472e-09,0.91402,4
698.566,126.279, 9.925899e-02,     -3.26849,50.00000,50.00000,3.710472e-09,0.91402,4
700.305,126.364, 7.149587e-02,     -3.26849,50.00000,50.00000,3.713238e-09,0.91399,4
702.055,126.449, 4.425788e-02,     -3.26849,50.00000,50.00000,3.713238e-09,0.91399,4
703.796,126.534, 1.385284e-02,     -3.24188,50.00000,50.00000,3.711846e-09,0.91397,4
705.534,126.619,-1.603338e-02,     -3.24188,50.00000,50.00000,3.711846e-09,0.91397,4
707.276,126.704,-4.570661e-02,     -3.24188,50.00000,50.00000,3.715826e-09,0.91395,4
709.027,126.789,-7.609398e-02,     -3.21546,50.00000,50.00000,3.715826e-09,0.91395,4
710.77,126.874,     -0.10751,     -3.21546,50.00000,50.00000,3.718672e-09,0.91393,4
712.511,126.959,     -0.13933,     -3.21546,50.00000,50.00000,3.718672e-09,0.91393,4
714.253,127.044,     -0.17001,     -3.18885,50.00000,50.00000,3.714103e-09,0.91390,4
716.001,127.129,     -0.20297,     -3.18885,50.00000,50.00000,3.714103e-09,0.91390,4
717.748,127.214,     -0.24164,     -3.18885,50.00000,50.00000,3.706328e-09,0.91388,4
719.491,127.299,     -0.27607,     -3.18885,50.00000,50.00000,3.706328e-09,0.91388,4
721.234,127.384,     -0.31310,     -3.18885,50.00000,50.00000,3.709825e-09,0.91385,4
722.977,127.469,     -0.34743,     -3.16223,50.00000,50.00000,3.709825e-09,0.91385,4
724.712,127.554,     -0.38374,     -3.16223,50.00000,50.00000,3.719129e-09,0.91383,4
726.455,127.639,     -0.42363,     -3.16223,50.00000,50.00000,3.719129e-09,0.91383,4
728.197,127.724,     -0.46081,     -3.13562,50.00000,50.00000,3.710362e-09,0.91381,4
729.94,127.809,     -0.49968,     -3.13562,50.00000,50.00000,3.710362e-09,0.91381,4
731.688,127.894,     -0.53709,     -3.13562,50.00000,50.00000,3.718946e-09,0.91378,4
733.424,127.979,     -0.57651,     -3.12250,50.00000,50.00000,3.718946e-09,0.91378,4
735.164,128.064,     -0.61637,     -3.10920,50.00000,50.00000,3.706606e-09,0.91376,4
736.909,128.149,     -0.65730,     -3.10920,50.00000,50.00000,3.706606e-09,0.91376,4
738.644,128.234,     -0.69995,     -3.10920,50.00000,50.00000,3.722218e-09,0.91374,4
740.39,128.319,     -0.74146,     -3.08924,50.00000,50.00000,3.722218e-09,0.91374,4
742.119,128.404,     -0.78658,     -3.08258,50.00000,50.00000,3.713675e-09,0.91371,4
743.866,128.489,     -0.82995,     -3.06928,50.00000,50.00000,3.713675e-09,0.91371,4
745.621,128.574,     -0.87409,     -3.05597,50.00000,50.00000,3.708475e-09,0.91369,4
747.348,128.659,     -0.91610,     -3.05597,50.00000,50.00000,3.708475e-09,0.91369,4
749.087,128.744,     -0.96210,     -3.05597,50.00000,50.00000,3.715132e-09,0.91367,4
750.833,128.829,     -1.00503,     -3.05597,50.00000,50.00000,3.715132e-09,0.91367,4
752.569,128.914,     -1.05163,     -3.05597,50.00000,50.00000,3.710241e-09,0.91364,4
754.311,128.999,     -1.09965,     -3.02935,50.00000,50.00000,3.710241e-09,0.91364,4
756.043,129.084,     -1.14588,     -3.02935,50.00000,50.00000,3.717822e-09,0.91362,4
757.778,129.169,     -1.19581,     -3.02935,50.00000,50.00000,3.717571e-09,0.91359,4
759.513,129.254,     -1.24394,     -3.02935,50.00000,50.00000,3.717571e-09,0.91359,4
761.25,129.339,     -1.29157,     -3.00294,50.00000,50.00000,3.711665e-09,0.91357,4
762.985,129.424,     -1.34357,     -3.00294,50.00000,50.00000,3.711665e-09,0.91357,4
764.71,129.509,     -1.39343,     -2.97632,50.00000,50.00000,3.714353e-09,0.91355,4
766.45,129.594,     -1.44835,     -2.97632,50.00000,50.00000,3.714353e-09,0.91355,4
768.187,129.679,     -1.50050,     -2.97632,50.00000,50.00000,3.712159e-09,0.91352,4
769.919,129.764,     -1.55247,     -2.97632,50.00000,50.00000,3.712159e-09,0.91352,4
771.65,129.849,     -1.60459,     -2.94971,50.00000,50.00000,3.711453e-09,0.91350,4
773.375,129.934,     -1.66080,     -2.94971,50.00000,50.00000,3.711453e-09,0.91350,4
775.113,130.019,     -1.71851,     -2.94971,50.00000,50.00000,3.709284e-09,0.91347,4
776.855,130.104,     -1.77246,     -2.94971,50.00000,50.00000,3.709284e-09,0.91347,4
778.581,130.189,     -1.82852,     -2.94971,50.00000,50.00000,3.721719e-09,0.91345,4
780.316,130.274,     -1.88575,     -2.92309,50.00000,50.00000,3.721719e-09,0.91345,4
782.051,130.359,     -1.93491,     -2.92309,50.00000,50.00000,3.713554e-09,0.91342,4
783.781,130.444,     -1.99280,     -2.92309,50.00000,50.00000,3.713554e-09,0.91342,4
785.512,130.529,     -2.04922,     -2.89667,50.00000,50.00000,3.709002e-09,0.91339,4
787.246,130.614,     -2.10482,     -2.89667,50.00000,50.00000,3.709002e-09,0.91339,4
788.976,130.699,     -2.16191,     -2.89667,50.00000,50.00000,3.713611e-09,0.91337,4
790.711,130.784,     -2.21985,     -2.87006,50.00000,50.00000,            ,0.44861,4
792.44,130.869,     -2.27796,     -2.87006,50.00000,50.00000,            ,0.44792,4
793.764,130.934,     -2.32038,     -2.87006,50.00000,50.00000,            ,0.44739,4