File: data/TGA/ps_scf3_flynn_ozawa_wall/1K/ExpDat_2025_11_13_SL_PSSCF3_005f_J3_10K_min.csv
#EXPORTTYPE:                 ,DATA ALL
#FILE:                       ,2025_11_13_SL_PSSCF3_005f_J3_10K_min.ngb-ss5
#FORMAT:                     ,NETZSCH5
#FTYPE:                      ,ASCII
#IDENTITY:                   ,005F-J3
#DECIMAL:                    ,POINT
#SEPARATOR:                  ,COMMA
#MTYPE:                      ,DSC
#INSTRUMENT:                 ,NETZSCH STA 449F5
#PROJECT:                    ,PS
#DATE/TIME:                  ,11/13/2025 2:11:34 PM (UTC-5)
#CORR. FILE:                 ,
#TEMPCAL:                    ,05-05-2025 14:38
#SENSITIVITY:                ,28-06-2023 13:53
#LABORATORY:                 ,Tran/AAG
#OPERATOR:                   ,Stan
#REMARK:                     ,
#SAMPLE:                     ,005F-J3
#SAMPLE MASS /mg:            ,4.0
#MATERIAL:                   ,
#REFERENCE:                  ,
#REFERENCE MASS /mg:         ,0
#TYPE OF CRUCIBLE:           ,Al2O3 85 ‘l, open
#SAMPLE CRUCIBLE MASS /mg:   ,0
#REFERENCE CRUCIBLE MASS /mg:,0
#DSC RANGE /‘V:              ,5000
#TG RANGE /mg:               ,35000
#TAU-R:                      ,---
#CORR. CODE:                 ,000
#EXO:                        ,-1
#RANGE:                      ,20›C....800›C/0.0....20.0K/min
#SEGMENT:                    ,S1-4/4
#SEG. 1:                     ,20›C/5.0(K/min)/100›C
#SEG. 2:                     ,100›C/00:05/100›C
#SEG. 3:                     ,100›C/10.0(K/min)/600›C
#SEG. 4:                     ,600›C/20.0(K/min)/800›C

##Temp./›C,Time/min,DSC/(mW/mg),Mass/%,Gas Flow(purge2)/(ml/min),Gas Flow(protective)/(ml/min),TIC(scan:1)/A,Sensit./(uV/mW),Segment
 35.04700, 0.00000,      4.02245,    100,50.00000,55.00000,            ,0.92441,1
 36.45600, 0.86667,      1.32972,     99.12025,50.00000,52.00000,3.590867e-09,0.92450,1
 37.33300, 1.73333,      0.52575,     88.83075,50.00000,51.00000,3.589639e-09,0.92458,1
 37.81700, 2.60000,      0.24254,     88.51400,50.00000,51.00000,3.603347e-09,0.92465,1
 38.13400, 3.46667,      0.12147,     88.44625,50.00000,51.00000,3.610372e-09,0.92470,1
 38.60400, 4.33333,      0.16147,     88.48000,50.00000,51.00000,3.612760e-09,0.92474,1
 39.70500, 5.20000,      0.37527,     88.89300,50.00000,51.00000,3.620594e-09,0.92476,1
 41.53700, 6.06667,      0.67594,     89.37675,50.00000,51.00000,3.616394e-09,0.92479,1
 44.12000, 6.93333,      0.99044,     89.95650,50.00000,51.00000,3.623030e-09,0.92481,1
 47.40000, 7.80000,      1.30269,     90.61275,50.00000,51.00000,3.622687e-09,0.92483,1
 51.32100, 8.66667,      1.60061,     91.24350,50.00000,51.00000,3.637115e-09,0.92484,1
 55.80900, 9.53333,      1.87322,     91.83725,50.00000,51.00000,3.635102e-09,0.92487,1
 60.72700,10.40000,      2.10754,     92.34075,50.00000,51.00000,3.637486e-09,0.92489,1
 65.94000,11.26667,      2.29902,     92.75375,50.00000,51.00000,3.637476e-09,0.92493,1
 71.31700,12.13333,      2.44901,     93.10150,50.00000,51.00000,3.640549e-09,0.92498,1
 76.79200,13.00000,      2.55386,     93.34200,50.00000,51.00000,3.643203e-09,0.92504,1
 82.28500,13.86667,      2.62120,     93.52875,50.00000,51.00000,3.637982e-09,0.92513,1
 87.76000,14.73333,      2.65776,     93.63900,50.00000,51.00000,3.645086e-09,0.92522,1
 93.13000,15.60000,      2.66858,     93.71550,50.00000,51.00000,3.650229e-09,0.92532,1
 97.67300,16.34917,      2.64955,     93.64175,50.00000,51.00000,3.654618e-09,0.92542,2
100.979,16.99917,      2.36124,     93.07625,50.00000,51.00000,3.654929e-09,0.92550,2
103.295,17.64917,      1.86240,     92.39450,50.00000,51.00000,3.649425e-09,0.92558,2
105.025,18.29917,      1.44236,     91.82875,50.00000,51.00000,3.648685e-09,0.92567,2
106.378,18.94917,      1.14046,     91.43575,50.00000,51.00000,3.655761e-09,0.92573,2
107.362,19.59917,      0.87600,     91.00575,50.00000,51.00000,3.656599e-09,0.92581,2
107.939,20.24917,      0.60818,     90.58725,50.00000,51.00000,3.656448e-09,0.92589,2
108.168,20.89917,      0.36016,     90.16875,50.00000,51.00000,3.656774e-09,0.92596,2
108.177,21.10917,      0.29041,     90.06400,50.00000,51.00000,3.656030e-09,0.92599,3
108.178,21.23917,      0.25658,     89.99600,50.00000,51.00000,3.656030e-09,0.92599,3
108.218,21.36917,      0.23707,     89.99600,50.00000,51.00000,3.655482e-09,0.92601,3
108.274,21.49917,      0.24787,     90.10350,50.00000,51.00000,3.660805e-09,0.92603,3
108.408,21.62917,      0.28836,     90.23925,50.00000,51.00000,3.653922e-09,0.92604,3
108.593,21.75917,      0.36104,     90.42325,50.00000,51.00000,3.653922e-09,0.92604,3
108.842,21.88917,      0.46613,     90.63250,50.00000,51.00000,3.648325e-09,0.92605,3
109.154,22.01917,      0.59845,     90.88975,50.00000,51.00000,3.649469e-09,0.92607,3
109.559,22.14917,      0.75574,     91.13300,50.00000,51.00000,3.651065e-09,0.92608,3
110.001,22.27917,      0.92368,     91.33400,50.00000,51.00000,3.651508e-09,0.92609,3
110.524,22.40917,      1.10188,     91.62525,50.00000,51.00000,3.651508e-09,0.92609,3
111.084,22.53917,      1.28140,     91.85425,50.00000,51.00000,3.652815e-09,0.92611,3
111.678,22.66917,      1.45873,     91.98150,50.00000,51.00000,3.648499e-09,0.92612,3
112.315,22.79917,      1.62638,     92.22200,50.00000,51.00000,3.649434e-09,0.92613,3
112.991,22.92917,      1.78561,     92.33525,50.00000,51.00000,3.649785e-09,0.92614,3
113.697,23.05917,      1.93142,     92.48775,50.00000,51.00000,3.649785e-09,0.92614,3
114.413,23.18917,      2.06713,     92.59525,50.00000,51.00000,3.654290e-09,0.92615,3
115.148,23.31917,      2.19106,     92.75375,50.00000,51.00000,3.652602e-09,0.92616,3
115.916,23.44917,      2.30490,     92.86975,50.00000,51.00000,3.655180e-09,0.92617,3
116.682,23.57917,      2.40965,     92.99125,50.00000,51.00000,3.655180e-09,0.92617,3
117.489,23.70917,      2.51138,     93.10725,50.00000,51.00000,3.656395e-09,0.92617,3
118.304,23.83917,      2.60860,     93.22050,50.00000,51.00000,3.653789e-09,0.92618,3
119.152,23.96917,      2.70551,     93.38725,50.00000,51.00000,3.651605e-09,0.92619,3
120.014,24.09917,      2.80272,     93.50600,50.00000,51.00000,3.647616e-09,0.92619,3
120.921,24.22917,      2.90486,     93.61925,50.00000,51.00000,3.647616e-09,0.92619,3
121.864,24.35917,      3.01005,     93.76900,50.00000,51.00000,3.647910e-09,0.92619,3
122.837,24.48917,      3.12016,     93.92175,50.00000,51.00000,3.651470e-09,0.92620,3
123.843,24.61917,      3.23482,     94.08875,50.00000,51.00000,3.648473e-09,0.92620,3
124.881,24.74917,      3.35339,     94.19625,50.00000,51.00000,3.650567e-09,0.92620,3
125.938,24.87917,      3.47357,     94.35750,50.00000,51.00000,3.650567e-09,0.92620,3
127.068,25.00917,      3.59776,     94.48175,50.00000,51.00000,3.651108e-09,0.92620,3
128.207,25.13917,      3.72253,     94.62325,50.00000,51.00000,3.647939e-09,0.92620,3
129.378,25.26917,      3.84813,     94.79875,50.00000,51.00000,3.648006e-09,0.92620,3
130.576,25.39917,      3.97164,     94.90325,50.00000,51.00000,3.648006e-09,0.92620,3
131.801,25.52917,      4.09411,     95.04175,50.00000,51.00000,3.647173e-09,0.92620,3
133.068,25.65917,      4.21243,     95.16075,50.00000,51.00000,3.650160e-09,0.92619,3
134.339,25.78917,      4.32947,     95.26825,50.00000,51.00000,3.651478e-09,0.92619,3
135.658,25.91917,      4.43861,     95.37550,50.00000,51.00000,3.652762e-09,0.92618,3
136.96,26.04917,      4.54620,     95.44925,50.00000,51.00000,3.652762e-09,0.92618,3
138.317,26.17917,      4.64864,     95.57350,50.00000,51.00000,3.645086e-09,0.92618,3
139.676,26.30917,      4.74622,     95.67550,50.00000,51.00000,3.652321e-09,0.92617,3
141.045,26.43917,      4.83959,     95.77450,50.00000,51.00000,3.652920e-09,0.92616,3
142.448,26.56917,      4.92733,     95.85350,50.00000,51.00000,3.652810e-09,0.92615,3
143.854,26.69917,      5.01230,     95.93000,50.00000,51.00000,3.652810e-09,0.92615,3
145.257,26.82917,      5.09428,     96.02900,50.00000,51.00000,3.655215e-09,0.92614,3
146.706,26.95917,      5.17066,     96.10250,50.00000,51.00000,3.648593e-09,0.92613,3
148.149,27.08917,      5.24508,     96.21000,50.00000,51.00000,3.653735e-09,0.92612,3
149.607,27.21917,      5.31486,     96.24400,50.00000,51.00000,3.653735e-09,0.92612,3
151.084,27.34917,      5.38529,     96.37675,50.00000,51.00000,3.649776e-09,0.92611,3
152.551,27.47917,      5.45037,     96.40225,50.00000,51.00000,3.655662e-09,0.92609,3
154.036,27.60917,      5.51334,     96.43900,50.00000,51.00000,3.652638e-09,0.92608,3
155.523,27.73917,      5.57140,     96.50700,50.00000,51.00000,3.650838e-09,0.92606,3
157.029,27.86917,      5.62947,     96.54100,50.00000,51.00000,3.650838e-09,0.92606,3
158.527,27.99917,      5.68110,     96.58325,50.00000,51.00000,3.649385e-09,0.92604,3
160.043,28.12917,      5.73146,     96.67950,50.00000,51.00000,3.651855e-09,0.92602,3
161.567,28.25917,      5.78009,     96.71350,50.00000,51.00000,3.656543e-09,0.92600,3
163.081,28.38917,      5.82244,     96.74725,50.00000,51.00000,3.656543e-09,0.92600,3
164.611,28.51917,      5.86480,     96.81525,50.00000,51.00000,3.656076e-09,0.92598,3
166.142,28.64917,      5.90175,     96.84925,50.00000,51.00000,3.650440e-09,0.92596,3
167.665,28.77917,      5.93603,     96.88300,50.00000,51.00000,3.651312e-09,0.92594,3
169.2,28.90917,      5.96536,     96.91700,50.00000,51.00000,3.654235e-09,0.92591,3
170.701,29.03917,      5.99404,     96.97650,50.00000,51.00000,3.654235e-09,0.92591,3
172.236,29.16917,      6.01611,     96.98500,50.00000,51.00000,3.652132e-09,0.92589,3
173.77,29.29917,      6.03873,     97.01900,50.00000,51.00000,3.654888e-09,0.92586,3
175.289,29.42917,      6.05710,     97.01900,50.00000,51.00000,3.644383e-09,0.92583,3
176.819,29.55917,      6.07540,     97.08675,50.00000,51.00000,3.644383e-09,0.92583,3
178.337,29.68917,      6.08988,     97.08675,50.00000,51.00000,3.659131e-09,0.92581,3
179.857,29.81917,      6.10166,     97.11225,50.00000,51.00000,3.650888e-09,0.92578,3
181.395,29.94917,      6.11145,     97.15475,50.00000,51.00000,3.650989e-09,0.92574,3
182.911,30.07917,      6.12080,     97.18850,50.00000,51.00000,3.650915e-09,0.92571,3
184.434,30.20917,      6.12831,     97.15475,50.00000,51.00000,3.650915e-09,0.92571,3
185.931,30.33917,      6.13340,     97.18850,50.00000,51.00000,3.653085e-09,0.92568,3
187.438,30.46917,      6.13731,     97.22250,50.00000,51.00000,3.654219e-09,0.92565,3
188.951,30.59917,      6.14111,     97.22250,50.00000,51.00000,3.647060e-09,0.92561,3
190.46,30.72917,      6.14147,     97.22250,50.00000,51.00000,3.647060e-09,0.92561,3
191.978,30.85917,      6.14085,     97.22250,50.00000,51.00000,3.650082e-09,0.92557,3
193.458,30.98917,      6.13945,     97.25650,50.00000,51.00000,3.648227e-09,0.92554,3
194.944,31.11917,      6.13465,     97.25650,50.00000,51.00000,3.646467e-09,0.92550,3
196.435,31.24917,      6.13013,     97.25650,50.00000,51.00000,3.649696e-09,0.92546,3
197.922,31.37917,      6.12586,     97.25650,50.00000,51.00000,3.649696e-09,0.92546,3
199.407,31.50917,      6.11812,     97.29050,50.00000,51.00000,3.655222e-09,0.92542,3
200.874,31.63917,      6.11251,     97.26500,50.00000,51.00000,3.655718e-09,0.92537,3
202.351,31.76917,      6.10480,     97.29900,50.00000,51.00000,3.645820e-09,0.92533,3
203.81,31.89917,      6.09396,     97.29900,50.00000,51.00000,3.645820e-09,0.92533,3
205.271,32.02917,      6.08734,     97.29900,50.00000,51.00000,3.661791e-09,0.92529,3
206.721,32.15917,      6.07782,     97.26500,50.00000,51.00000,3.657219e-09,0.92524,3
208.179,32.28917,      6.06419,     97.26500,50.00000,51.00000,3.648539e-09,0.92520,3
209.612,32.41917,      6.05397,     97.26500,50.00000,51.00000,3.663402e-09,0.92515,3
211.036,32.54917,      6.04218,     97.29900,50.00000,51.00000,3.663402e-09,0.92515,3
212.48,32.67917,      6.03140,     97.29900,50.00000,51.00000,3.660553e-09,0.92510,3
213.916,32.80917,      6.01639,     97.23375,50.00000,51.00000,3.659345e-09,0.92505,3
215.326,32.93917,      6.00789,     97.22525,50.00000,51.00000,3.659783e-09,0.92500,3
216.754,33.06917,      5.99641,     97.22525,50.00000,51.00000,3.653190e-09,0.92495,3
218.152,33.19917,      5.98145,     97.22525,50.00000,51.00000,3.653190e-09,0.92495,3
219.567,33.32917,      5.96925,     97.22525,50.00000,51.00000,3.653060e-09,0.92489,3
220.983,33.45917,      5.95706,     97.21675,50.00000,51.00000,3.648510e-09,0.92484,3
222.365,33.58917,      5.94582,     97.19150,50.00000,51.00000,3.659467e-09,0.92479,3
223.755,33.71917,      5.93263,     97.15750,50.00000,51.00000,3.651400e-09,0.92473,3
225.156,33.84917,      5.92106,     97.15750,50.00000,51.00000,3.651400e-09,0.92473,3
226.545,33.97917,      5.90854,     97.14050,50.00000,51.00000,3.662961e-09,0.92467,3
227.93,34.10917,      5.89645,     97.12350,50.00000,51.00000,3.659928e-09,0.92462,3
229.305,34.23917,      5.88431,     97.05575,50.00000,51.00000,3.656877e-09,0.92456,3
230.674,34.36917,      5.87372,     97.05575,50.00000,51.00000,3.657326e-09,0.92450,3
232.048,34.49917,      5.86226,     97.05575,50.00000,51.00000,3.657326e-09,0.92450,3
233.424,34.62917,      5.85104,     97.02175,50.00000,51.00000,3.662563e-09,0.92443,3
234.774,34.75917,      5.83675,     96.95375,50.00000,51.00000,3.658830e-09,0.92437,3
236.141,34.88917,      5.82571,     96.95375,50.00000,51.00000,3.660828e-09,0.92431,3
237.497,35.01917,      5.81371,     96.95375,50.00000,51.00000,3.660828e-09,0.92431,3
238.85,35.14917,      5.80328,     96.91700,50.00000,51.00000,3.653482e-09,0.92425,3
240.207,35.27917,      5.79061,     96.88300,50.00000,51.00000,3.656116e-09,0.92418,3
241.548,35.40917,      5.77943,     96.81525,50.00000,51.00000,3.660134e-09,0.92411,3
242.903,35.53917,      5.76879,     96.81525,50.00000,51.00000,3.657223e-09,0.92405,3
244.237,35.66917,      5.75825,     96.78975,50.00000,51.00000,3.657223e-09,0.92405,3
245.573,35.79917,      5.74659,     96.74725,50.00000,51.00000,3.656612e-09,0.92398,3
246.906,35.92917,      5.73514,     96.71350,50.00000,51.00000,3.656707e-09,0.92391,3
248.239,36.05917,      5.72460,     96.70500,50.00000,51.00000,3.658259e-09,0.92384,3
249.57,36.18917,      5.71656,     96.64550,50.00000,51.00000,3.656113e-09,0.92376,3
250.889,36.31917,      5.70732,     96.61150,50.00000,51.00000,3.656113e-09,0.92376,3
252.232,36.44917,      5.69890,     96.57775,50.00000,51.00000,3.654742e-09,0.92369,3
253.557,36.57917,      5.69361,     96.54375,50.00000,51.00000,3.654431e-09,0.92362,3
254.874,36.70917,      5.68551,     96.50975,50.00000,51.00000,3.663851e-09,0.92355,3
256.195,36.83917,      5.67998,     96.47575,50.00000,51.00000,3.663851e-09,0.92355,3
257.509,36.96917,      5.67487,     96.43050,50.00000,51.00000,3.652104e-09,0.92347,3
258.828,37.09917,      5.66727,     96.40525,50.00000,51.00000,3.661802e-09,0.92339,3
260.145,37.22917,      5.66266,     96.33725,50.00000,51.00000,3.647471e-09,0.92332,3
261.452,37.35917,      5.65986,     96.26925,50.00000,51.00000,3.647471e-09,0.92332,3
262.768,37.48917,      5.65365,     96.23550,50.00000,51.00000,3.658352e-09,0.92324,3
264.087,37.61917,      5.64792,     96.20150,50.00000,51.00000,3.653819e-09,0.92316,3
265.396,37.74917,      5.64983,     96.09400,50.00000,51.00000,3.654973e-09,0.92308,3
266.702,37.87917,      5.64521,     96.06850,50.00000,51.00000,3.655634e-09,0.92300,3
268.009,38.00917,      5.63968,     96.00075,50.00000,51.00000,3.655634e-09,0.92300,3
269.324,38.13917,      5.63443,     95.95825,50.00000,51.00000,3.653767e-09,0.92292,3
270.62,38.26917,      5.62884,     95.89025,50.00000,51.00000,3.650195e-09,0.92284,3
271.927,38.39917,      5.62214,     95.81975,50.00000,51.00000,3.656472e-09,0.92275,3
273.229,38.52917,      5.61612,     95.78575,50.00000,51.00000,3.656472e-09,0.92275,3
274.519,38.65917,      5.60956,     95.68100,50.00000,51.00000,3.656839e-09,0.92267,3
275.829,38.78917,      5.60995,     95.64725,50.00000,51.00000,3.651678e-09,0.92259,3
277.131,38.91917,      5.60489,     95.54250,50.00000,51.00000,3.653934e-09,0.92250,3
278.422,39.04917,      5.59858,     95.50850,50.00000,51.00000,3.651823e-09,0.92241,3
279.719,39.17917,      5.59325,     95.44075,50.00000,51.00000,3.651823e-09,0.92241,3
281.013,39.30917,      5.59146,     95.33600,50.00000,51.00000,3.647358e-09,0.92232,3
282.308,39.43917,      5.58494,     95.26825,50.00000,51.00000,3.659530e-09,0.92224,3
283.6,39.56917,      5.58173,     95.20025,50.00000,51.00000,3.658672e-09,0.92215,3
284.898,39.69917,      5.57928,     95.10700,50.00000,51.00000,3.651822e-09,0.92206,3
286.188,39.82917,      5.57535,     95.04750,50.00000,51.00000,3.651822e-09,0.92206,3
287.479,39.95917,      5.57239,     94.91750,50.00000,51.00000,3.643901e-09,0.92199,3
288.775,40.08917,      5.56780,     94.84950,50.00000,51.00000,3.651115e-09,0.92193,3
290.054,40.21917,      5.56932,     94.74500,50.00000,51.00000,3.655755e-09,0.92186,3
291.35,40.34917,      5.56306,     94.67700,50.00000,51.00000,3.655755e-09,0.92186,3
292.646,40.47917,      5.55967,     94.56400,50.00000,51.00000,3.655265e-09,0.92179,3
293.939,40.60917,      5.55651,     94.41975,50.00000,51.00000,3.655206e-09,0.92172,3
295.226,40.73917,      5.55693,     94.35175,50.00000,51.00000,3.653947e-09,0.92165,3
296.516,40.86917,      5.55545,     94.19900,50.00000,51.00000,3.655207e-09,0.92159,3
297.807,40.99917,      5.55664,     94.05200,50.00000,51.00000,3.655207e-09,0.92159,3
299.091,41.12917,      5.55466,     93.93325,50.00000,51.00000,3.649406e-09,0.92152,3
300.377,41.25917,      5.55512,     93.80875,50.00000,51.00000,3.655492e-09,0.92145,3
301.656,41.38917,      5.55312,     93.66450,50.00000,51.00000,3.658031e-09,0.92139,3
302.951,41.51917,      5.55634,     93.44950,50.00000,51.00000,3.650361e-09,0.92132,3
304.238,41.64917,      5.55782,     93.32225,50.00000,51.00000,3.650361e-09,0.92132,3
305.528,41.77917,      5.55885,     93.13850,50.00000,51.00000,3.658628e-09,0.92126,3
306.812,41.90917,      5.55887,     92.97725,50.00000,51.00000,3.653545e-09,0.92119,3
308.094,42.03917,      5.55987,     92.77350,50.00000,51.00000,3.655480e-09,0.92113,3
309.386,42.16917,      5.56070,     92.56425,50.00000,51.00000,3.655480e-09,0.92113,3
310.674,42.29917,      5.56741,     92.33800,50.00000,51.00000,3.650928e-09,0.92107,3
311.95,42.42917,      5.56547,     92.17950,50.00000,51.00000,3.651015e-09,0.92101,3
313.248,42.55917,      5.56490,     91.91100,50.00000,51.00000,3.647566e-09,0.92096,3
314.527,42.68917,      5.56841,     91.68450,50.00000,51.00000,3.658262e-09,0.92090,3
315.817,42.81917,      5.58065,     91.45275,50.00000,51.00000,3.658262e-09,0.92090,3
317.104,42.94917,      5.58006,     91.18125,50.00000,51.00000,3.654901e-09,0.92084,3
318.387,43.07917,      5.58094,     90.95500,50.00000,51.00000,3.652215e-09,0.92078,3
319.683,43.20917,      5.58563,     90.71725,50.00000,51.00000,3.646412e-09,0.92073,3
320.97,43.33917,      5.59177,     90.36650,50.00000,51.00000,3.651807e-09,0.92068,3
322.26,43.46917,      5.61041,     90.16875,50.00000,51.00000,3.651807e-09,0.92068,3
323.549,43.59917,      5.61440,     89.81800,50.00000,51.00000,3.657856e-09,0.92063,3
324.829,43.72917,      5.61684,     89.52950,50.00000,51.00000,3.657517e-09,0.92058,3
326.113,43.85917,      5.62283,     89.21550,50.00000,51.00000,3.646348e-09,0.92053,3
327.413,43.98917,      5.63246,     88.93825,50.00000,51.00000,3.646348e-09,0.92053,3
328.689,44.11917,      5.62916,     88.64125,50.00000,51.00000,3.656317e-09,0.92048,3
329.989,44.24917,      5.63004,     88.33025,50.00000,51.00000,3.651169e-09,0.92044,3
331.269,44.37917,      5.63104,     87.97675,50.00000,51.00000,3.651884e-09,0.92039,3
332.557,44.50917,      5.63185,     87.66550,50.00000,51.00000,3.654338e-09,0.92035,3
333.85,44.63917,      5.63776,     87.33175,50.00000,51.00000,3.654338e-09,0.92035,3
335.13,44.76917,      5.63854,     86.95275,50.00000,51.00000,3.652392e-09,0.92030,3
336.429,44.89917,      5.64325,     86.63325,50.00000,51.00000,3.650093e-09,0.92026,3
337.714,45.02917,      5.64662,     86.24575,50.00000,51.00000,3.652217e-09,0.92022,3
338.991,45.15917,      5.65274,     85.86675,50.00000,51.00000,3.652217e-09,0.92022,3
340.279,45.28917,      5.65463,     85.48775,50.00000,51.00000,3.651134e-09,0.92018,3
341.575,45.41917,      5.65302,     85.15950,50.00000,51.00000,3.654780e-09,0.92015,3
342.854,45.54917,      5.65536,     84.75525,50.00000,51.00000,3.652771e-09,0.92010,3
344.147,45.67917,      5.66191,     84.33950,50.00000,51.00000,3.649915e-09,0.92006,3
345.438,45.80917,      5.66181,     83.92075,50.00000,51.00000,3.649915e-09,0.92006,3
346.719,45.93917,      5.66420,     83.51925,50.00000,51.00000,3.648637e-09,0.92003,3
348.007,46.06917,      5.67127,     83.04125,50.00000,51.00000,3.653996e-09,0.91999,3
349.295,46.19917,      5.68404,     82.63675,50.00000,51.00000,3.644890e-09,0.91996,3
350.584,46.32917,      5.69505,     82.17575,50.00000,51.00000,3.644890e-09,0.91996,3
351.874,46.45917,      5.70351,     81.67225,50.00000,51.00000,3.655492e-09,0.91992,3
353.151,46.58917,      5.73832,     81.18850,50.00000,51.00000,3.655360e-09,0.91989,3
354.45,46.71917,      5.77469,     80.73900,50.00000,51.00000,3.652454e-09,0.91985,3
355.739,46.84917,      5.78384,     80.19575,50.00000,51.00000,3.643439e-09,0.91982,3
357.021,46.97917,      5.78777,     79.67275,50.00000,51.00000,3.643439e-09,0.91982,3
358.307,47.10917,      5.79668,     79.07875,50.00000,51.00000,3.651542e-09,0.91978,3
359.597,47.23917,      5.80800,     78.51300,50.00000,51.00000,3.654072e-09,0.91975,3
360.886,47.36917,      5.82222,     77.89075,50.00000,51.00000,3.649341e-09,0.91972,3
362.187,47.49917,      5.82794,     77.36175,50.00000,51.00000,3.650125e-09,0.91968,3
363.461,47.62917,      5.83871,     76.68025,50.00000,51.00000,3.650125e-09,0.91968,3
364.765,47.75917,      5.84712,     76.05525,50.00000,51.00000,3.645189e-09,0.91966,3
366.047,47.88917,      5.86170,     75.35650,50.00000,51.00000,3.652848e-09,0.91962,3
367.332,48.01917,      5.87133,     74.68350,50.00000,51.00000,3.650630e-09,0.91959,3
368.625,48.14917,      5.89057,     73.95375,50.00000,51.00000,3.650630e-09,0.91959,3
369.919,48.27917,      5.91596,     73.17875,50.00000,51.00000,3.646552e-09,0.91956,3
371.203,48.40917,      5.92730,     72.35850,50.00000,51.00000,3.643287e-09,0.91953,3
372.488,48.53917,      5.94665,     71.54675,50.00000,51.00000,3.644667e-09,0.91950,3
373.782,48.66917,      5.95894,     70.70675,50.00000,51.00000,3.645347e-09,0.91947,3
375.074,48.79917,      5.97206,     69.83575,50.00000,51.00000,3.645347e-09,0.91947,3
376.364,48.92917,      5.99080,     68.99275,50.00000,51.00000,3.656100e-09,0.91944,3
377.646,49.05917,      6.00499,     67.99450,50.00000,51.00000,3.647992e-09,0.91942,3
378.942,49.18917,      6.02040,     67.03275,50.00000,51.00000,3.645410e-09,0.91940,3
380.236,49.31917,      6.03584,     65.97500,50.00000,51.00000,3.645410e-09,0.91940,3
381.51,49.44917,      6.05250,     64.96800,50.00000,51.00000,3.649695e-09,0.91937,3
382.805,49.57917,      6.07100,     63.89600,50.00000,51.00000,3.643126e-09,0.91934,3
384.092,49.70917,      6.08437,     62.77325,50.00000,51.00000,3.652189e-09,0.91931,3
385.389,49.83917,      6.10163,     61.61925,50.00000,51.00000,3.639754e-09,0.91929,3
386.672,49.96917,      6.12018,     60.47375,50.00000,51.00000,3.639754e-09,0.91929,3
387.965,50.09917,      6.13995,     59.22925,50.00000,51.00000,3.653022e-09,0.91926,3
389.262,50.22917,      6.15357,     57.92550,50.00000,51.00000,3.653977e-09,0.91924,3
390.552,50.35917,      6.16635,     56.63300,50.00000,51.00000,3.646591e-09,0.91922,3
391.842,50.48917,      6.17889,     55.29225,50.00000,51.00000,3.646591e-09,0.91922,3
393.135,50.61917,      6.19448,     53.98000,50.00000,51.00000,3.652721e-09,0.91920,3
394.422,50.74917,      6.20214,     52.56300,50.00000,51.00000,3.655218e-09,0.91917,3
395.718,50.87917,      6.20798,     51.18825,50.00000,51.00000,3.660125e-09,0.91916,3
396.995,51.00917,      6.21147,     49.70900,50.00000,51.00000,3.659840e-09,0.91913,3
398.291,51.13917,      6.21648,     48.24975,50.00000,51.00000,3.659840e-09,0.91913,3
399.583,51.26917,      6.21487,     46.75625,50.00000,51.00000,3.650787e-09,0.91912,3
400.875,51.39917,      6.21323,     45.23175,50.00000,51.00000,3.650495e-09,0.91909,3
402.163,51.52917,      6.20767,     43.68475,50.00000,51.00000,3.650241e-09,0.91907,3
403.458,51.65917,      6.20186,     42.21125,50.00000,51.00000,3.647263e-09,0.91906,3
404.746,51.78917,      6.19070,     40.61325,50.00000,51.00000,3.647263e-09,0.91906,3
406.053,51.91917,      6.17602,     39.08025,50.00000,51.00000,3.651085e-09,0.91904,3
407.336,52.04917,      6.16525,     37.51050,50.00000,51.00000,3.649734e-09,0.91903,3
408.633,52.17917,      6.14953,     35.99450,50.00000,51.00000,3.647652e-09,0.91901,3
409.925,52.30917,      6.12533,     34.40500,50.00000,51.00000,3.658992e-09,0.91900,3
411.217,52.43917,      6.10046,     32.87750,50.00000,51.00000,3.658992e-09,0.91900,3
412.507,52.56917,      6.08108,     31.28250,50.00000,51.00000,3.655297e-09,0.91898,3
413.799,52.69917,      6.05377,     29.80325,50.00000,51.00000,3.646604e-09,0.91897,3
415.095,52.82917,      6.01852,     28.21925,50.00000,51.00000,3.652414e-09,0.91896,3
416.379,52.95917,      5.98444,     26.66100,50.00000,51.00000,3.644187e-09,0.91894,3
417.678,53.08917,      5.95062,     25.19300,50.00000,51.00000,3.644187e-09,0.91894,3
418.96,53.21917,      5.91173,     23.67125,50.00000,51.00000,3.646204e-09,0.91893,3
420.267,53.34917,      5.87260,     22.18650,50.00000,51.00000,3.652295e-09,0.91892,3
421.555,53.47917,      5.83317,     20.67050,50.00000,51.00000,3.651104e-09,0.91891,3
422.843,53.60917,      5.79387,     19.29025,50.00000,51.00000,3.651104e-09,0.91891,3
424.144,53.73917,      5.74541,     17.90150,50.00000,51.00000,3.650435e-09,0.91890,3
425.426,53.86917,      5.70003,     16.54950,50.00000,51.00000,3.653543e-09,0.91889,3
426.729,53.99917,      5.64636,     15.15525,50.00000,51.00000,3.655090e-09,0.91889,3
428.023,54.12917,      5.59299,     13.90500,50.00000,51.00000,3.653184e-09,0.91888,3
429.308,54.25917,      5.53906,     12.66050,50.00000,51.00000,3.653184e-09,0.91888,3
430.615,54.38917,      5.47907,     11.41900,50.00000,51.00000,3.654654e-09,0.91887,3
431.907,54.51917,      5.41384,     10.26775,50.00000,51.00000,3.651005e-09,0.91886,3
433.203,54.64917,      5.34495,      9.14775,50.00000,51.00000,3.644029e-09,0.91885,3
434.495,54.77917,      5.26048,      8.10700,50.00000,51.00000,3.651887e-09,0.91885,3
435.787,54.90917,      5.16558,      7.08025,50.00000,51.00000,3.651887e-09,0.91885,3
437.08,55.03917,      5.06368,      6.11575,50.00000,51.00000,3.643272e-09,0.91885,3
438.373,55.16917,      4.94141,      5.23050,50.00000,51.00000,3.654178e-09,0.91884,3
439.667,55.29917,      4.81811,      4.41325,50.00000,51.00000,3.653873e-09,0.91884,3
440.952,55.42917,      4.68529,      3.61825,50.00000,51.00000,3.645040e-09,0.91883,3
442.26,55.55917,      4.53145,      2.88025,50.00000,51.00000,3.645040e-09,0.91883,3
443.549,55.68917,      4.37167,      2.18725,50.00000,51.00000,3.656784e-09,0.91883,3
444.847,55.81917,      4.27135,      1.55075,50.00000,51.00000,3.651476e-09,0.91883,3
446.135,55.94917,      4.20722,      0.98525,50.00000,51.00000,3.648423e-09,0.91882,3
447.435,56.07917,      4.13911,      0.50150,50.00000,51.00000,3.648423e-09,0.91882,3
448.734,56.20917,      4.07397, 3.750000e-03,50.00000,51.00000,3.646647e-09,0.91882,3
450.022,56.33917,      4.01413,     -0.31875,50.00000,51.00000,3.650957e-09,0.91882,3
451.316,56.46917,      3.95970,     -0.74575,50.00000,51.00000,3.654681e-09,0.91882,3
452.605,56.59917,      3.90298,     -1.11625,50.00000,51.00000,3.641857e-09,0.91882,3
453.905,56.72917,      3.85261,     -1.41900,50.00000,51.00000,3.641857e-09,0.91882,3
455.207,56.85917,      3.79791,     -1.58850,50.00000,51.00000,3.645900e-09,0.91882,3
456.499,56.98917,      3.74355,     -1.78650,50.00000,51.00000,3.648631e-09,0.91882,3
457.8,57.11917,      3.69498,     -1.94225,50.00000,51.00000,3.653419e-09,0.91882,3
459.091,57.24917,      3.64618,     -2.05250,50.00000,51.00000,3.647074e-09,0.91882,3
460.385,57.37917,      3.60109,     -2.11175,50.00000,51.00000,3.647074e-09,0.91882,3
461.682,57.50917,      3.56183,     -2.16275,50.00000,51.00000,3.653396e-09,0.91882,3
462.983,57.63917,      3.52274,     -2.19675,50.00000,51.00000,3.643339e-09,0.91882,3
464.273,57.76917,      3.48914,     -2.23075,50.00000,51.00000,3.647685e-09,0.91882,3
465.574,57.89917,      3.45577,     -2.28450,50.00000,51.00000,3.647685e-09,0.91882,3
466.864,58.02917,      3.42222,     -2.26750,50.00000,51.00000,3.649113e-09,0.91882,3
468.157,58.15917,      3.39398,     -2.27600,50.00000,51.00000,3.642897e-09,0.91882,3
469.46,58.28917,      3.36537,     -2.30125,50.00000,51.00000,3.649366e-09,0.91882,3
470.747,58.41917,      3.33870,     -2.26750,50.00000,51.00000,3.640056e-09,0.91882,3
472.036,58.54917,      3.31132,     -2.30125,50.00000,51.00000,3.640056e-09,0.91882,3
473.341,58.67917,      3.28209,     -2.33525,50.00000,51.00000,3.646354e-09,0.91882,3
474.637,58.80917,      3.25482,     -2.30975,50.00000,51.00000,3.655875e-09,0.91882,3
475.916,58.93917,      3.22830,     -2.34375,50.00000,51.00000,3.646029e-09,0.91882,3
477.222,59.06917,      3.20086,     -2.34375,50.00000,51.00000,3.646029e-09,0.91882,3
478.513,59.19917,      3.17540,     -2.34375,50.00000,51.00000,3.647481e-09,0.91882,3
479.8,59.32917,      3.15165,     -2.34375,50.00000,51.00000,3.647183e-09,0.91882,3
481.105,59.45917,      3.12481,     -2.34375,50.00000,51.00000,3.646619e-09,0.91882,3
482.391,59.58917,      3.09872,     -2.34375,50.00000,51.00000,3.647875e-09,0.91882,3
483.695,59.71917,      3.07690,     -2.31825,50.00000,51.00000,3.647875e-09,0.91882,3
484.982,59.84917,      3.05308,     -2.30975,50.00000,51.00000,3.640362e-09,0.91882,3
486.283,59.97917,      3.03045,     -2.30975,50.00000,51.00000,3.646602e-09,0.91882,3
487.577,60.10917,      3.00337,     -2.31825,50.00000,51.00000,3.650700e-09,0.91882,3
488.86,60.23917,      2.97831,     -2.32675,50.00000,51.00000,3.650700e-09,0.91882,3
490.162,60.36917,      2.95291,     -2.29300,50.00000,51.00000,3.651835e-09,0.91882,3
491.461,60.49917,      2.92772,     -2.29300,50.00000,51.00000,3.638119e-09,0.91882,3
492.756,60.62917,      2.90209,     -2.29300,50.00000,51.00000,3.646321e-09,0.91882,3
494.049,60.75917,      2.87636,     -2.29300,50.00000,51.00000,3.641070e-09,0.91882,3
495.347,60.88917,      2.85055,     -2.32675,50.00000,51.00000,3.641070e-09,0.91882,3
496.638,61.01917,      2.82179,     -2.29300,50.00000,51.00000,3.648700e-09,0.91882,3
497.945,61.14917,      2.79424,     -2.29300,50.00000,51.00000,3.647161e-09,0.91882,3
499.235,61.27917,      2.76337,     -2.29300,50.00000,51.00000,3.646901e-09,0.91881,3
500.522,61.40917,      2.74025,     -2.29300,50.00000,51.00000,3.648085e-09,0.91882,3
501.812,61.53917,      2.71200,     -2.25900,50.00000,51.00000,3.648085e-09,0.91882,3
503.124,61.66917,      2.68688,     -2.27600,50.00000,51.00000,3.644285e-09,0.91882,3
504.414,61.79917,      2.66253,     -2.25900,50.00000,51.00000,3.644260e-09,0.91881,3
505.702,61.92917,      2.63713,     -2.27600,50.00000,51.00000,3.649383e-09,0.91882,3
507.001,62.05917,      2.60786,     -2.27600,50.00000,51.00000,3.649383e-09,0.91882,3
508.3,62.18917,      2.58198,     -2.24200,50.00000,51.00000,3.650137e-09,0.91881,3
509.61,62.31917,      2.55667,     -2.24200,50.00000,51.00000,3.646313e-09,0.91881,3
510.901,62.44917,      2.52769,     -2.20800,50.00000,51.00000,3.643436e-09,0.91881,3
512.199,62.57917,      2.50119,     -2.24200,50.00000,51.00000,3.646941e-09,0.91881,3
513.493,62.70917,      2.47169,     -2.20800,50.00000,51.00000,3.646941e-09,0.91881,3
514.791,62.83917,      2.44401,     -2.20800,50.00000,51.00000,3.647306e-09,0.91881,3
516.091,62.96917,      2.41399,     -2.20800,50.00000,51.00000,3.653753e-09,0.91881,3
517.382,63.09917,      2.38673,     -2.20800,50.00000,51.00000,3.650104e-09,0.91881,3
518.681,63.22917,      2.35939,     -2.20800,50.00000,51.00000,3.650736e-09,0.91881,3
519.984,63.35917,      2.32841,     -2.20800,50.00000,51.00000,3.650736e-09,0.91881,3
521.278,63.48917,      2.29987,     -2.17400,50.00000,51.00000,3.651274e-09,0.91880,3
522.581,63.61917,      2.27222,     -2.20800,50.00000,51.00000,3.643137e-09,0.91880,3
523.884,63.74917,      2.24642,     -2.17400,50.00000,51.00000,3.649813e-09,0.91880,3
525.179,63.87917,      2.21953,     -2.13450,50.00000,51.00000,3.649813e-09,0.91880,3
526.479,64.00917,      2.19255,     -2.16000,50.00000,51.00000,3.646966e-09,0.91880,3
527.784,64.13917,      2.16222,     -2.15150,50.00000,51.00000,3.653722e-09,0.91879,3
529.081,64.26917,      2.13242,     -2.15150,50.00000,51.00000,3.647340e-09,0.91879,3
530.381,64.39917,      2.10186,     -2.15150,50.00000,51.00000,3.646507e-09,0.91879,3
531.682,64.52917,      2.06956,     -2.15150,50.00000,51.00000,3.646507e-09,0.91879,3
532.982,64.65917,      2.04108,     -2.13450,50.00000,51.00000,3.644034e-09,0.91879,3
534.271,64.78917,      2.00656,     -2.10050,50.00000,51.00000,3.648152e-09,0.91879,3
535.571,64.91917,      1.97851,     -2.10050,50.00000,51.00000,3.646132e-09,0.91879,3
536.878,65.04917,      1.94874,     -2.13450,50.00000,51.00000,3.650483e-09,0.91878,3
538.179,65.17917,      1.91918,     -2.13450,50.00000,51.00000,3.650483e-09,0.91878,3
539.476,65.30917,      1.88851,     -2.10050,50.00000,51.00000,3.646422e-09,0.91878,3
540.779,65.43917,      1.85808,     -2.10050,50.00000,51.00000,3.645048e-09,0.91878,3
542.076,65.56917,      1.82985,     -2.09200,50.00000,51.00000,3.651021e-09,0.91878,3
543.375,65.69917,      1.80153,     -2.07500,50.00000,51.00000,3.651021e-09,0.91878,3
544.681,65.82917,      1.76846,     -2.07500,50.00000,51.00000,3.651802e-09,0.91878,3
545.978,65.95917,      1.73959,     -2.07500,50.00000,51.00000,3.643751e-09,0.91877,3
547.282,66.08917,      1.70963,     -2.06650,50.00000,51.00000,3.652377e-09,0.91877,3
548.585,66.21917,      1.67523,     -2.04125,50.00000,51.00000,3.647902e-09,0.91876,3
549.884,66.34917,      1.64471,     -2.07500,50.00000,51.00000,3.647902e-09,0.91876,3
551.186,66.47917,      1.61309,     -2.04125,50.00000,51.00000,3.649604e-09,0.91876,3
552.491,66.60917,      1.57969,     -2.04125,50.00000,51.00000,3.648919e-09,0.91876,3
553.792,66.73917,      1.55021,     -2.00725,50.00000,51.00000,3.648421e-09,0.91875,3
555.091,66.86917,      1.51759,     -2.04125,50.00000,51.00000,3.648421e-09,0.91875,3
556.397,66.99917,      1.48723,     -2.00725,50.00000,51.00000,3.645108e-09,0.91875,3
557.692,67.12917,      1.45506,     -2.00725,50.00000,51.00000,3.642714e-09,0.91875,3
558.999,67.25917,      1.42314,     -2.00725,50.00000,51.00000,3.642681e-09,0.91875,3
560.308,67.38917,      1.39146,     -1.98175,50.00000,51.00000,3.651642e-09,0.91874,3
561.608,67.51917,      1.35830,     -2.01575,50.00000,51.00000,3.651642e-09,0.91874,3
562.913,67.64917,      1.32436,     -2.01575,50.00000,51.00000,3.654117e-09,0.91874,3
564.223,67.77917,      1.29406,     -1.99875,50.00000,51.00000,3.641205e-09,0.91873,3
565.519,67.90917,      1.26057,     -1.99875,50.00000,51.00000,3.646685e-09,0.91873,3
566.826,68.03917,      1.22153,     -1.96475,50.00000,51.00000,3.641477e-09,0.91872,3
568.128,68.16917,      1.18987,     -1.99875,50.00000,51.00000,3.641477e-09,0.91872,3
569.426,68.29917,      1.15400,     -1.99875,50.00000,51.00000,3.642495e-09,0.91872,3
570.729,68.42917,      1.11973,     -1.96475,50.00000,51.00000,3.641937e-09,0.91872,3
572.026,68.55917,      1.08844,     -1.96475,50.00000,51.00000,3.647954e-09,0.91872,3
573.328,68.68917,      1.05464,     -1.96475,50.00000,51.00000,3.643334e-09,0.91870,3
574.639,68.81917,      1.02454,     -1.96475,50.00000,51.00000,3.643334e-09,0.91870,3
575.942,68.94917,      0.99330,     -1.96475,50.00000,51.00000,3.648700e-09,0.91870,3
577.249,69.07917,      0.95782,     -1.96475,50.00000,51.00000,3.651263e-09,0.91869,3
578.546,69.20917,      0.92705,     -1.99875,50.00000,51.00000,3.644499e-09,0.91869,3
579.859,69.33917,      0.89171,     -1.96475,50.00000,51.00000,3.644499e-09,0.91869,3
581.157,69.46917,      0.85797,     -1.96475,50.00000,51.00000,3.642843e-09,0.91869,3
582.457,69.59917,      0.82482,     -1.96475,50.00000,51.00000,3.644869e-09,0.91868,3
583.764,69.72917,      0.78880,     -1.93075,50.00000,51.00000,3.646381e-09,0.91867,3
585.074,69.85917,      0.75650,     -1.96475,50.00000,51.00000,3.650205e-09,0.91867,3
586.37,69.98917,      0.72095,     -1.96475,50.00000,51.00000,3.650205e-09,0.91867,3
587.678,70.11917,      0.68634,     -1.96475,50.00000,51.00000,3.643662e-09,0.91866,3
588.976,70.24917,      0.65338,     -1.96475,50.00000,51.00000,3.648986e-09,0.91866,3
590.283,70.37917,      0.61927,     -1.96475,50.00000,51.00000,3.647381e-09,0.91865,3
591.589,70.50917,      0.58892,     -1.96475,50.00000,51.00000,3.650161e-09,0.91865,3
592.891,70.63917,      0.55355,     -1.94775,50.00000,51.00000,3.650161e-09,0.91865,3
594.202,70.76917,      0.52336,     -1.93075,50.00000,51.00000,3.643232e-09,0.91864,3
595.506,70.89917,      0.48920,     -1.93075,50.00000,51.00000,3.642131e-09,0.91864,3
596.663,71.01417,      0.45804,     -1.90550,50.00000,51.00000,3.645037e-09,0.91863,4
597.323,71.07917,      0.43894,     -1.90550,50.00000,51.00000,3.645037e-09,0.91863,4
598.018,71.14417,      0.44564,     -1.93925,50.00000,51.00000,3.645037e-09,0.91863,4
598.763,71.20917,      0.53768,     -1.90550,50.00000,51.00000,3.641846e-09,0.91862,4
599.609,71.27417,      0.73305,     -1.87150,50.00000,51.00000,3.641846e-09,0.91862,4
600.542,71.33917,      1.04058,     -1.87150,50.00000,51.00000,3.643899e-09,0.91861,4
601.566,71.40417,      1.43800,     -1.83750,50.00000,51.00000,3.643899e-09,0.91861,4
602.689,71.46917,      1.91649,     -1.77800,50.00000,51.00000,3.643899e-09,0.91861,4
603.887,71.53417,      2.43514,     -1.73575,50.00000,51.00000,3.643661e-09,0.91861,4
605.154,71.59917,      2.98031,     -1.70175,50.00000,51.00000,3.643661e-09,0.91861,4
606.47,71.66417,      3.51252,     -1.66775,50.00000,51.00000,3.643661e-09,0.91861,4
607.833,71.72917,      4.01247,     -1.66775,50.00000,51.00000,3.642811e-09,0.91860,4
609.219,71.79417,      4.45956,     -1.63400,50.00000,51.00000,3.642811e-09,0.91860,4
610.618,71.85917,      4.83704,     -1.60000,50.00000,51.00000,3.650509e-09,0.91860,4
612.02,71.92417,      5.13916,     -1.56600,50.00000,51.00000,3.650509e-09,0.91860,4
613.398,71.98917,      5.35965,     -1.56600,50.00000,51.00000,3.650509e-09,0.91860,4
614.763,72.05417,      5.50074,     -1.56600,50.00000,51.00000,3.647229e-09,0.91859,4
616.108,72.11917,      5.56381,     -1.53200,50.00000,51.00000,3.647229e-09,0.91859,4
617.431,72.18417,      5.56586,     -1.53200,50.00000,51.00000,3.639789e-09,0.91858,4
618.713,72.24917,      5.50761,     -1.53200,50.00000,51.00000,3.639789e-09,0.91858,4
619.979,72.31417,      5.40670,     -1.50650,50.00000,51.00000,3.639789e-09,0.91858,4
621.218,72.37917,      5.27380,     -1.53200,50.00000,51.00000,3.633011e-09,0.91857,4
622.434,72.44417,      5.11898,     -1.53200,50.00000,51.00000,3.633011e-09,0.91857,4
623.633,72.50917,      4.95601,     -1.53200,50.00000,51.00000,3.649528e-09,0.91856,4
624.826,72.57417,      4.79477,     -1.53200,50.00000,51.00000,3.649528e-09,0.91856,4
625.997,72.63917,      4.63992,     -1.55750,50.00000,51.00000,3.649528e-09,0.91856,4
627.178,72.70417,      4.50442,     -1.51800,50.00000,51.00000,3.642095e-09,0.91856,4
628.361,72.76917,      4.38429,     -1.55175,50.00000,51.00000,3.642095e-09,0.91856,4
629.538,72.83417,      4.28504,     -1.55175,50.00000,51.00000,3.647438e-09,0.91855,4
630.715,72.89917,      4.20860,     -1.51800,50.00000,51.00000,3.647438e-09,0.91855,4
631.913,72.96417,      4.15624,     -1.51800,50.00000,51.00000,3.647438e-09,0.91855,4
633.121,73.02917,      4.12141,     -1.48400,50.00000,51.00000,3.645753e-09,0.91854,4
634.342,73.09417,      4.10674,     -1.48400,50.00000,51.00000,3.645753e-09,0.91854,4
635.565,73.15917,      4.10565,     -1.48400,50.00000,51.00000,3.645753e-09,0.91854,4
636.807,73.22417,      4.11567,     -1.48400,50.00000,51.00000,3.644752e-09,0.91853,4
638.058,73.28917,      4.13718,     -1.45000,50.00000,51.00000,3.644752e-09,0.91853,4
639.327,73.35417,      4.16176,     -1.45000,50.00000,51.00000,3.640536e-09,0.91853,4
640.584,73.41917,      4.18670,     -1.45000,50.00000,51.00000,3.640536e-09,0.91853,4
641.867,73.48417,      4.21142,     -1.45000,50.00000,51.00000,3.640536e-09,0.91853,4
643.15,73.54917,      4.23471,     -1.45000,50.00000,51.00000,3.634770e-09,0.91852,4
644.435,73.61417,      4.24838,     -1.45000,50.00000,51.00000,3.634770e-09,0.91852,4
645.733,73.67917,      4.26027,     -1.41600,50.00000,51.00000,3.639828e-09,0.91851,4
647.022,73.74417,      4.26432,     -1.41600,50.00000,51.00000,3.639828e-09,0.91851,4
648.318,73.80917,      4.26055,     -1.41600,50.00000,51.00000,3.639828e-09,0.91851,4
649.617,73.87417,      4.24780,     -1.41600,50.00000,51.00000,3.638451e-09,0.91850,4
650.907,73.93917,      4.22973,     -1.37925,50.00000,51.00000,3.638451e-09,0.91850,4
652.205,74.00417,      4.20227,     -1.37925,50.00000,51.00000,3.643294e-09,0.91849,4
653.506,74.06917,      4.17210,     -1.37925,50.00000,51.00000,3.643294e-09,0.91849,4
654.804,74.13417,      4.13995,     -1.39625,50.00000,51.00000,3.643294e-09,0.91849,4
656.105,74.19917,      4.10208,     -1.41325,50.00000,51.00000,3.644863e-09,0.91848,4
657.398,74.26417,      4.05991,     -1.37925,50.00000,51.00000,3.644863e-09,0.91848,4
658.697,74.32917,      4.01765,     -1.37925,50.00000,51.00000,3.642474e-09,0.91847,4
660.004,74.39417,      3.97152,     -1.34550,50.00000,51.00000,3.642474e-09,0.91847,4
661.299,74.45917,      3.92784,     -1.34550,50.00000,51.00000,3.642474e-09,0.91847,4
662.594,74.52417,      3.88518,     -1.32850,50.00000,51.00000,3.642755e-09,0.91846,4
663.898,74.58917,      3.83863,     -1.32850,50.00000,51.00000,3.642755e-09,0.91846,4
665.198,74.65417,      3.79535,     -1.32850,50.00000,51.00000,3.642755e-09,0.91846,4
666.506,74.71917,      3.74780,     -1.32850,50.00000,51.00000,3.645788e-09,0.91846,4
667.81,74.78417,      3.70199,     -1.32850,50.00000,51.00000,3.645788e-09,0.91846,4
669.121,74.84917,      3.65608,     -1.32850,50.00000,51.00000,3.639367e-09,0.91844,4
670.433,74.91417,      3.61652,     -1.32850,50.00000,51.00000,3.639367e-09,0.91844,4
671.738,74.97917,      3.57300,     -1.32000,50.00000,51.00000,3.639367e-09,0.91844,4
673.054,75.04417,      3.52557,     -1.31150,50.00000,51.00000,3.642439e-09,0.91844,4
674.36,75.10917,      3.48065,     -1.29450,50.00000,51.00000,3.642439e-09,0.91844,4
675.682,75.17417,      3.43413,     -1.27750,50.00000,51.00000,3.638779e-09,0.91843,4
676.991,75.23917,      3.38973,     -1.27750,50.00000,51.00000,3.638779e-09,0.91843,4
678.315,75.30417,      3.33988,     -1.27750,50.00000,51.00000,3.638779e-09,0.91843,4
679.626,75.36917,      3.29369,     -1.31150,50.00000,51.00000,3.642544e-09,0.91841,4
680.944,75.43417,      3.23970,     -1.29450,50.00000,51.00000,3.642544e-09,0.91841,4
682.269,75.49917,      3.18789,     -1.29450,50.00000,51.00000,3.647031e-09,0.91841,4
683.59,75.56417,      3.13709,     -1.29450,50.00000,51.00000,3.647031e-09,0.91841,4
684.896,75.62917,      3.07876,     -1.28600,50.00000,51.00000,3.647031e-09,0.91841,4
686.241,75.69417,      3.02232,     -1.27750,50.00000,51.00000,3.642680e-09,0.91839,4
687.541,75.75917,      2.96482,     -1.24350,50.00000,51.00000,3.642680e-09,0.91839,4
688.864,75.82417,      2.90142,     -1.24350,50.00000,51.00000,3.646357e-09,0.91838,4
690.194,75.88917,      2.84097,     -1.24350,50.00000,51.00000,3.646357e-09,0.91838,4
691.516,75.95417,      2.78034,     -1.24350,50.00000,51.00000,3.646357e-09,0.91838,4
692.833,76.01917,      2.72071,     -1.20400,50.00000,51.00000,3.646336e-09,0.91837,4
694.149,76.08417,      2.65740,     -1.19550,50.00000,51.00000,3.646336e-09,0.91837,4
695.475,76.14917,      2.59825,     -1.19550,50.00000,51.00000,3.646336e-09,0.91837,4
696.795,76.21417,      2.53307,     -1.21250,50.00000,51.00000,3.637479e-09,0.91837,4
698.122,76.27917,      2.46813,     -1.21250,50.00000,51.00000,3.637479e-09,0.91837,4
699.449,76.34417,      2.40615,     -1.21250,50.00000,51.00000,3.638629e-09,0.91836,4
700.761,76.40917,      2.34044,     -1.18700,50.00000,51.00000,3.638629e-09,0.91836,4
702.089,76.47417,      2.27735,     -1.17850,50.00000,51.00000,3.638629e-09,0.91836,4
703.412,76.53917,      2.20820,     -1.17850,50.00000,51.00000,3.640206e-09,0.91834,4
704.731,76.60417,      2.14161,     -1.17850,50.00000,51.00000,3.640206e-09,0.91834,4
706.063,76.66917,      2.07291,     -1.17850,50.00000,51.00000,3.641385e-09,0.91833,4
707.397,76.73417,      2.00679,     -1.17850,50.00000,51.00000,3.641385e-09,0.91833,4
708.713,76.79917,      1.93456,     -1.17850,50.00000,51.00000,3.641385e-09,0.91833,4
710.053,76.86417,      1.86415,     -1.14450,50.00000,51.00000,3.634856e-09,0.91832,4
711.367,76.92917,      1.79234,     -1.14450,50.00000,51.00000,3.634856e-09,0.91832,4
712.696,76.99417,      1.72315,     -1.14450,50.00000,51.00000,3.643956e-09,0.91831,4
714.016,77.05917,      1.64782,     -1.14450,50.00000,51.00000,3.643956e-09,0.91831,4
715.345,77.12417,      1.57589,     -1.14450,50.00000,51.00000,3.643956e-09,0.91831,4
716.663,77.18917,      1.50258,     -1.14450,50.00000,51.00000,3.640900e-09,0.91830,4
717.986,77.25417,      1.42749,     -1.11075,50.00000,51.00000,3.640900e-09,0.91830,4
719.308,77.31917,      1.34983,     -1.11075,50.00000,51.00000,3.644011e-09,0.91829,4
720.632,77.38417,      1.27677,     -1.11075,50.00000,51.00000,3.644011e-09,0.91829,4
721.956,77.44917,      1.19833,     -1.11075,50.00000,51.00000,3.644011e-09,0.91829,4
723.289,77.51417,      1.12732,     -1.07675,50.00000,51.00000,3.638251e-09,0.91828,4
724.611,77.57917,      1.04811,     -1.07675,50.00000,51.00000,3.638251e-09,0.91828,4
725.93,77.64417,      0.97391,     -1.07675,50.00000,51.00000,3.640561e-09,0.91827,4
727.254,77.70917,      0.89995,     -1.07675,50.00000,51.00000,3.640561e-09,0.91827,4
728.588,77.77417,      0.81897,     -1.07675,50.00000,51.00000,3.640561e-09,0.91827,4
729.912,77.83917,      0.74303,     -1.07675,50.00000,51.00000,3.632307e-09,0.91826,4
731.233,77.90417,      0.66690,     -1.04275,50.00000,51.00000,3.632307e-09,0.91826,4
732.555,77.96917,      0.59261,     -1.04275,50.00000,51.00000,3.632307e-09,0.91826,4
733.884,78.03417,      0.50965,     -1.04275,50.00000,51.00000,3.640356e-09,0.91824,4
735.208,78.09917,      0.42650,     -1.04275,50.00000,51.00000,3.640356e-09,0.91824,4
736.538,78.16417,      0.34476,     -1.04275,50.00000,51.00000,3.639561e-09,0.91823,4
737.861,78.22917,      0.26730,     -1.04275,50.00000,51.00000,3.639561e-09,0.91823,4
739.186,78.29417,      0.18436,     -1.00875,50.00000,51.00000,3.639561e-09,0.91823,4
740.503,78.35917,      0.10205,     -1.00875,50.00000,51.00000,3.639684e-09,0.91822,4
741.825,78.42417, 1.709608e-02,     -1.00875,50.00000,51.00000,3.639684e-09,0.91822,4
743.143,78.48917,-6.275947e-02,     -1.00875,50.00000,51.00000,3.632093e-09,0.91821,4
744.48,78.55417,     -0.15097,     -1.00875,50.00000,51.00000,3.632093e-09,0.91821,4
745.802,78.61917,     -0.23203,     -1.00875,50.00000,51.00000,3.632093e-09,0.91821,4
747.12,78.68417,     -0.31696,     -1.00875,50.00000,51.00000,3.650700e-09,0.91820,4
748.434,78.74917,     -0.40127,     -0.97475,50.00000,51.00000,3.650700e-09,0.91820,4
749.76,78.81417,     -0.48045,     -1.00875,50.00000,51.00000,3.638281e-09,0.91818,4
751.085,78.87917,     -0.56516,     -0.99175,50.00000,51.00000,3.638281e-09,0.91818,4
752.402,78.94417,     -0.65005,     -0.97475,50.00000,51.00000,3.638281e-09,0.91818,4
753.73,79.00917,     -0.73146,     -0.97475,50.00000,51.00000,3.643668e-09,0.91817,4
755.041,79.07417,     -0.81674,     -0.97475,50.00000,51.00000,3.643668e-09,0.91817,4
756.369,79.13917,     -0.90018,     -0.94100,50.00000,51.00000,3.633112e-09,0.91816,4
757.693,79.20417,     -0.98216,     -0.94100,50.00000,51.00000,3.633112e-09,0.91816,4
759.022,79.26917,     -1.06392,     -0.94100,50.00000,51.00000,3.633112e-09,0.91816,4
760.347,79.33417,     -1.15166,     -0.94100,50.00000,51.00000,3.640073e-09,0.91815,4
761.663,79.39917,     -1.23214,     -0.94100,50.00000,51.00000,3.640073e-09,0.91815,4
762.977,79.46417,     -1.31530,     -0.92400,50.00000,51.00000,3.635554e-09,0.91814,4
764.298,79.52917,     -1.39782,     -0.94100,50.00000,51.00000,3.635554e-09,0.91814,4
765.618,79.59417,     -1.47679,     -0.90700,50.00000,51.00000,3.635554e-09,0.91814,4
766.935,79.65917,     -1.56177,     -0.90700,50.00000,51.00000,3.641955e-09,0.91812,4
768.253,79.72417,     -1.64153,     -0.90700,50.00000,51.00000,3.641955e-09,0.91812,4
769.576,79.78917,     -1.72649,     -0.90700,50.00000,51.00000,3.641955e-09,0.91812,4
770.903,79.85417,     -1.80372,     -0.90700,50.00000,51.00000,3.645778e-09,0.91811,4
772.224,79.91917,     -1.89325,     -0.93250,50.00000,51.00000,3.645778e-09,0.91811,4
773.548,79.98417,     -1.97420,     -0.93250,50.00000,51.00000,3.637625e-09,0.91810,4
774.855,80.04917,     -2.05782,     -0.89575,50.00000,51.00000,3.637625e-09,0.91810,4
776.172,80.11417,     -2.13745,     -0.89575,50.00000,51.00000,3.637625e-09,0.91810,4
777.492,80.17917,     -2.21980,     -0.86175,50.00000,51.00000,3.641343e-09,0.91809,4
778.812,80.24417,     -2.30150,     -0.86175,50.00000,51.00000,3.641343e-09,0.91809,4
780.123,80.30917,     -2.37957,     -0.82775,50.00000,51.00000,3.633439e-09,0.91807,4
781.443,80.37417,     -2.45743,     -0.82775,50.00000,51.00000,3.633439e-09,0.91807,4
782.765,80.43917,     -2.53759,     -0.82775,50.00000,51.00000,3.633439e-09,0.91807,4
784.08,80.50417,     -2.62594,     -0.82775,50.00000,51.00000,3.633541e-09,0.91806,4
785.39,80.56917,     -2.70772,     -0.82775,50.00000,51.00000,3.633541e-09,0.91806,4
786.715,80.63417,     -2.77659,     -0.82775,50.00000,51.00000,3.634689e-09,0.91804,4
788.037,80.69917,     -2.85029,     -0.79375,50.00000,51.00000,3.634689e-09,0.91804,4
789.355,80.76417,     -2.91820,     -0.79375,50.00000,51.00000,            ,0.44916,4
790.683,80.82917,     -3.00415,     -0.76000,50.00000,51.00000,            ,0.44862,4
791.992,80.89417,     -3.09834,     -0.76000,50.00000,51.00000,            ,0.44810,4
793.307,80.95917,     -3.17487,     -0.79375,50.00000,51.00000,            ,0.44757,4
794.113,80.99917,     -3.19635,     -0.79375,50.00000,51.00000,            ,0.44725,4