File: data/TGA/ps_scf3_flynn_ozawa_wall/1K/ExpDat_2025_11_11_SL_PS_Tosoh_A1000_10K_min.csv
#EXPORTTYPE:                 ,DATA ALL
#FILE:                       ,2025_11_11_SL_PS_Tosoh_A1000_10K_min.ngb-ss5
#FORMAT:                     ,NETZSCH5
#FTYPE:                      ,ASCII
#IDENTITY:                   ,PS_A1000_10K_min
#DECIMAL:                    ,POINT
#SEPARATOR:                  ,COMMA
#MTYPE:                      ,DSC
#INSTRUMENT:                 ,NETZSCH STA 449F5
#PROJECT:                    ,PS
#DATE/TIME:                  ,11/12/2025 4:58:10 PM (UTC-5)
#CORR. FILE:                 ,
#TEMPCAL:                    ,05-05-2025 14:38
#SENSITIVITY:                ,28-06-2023 13:53
#LABORATORY:                 ,Tran/AAG
#OPERATOR:                   ,Stan
#REMARK:                     ,
#SAMPLE:                     ,PS_A1000_10K_min
#SAMPLE MASS /mg:            ,5.11
#MATERIAL:                   ,
#REFERENCE:                  ,
#REFERENCE MASS /mg:         ,0
#TYPE OF CRUCIBLE:           ,Al2O3 85 ‘l, open
#SAMPLE CRUCIBLE MASS /mg:   ,0
#REFERENCE CRUCIBLE MASS /mg:,0
#DSC RANGE /‘V:              ,5000
#TG RANGE /mg:               ,35000
#TAU-R:                      ,---
#CORR. CODE:                 ,000
#EXO:                        ,-1
#RANGE:                      ,20›C....800›C/0.0....20.0K/min
#SEGMENT:                    ,S1-4/4
#SEG. 1:                     ,20›C/5.0(K/min)/100›C
#SEG. 2:                     ,100›C/00:05/100›C
#SEG. 3:                     ,100›C/10.0(K/min)/600›C
#SEG. 4:                     ,600›C/20.0(K/min)/800›C

##Temp./›C,Time/min,DSC/(mW/mg),Mass/%,Gas Flow(purge2)/(ml/min),Gas Flow(protective)/(ml/min),TIC(scan:1)/A,Sensit./(uV/mW),Segment
 26.78800, 0.00000,      0.77375,    100,50.00000,52.00000,            ,0.92292,1
 29.61200, 0.86667,      0.49230,     99.11429,50.00000,49.00000,3.750674e-09,0.92318,1
 31.54700, 1.73333,      0.32048,     90.56399,50.00000,48.00000,3.751333e-09,0.92341,1
 32.84300, 2.60000,      0.20633,     90.51977,50.00000,48.00000,3.761385e-09,0.92358,1
 33.96000, 3.46667,      0.17237,     90.41115,50.00000,48.00000,3.769876e-09,0.92372,1
 35.44100, 4.33333,      0.24193,     90.51096,50.00000,48.00000,3.772157e-09,0.92383,1
 37.54200, 5.20000,      0.37020,     90.73229,50.00000,48.00000,3.774998e-09,0.92393,1
 40.29400, 6.06667,      0.51144,     90.99785,50.00000,48.00000,3.779534e-09,0.92402,1
 43.68300, 6.93333,      0.65224,     91.37436,50.00000,48.00000,3.778998e-09,0.92410,1
 47.63700, 7.80000,      0.78779,     91.63327,50.00000,48.00000,3.785940e-09,0.92417,1
 52.11300, 8.66667,      0.91140,     91.93894,50.00000,48.00000,3.787602e-09,0.92424,1
 56.95700, 9.53333,      1.01960,     92.23112,50.00000,48.00000,3.797602e-09,0.92433,1
 62.10800,10.40000,      1.10764,     92.44364,50.00000,48.00000,3.796145e-09,0.92443,1
 67.42600,11.26667,      1.17689,     92.57652,50.00000,48.00000,3.794220e-09,0.92453,1
 72.80200,12.13333,      1.22818,     92.65616,50.00000,48.00000,3.804732e-09,0.92467,1
 78.17400,13.00000,      1.26604,     92.62955,50.00000,48.00000,3.808236e-09,0.92479,1
 83.51900,13.86667,      1.28948,     92.52329,50.00000,48.00000,3.797702e-09,0.92492,1
 88.82300,14.73333,      1.30543,     92.39061,50.00000,48.00000,3.800072e-09,0.92506,1
 94.02600,15.60000,      1.30899,     92.15147,50.00000,48.00000,3.803986e-09,0.92520,1
 98.40400,16.34917,      1.29451,     91.91018,50.00000,48.00000,3.806343e-09,0.92534,2
101.552,16.99917,      1.12597,     91.27906,50.00000,48.00000,3.807072e-09,0.92545,2
103.706,17.64917,      0.85291,     90.58611,50.00000,48.00000,3.805704e-09,0.92556,2
105.28,18.29917,      0.63592,     90.05479,50.00000,48.00000,3.804752e-09,0.92566,2
106.507,18.94917,      0.49080,     89.63190,50.00000,48.00000,3.810582e-09,0.92576,2
107.366,19.59917,      0.36568,     89.18689,50.00000,48.00000,3.800441e-09,0.92585,2
107.86,20.24917,      0.23478,     88.75303,50.00000,48.00000,3.804220e-09,0.92594,2
108.022,20.89917,      0.11407,     88.32798,50.00000,48.00000,3.806172e-09,0.92599,2
108.013,21.10917, 8.059294e-02,     88.21937,50.00000,48.00000,3.812658e-09,0.92603,3
108.011,21.23917, 6.629415e-02,     88.16634,50.00000,48.00000,3.805749e-09,0.92604,3
108.026,21.36917, 5.914506e-02,     88.13973,50.00000,48.00000,3.805749e-09,0.92604,3
108.088,21.49917, 7.084548e-02,     88.19276,50.00000,48.00000,3.807411e-09,0.92606,3
108.189,21.62917, 9.944685e-02,     88.25695,50.00000,48.00000,3.805004e-09,0.92608,3
108.359,21.75917,      0.14495,     88.38552,50.00000,48.00000,3.808390e-09,0.92609,3
108.604,21.88917,      0.21062,     88.57143,50.00000,48.00000,3.808390e-09,0.92609,3
108.918,22.01917,      0.28980,     88.70196,50.00000,48.00000,3.810182e-09,0.92610,3
109.301,22.14917,      0.38086,     88.90352,50.00000,48.00000,3.799738e-09,0.92612,3
109.757,22.27917,      0.47960,     89.03190,50.00000,48.00000,3.813432e-09,0.92613,3
110.28,22.40917,      0.58196,     89.22446,50.00000,48.00000,3.811373e-09,0.92614,3
110.839,22.53917,      0.68242,     89.37730,50.00000,48.00000,3.811373e-09,0.92614,3
111.464,22.66917,      0.78016,     89.57221,50.00000,48.00000,3.809989e-09,0.92615,3
112.091,22.79917,      0.87519,     89.69178,50.00000,48.00000,3.811929e-09,0.92616,3
112.791,22.92917,      0.96279,     89.78904,50.00000,48.00000,3.807927e-09,0.92617,3
113.485,23.05917,      1.04181,     89.87554,50.00000,48.00000,3.807927e-09,0.92617,3
114.218,23.18917,      1.11340,     89.93307,50.00000,48.00000,3.806734e-09,0.92617,3
114.952,23.31917,      1.17770,     90.01937,50.00000,48.00000,3.808879e-09,0.92618,3
115.751,23.44917,      1.23620,     90.09902,50.00000,48.00000,3.814674e-09,0.92619,3
116.513,23.57917,      1.29162,     90.16106,50.00000,48.00000,3.807565e-09,0.92619,3
117.326,23.70917,      1.34304,     90.27847,50.00000,48.00000,3.807565e-09,0.92619,3
118.162,23.83917,      1.39303,     90.30724,50.00000,48.00000,3.814927e-09,0.92619,3
119.024,23.96917,      1.44193,     90.36027,50.00000,48.00000,3.811481e-09,0.92620,3
119.896,24.09917,      1.49104,     90.44227,50.00000,48.00000,3.816102e-09,0.92620,3
120.818,24.22917,      1.54463,     90.53973,50.00000,48.00000,3.803189e-09,0.92620,3
121.77,24.35917,      1.59894,     90.64599,50.00000,48.00000,3.803189e-09,0.92620,3
122.751,24.48917,      1.65641,     90.71448,50.00000,48.00000,3.814024e-09,0.92620,3
123.755,24.61917,      1.71642,     90.78317,50.00000,48.00000,3.816119e-09,0.92620,3
124.806,24.74917,      1.77880,     90.83855,50.00000,48.00000,3.810965e-09,0.92620,3
125.878,24.87917,      1.84274,     90.92701,50.00000,48.00000,3.811467e-09,0.92620,3
127.01,25.00917,      1.91007,     91.03777,50.00000,48.00000,3.811467e-09,0.92620,3
128.152,25.13917,      1.97537,     91.12192,50.00000,48.00000,3.802984e-09,0.92619,3
129.35,25.26917,      2.04275,     91.20822,50.00000,48.00000,3.808819e-09,0.92619,3
130.543,25.39917,      2.10760,     91.29452,50.00000,48.00000,3.812375e-09,0.92618,3
131.784,25.52917,      2.17324,     91.37867,50.00000,48.00000,3.812375e-09,0.92618,3
133.045,25.65917,      2.23637,     91.43190,50.00000,48.00000,3.809431e-09,0.92617,3
134.338,25.78917,      2.29486,     91.48728,50.00000,48.00000,3.810038e-09,0.92617,3
135.652,25.91917,      2.35364,     91.60020,50.00000,48.00000,3.808868e-09,0.92616,3
136.974,26.04917,      2.40792,     91.65323,50.00000,48.00000,3.812088e-09,0.92615,3
138.32,26.17917,      2.46068,     91.67984,50.00000,48.00000,3.812088e-09,0.92615,3
139.694,26.30917,      2.51010,     91.73307,50.00000,48.00000,3.813971e-09,0.92614,3
141.073,26.43917,      2.55585,     91.81272,50.00000,48.00000,3.813308e-09,0.92612,3
142.48,26.56917,      2.60171,     91.84149,50.00000,48.00000,3.813334e-09,0.92611,3
143.872,26.69917,      2.64221,     91.86810,50.00000,48.00000,3.813334e-09,0.92611,3
145.282,26.82917,      2.68233,     91.92114,50.00000,48.00000,3.814112e-09,0.92610,3
146.702,26.95917,      2.72023,     91.94775,50.00000,48.00000,3.807720e-09,0.92608,3
148.15,27.08917,      2.75496,     91.97436,50.00000,48.00000,3.810333e-09,0.92607,3
149.604,27.21917,      2.79028,     92.00078,50.00000,48.00000,3.806492e-09,0.92605,3
151.065,27.34917,      2.82222,     92.04736,50.00000,48.00000,3.806492e-09,0.92605,3
152.521,27.47917,      2.85524,     92.05186,50.00000,48.00000,3.809874e-09,0.92603,3
154.007,27.60917,      2.88490,     92.07828,50.00000,48.00000,3.807777e-09,0.92601,3
155.483,27.73917,      2.91513,     92.10489,50.00000,48.00000,3.812853e-09,0.92599,3
156.979,27.86917,      2.94298,     92.13151,50.00000,48.00000,3.805781e-09,0.92597,3
158.484,27.99917,      2.96878,     92.15812,50.00000,48.00000,3.805781e-09,0.92597,3
159.974,28.12917,      2.99312,     92.18454,50.00000,48.00000,3.811502e-09,0.92595,3
161.489,28.25917,      3.01659,     92.18454,50.00000,48.00000,3.816296e-09,0.92592,3
163.002,28.38917,      3.03981,     92.20450,50.00000,48.00000,3.811847e-09,0.92590,3
164.504,28.51917,      3.06107,     92.23777,50.00000,48.00000,3.811847e-09,0.92590,3
166.025,28.64917,      3.07643,     92.21781,50.00000,49.00000,3.800623e-09,0.92587,3
167.549,28.77917,      3.09622,     92.27534,50.00000,48.00000,3.815160e-09,0.92584,3
169.061,28.90917,      3.11219,     92.28650,50.00000,48.00000,3.815085e-09,0.92582,3
170.58,29.03917,      3.12775,     92.29080,50.00000,48.00000,3.823051e-09,0.92579,3
172.112,29.16917,      3.14038,     92.29080,50.00000,48.00000,3.823051e-09,0.92579,3
173.62,29.29917,      3.15134,     92.26438,50.00000,48.00000,3.805489e-09,0.92576,3
175.141,29.42917,      3.16238,     92.31742,50.00000,48.00000,3.821792e-09,0.92573,3
176.657,29.55917,      3.17078,     92.31742,50.00000,48.00000,3.818674e-09,0.92569,3
178.181,29.68917,      3.17890,     92.31742,50.00000,48.00000,3.815817e-09,0.92566,3
179.709,29.81917,      3.18591,     92.31742,50.00000,48.00000,3.815817e-09,0.92566,3
181.214,29.94917,      3.19257,     92.31742,50.00000,49.00000,3.817511e-09,0.92563,3
182.723,30.07917,      3.19726,     92.31742,50.00000,49.00000,3.819042e-09,0.92559,3
184.253,30.20917,      3.20086,     92.29080,50.00000,49.00000,3.809373e-09,0.92556,3
185.763,30.33917,      3.20395,     92.31742,50.00000,49.00000,3.809373e-09,0.92556,3
187.274,30.46917,      3.20537,     92.31742,50.00000,49.00000,3.823141e-09,0.92552,3
188.769,30.59917,      3.20629,     92.29746,50.00000,49.00000,3.818973e-09,0.92548,3
190.273,30.72917,      3.20794,     92.29746,50.00000,49.00000,3.812077e-09,0.92544,3
191.778,30.85917,      3.20571,     92.29746,50.00000,49.00000,3.816035e-09,0.92540,3
193.267,30.98917,      3.20585,     92.29746,50.00000,49.00000,3.816035e-09,0.92540,3
194.777,31.11917,      3.20335,     92.29080,50.00000,49.00000,3.812890e-09,0.92536,3
196.267,31.24917,      3.20116,     92.26438,50.00000,49.00000,3.816822e-09,0.92531,3
197.742,31.37917,      3.19605,     92.26438,50.00000,49.00000,3.815883e-09,0.92527,3
199.224,31.50917,      3.19268,     92.29080,50.00000,49.00000,3.810957e-09,0.92523,3
200.705,31.63917,      3.18779,     92.26438,50.00000,49.00000,3.810957e-09,0.92523,3
202.17,31.76917,      3.18236,     92.23777,50.00000,49.00000,3.814194e-09,0.92518,3
203.633,31.89917,      3.17659,     92.23777,50.00000,49.00000,3.810492e-09,0.92513,3
205.084,32.02917,      3.16908,     92.18454,50.00000,49.00000,3.815738e-09,0.92509,3
206.53,32.15917,      3.16277,     92.18454,50.00000,49.00000,3.815738e-09,0.92509,3
207.995,32.28917,      3.15446,     92.18454,50.00000,49.00000,3.817248e-09,0.92504,3
209.441,32.41917,      3.14765,     92.15812,50.00000,49.00000,3.811618e-09,0.92499,3
210.859,32.54917,      3.14112,     92.15812,50.00000,49.00000,3.812049e-09,0.92494,3
212.311,32.67917,      3.13157,     92.13151,50.00000,49.00000,3.814880e-09,0.92488,3
213.734,32.80917,      3.12420,     92.10489,50.00000,49.00000,3.814880e-09,0.92488,3
215.165,32.93917,      3.11790,     92.07397,50.00000,49.00000,3.814553e-09,0.92483,3
216.58,33.06917,      3.10738,     92.04736,50.00000,49.00000,3.810971e-09,0.92478,3
217.986,33.19917,      3.10084,     92.03405,50.00000,49.00000,3.811998e-09,0.92472,3
219.409,33.32917,      3.09279,     92.02074,50.00000,49.00000,3.811998e-09,0.92472,3
220.81,33.45917,      3.08467,     91.96771,50.00000,49.00000,3.813268e-09,0.92467,3
222.212,33.58917,      3.07551,     91.94110,50.00000,49.00000,3.809989e-09,0.92461,3
223.615,33.71917,      3.06792,     91.91448,50.00000,49.00000,3.812882e-09,0.92455,3
224.999,33.84917,      3.06186,     91.86145,50.00000,49.00000,3.816576e-09,0.92450,3
226.381,33.97917,      3.05580,     91.83483,50.00000,49.00000,3.816576e-09,0.92450,3
227.763,34.10917,      3.04868,     91.78160,50.00000,49.00000,3.813132e-09,0.92443,3
229.157,34.23917,      3.03932,     91.75519,50.00000,49.00000,3.813178e-09,0.92438,3
230.528,34.36917,      3.03340,     91.72857,50.00000,49.00000,3.811056e-09,0.92431,3
231.898,34.49917,      3.02713,     91.69530,50.00000,49.00000,3.815475e-09,0.92425,3
233.27,34.62917,      3.01963,     91.61781,50.00000,49.00000,3.815475e-09,0.92425,3
234.632,34.75917,      3.01476,     91.57143,50.00000,49.00000,3.808193e-09,0.92419,3
235.993,34.88917,      3.00864,     91.53816,50.00000,49.00000,3.812674e-09,0.92412,3
237.354,35.01917,      3.00324,     91.51155,50.00000,49.00000,3.816906e-09,0.92406,3
238.694,35.14917,      2.99635,     91.43855,50.00000,49.00000,3.817281e-09,0.92399,3
240.057,35.27917,      2.99220,     91.37867,50.00000,49.00000,3.817281e-09,0.92399,3
241.411,35.40917,      2.98607,     91.35225,50.00000,49.00000,3.819703e-09,0.92392,3
242.749,35.53917,      2.98221,     91.26810,50.00000,49.00000,3.817341e-09,0.92386,3
244.096,35.66917,      2.97677,     91.21057,50.00000,49.00000,3.812341e-09,0.92379,3
245.42,35.79917,      2.97394,     91.16184,50.00000,49.00000,3.812341e-09,0.92379,3
246.766,35.92917,      2.97137,     91.09980,50.00000,49.00000,3.817064e-09,0.92372,3
248.103,36.05917,      2.96806,     91.01781,50.00000,49.00000,3.817575e-09,0.92365,3
249.439,36.18917,      2.96708,     90.97143,50.00000,49.00000,3.822510e-09,0.92358,3
250.764,36.31917,      2.96680,     90.90939,50.00000,49.00000,3.812768e-09,0.92350,3
252.099,36.44917,      2.96459,     90.82975,50.00000,49.00000,3.812768e-09,0.92350,3
253.409,36.57917,      2.96284,     90.77221,50.00000,49.00000,3.817806e-09,0.92343,3
254.746,36.70917,      2.97327,     90.69022,50.00000,49.00000,3.816523e-09,0.92335,3
256.071,36.83917,      2.97558,     90.59276,50.00000,49.00000,3.822568e-09,0.92328,3
257.394,36.96917,      2.97339,     90.52642,50.00000,49.00000,3.816886e-09,0.92320,3
258.706,37.09917,      2.97080,     90.44227,50.00000,49.00000,3.816886e-09,0.92320,3
260.025,37.22917,      2.97023,     90.36262,50.00000,49.00000,3.817343e-09,0.92313,3
261.339,37.35917,      2.96603,     90.28063,50.00000,49.00000,3.817773e-09,0.92305,3
262.644,37.48917,      2.96798,     90.19198,50.00000,49.00000,3.819272e-09,0.92297,3
263.97,37.61917,      2.96474,     90.09022,50.00000,49.00000,3.816885e-09,0.92289,3
265.277,37.74917,      2.96344,     89.97065,50.00000,49.00000,3.816885e-09,0.92289,3
266.592,37.87917,      2.96199,     89.86223,50.00000,49.00000,3.811675e-09,0.92281,3
267.905,38.00917,      2.96439,     89.76027,50.00000,49.00000,3.807957e-09,0.92273,3
269.208,38.13917,      2.96347,     89.60978,50.00000,49.00000,3.819224e-09,0.92265,3
270.515,38.26917,      2.96313,     89.52779,50.00000,49.00000,3.813311e-09,0.92257,3
271.817,38.39917,      2.96259,     89.39726,50.00000,49.00000,3.813311e-09,0.92257,3
273.119,38.52917,      2.96335,     89.23562,50.00000,49.00000,3.824159e-09,0.92248,3
274.427,38.65917,      2.96562,     89.10724,50.00000,49.00000,3.820809e-09,0.92240,3
275.713,38.78917,      2.96691,     89.00763,50.00000,49.00000,3.812643e-09,0.92232,3
277.021,38.91917,      2.96828,     88.84599,50.00000,49.00000,3.813187e-09,0.92223,3
278.313,39.04917,      2.97443,     88.71977,50.00000,49.00000,3.813187e-09,0.92223,3
279.615,39.17917,      2.97785,     88.53816,50.00000,49.00000,3.816233e-09,0.92215,3
280.913,39.30917,      2.98128,     88.37221,50.00000,49.00000,3.820212e-09,0.92206,3
282.208,39.43917,      2.98547,     88.20607,50.00000,49.00000,3.816366e-09,0.92197,3
283.494,39.56917,      2.99225,     88.04012,50.00000,49.00000,3.811304e-09,0.92188,3
284.785,39.69917,      2.99852,     87.85401,50.00000,49.00000,3.811304e-09,0.92188,3
286.092,39.82917,      3.00710,     87.66145,50.00000,49.00000,3.810822e-09,0.92182,3
287.387,39.95917,      3.01662,     87.46673,50.00000,49.00000,3.811155e-09,0.92175,3
288.675,40.08917,      3.02540,     87.29609,50.00000,49.00000,3.814447e-09,0.92169,3
289.975,40.21917,      3.03275,     87.09256,50.00000,49.00000,3.814447e-09,0.92169,3
291.255,40.34917,      3.04326,     86.90646,50.00000,49.00000,3.812591e-09,0.92162,3
292.537,40.47917,      3.05475,     86.67397,50.00000,49.00000,3.812930e-09,0.92155,3
293.835,40.60917,      3.06785,     86.48356,50.00000,49.00000,3.813589e-09,0.92148,3
295.136,40.73917,      3.07836,     86.23131,50.00000,49.00000,3.819350e-09,0.92141,3
296.417,40.86917,      3.08922,     86.03640,50.00000,49.00000,3.819350e-09,0.92141,3
297.728,40.99917,      3.09967,     85.80391,50.00000,49.00000,3.809304e-09,0.92135,3
299.005,41.12917,      3.11211,     85.57143,50.00000,49.00000,3.815796e-09,0.92128,3
300.301,41.25917,      3.12751,     85.30352,50.00000,49.00000,3.808509e-09,0.92122,3
301.581,41.38917,      3.13663,     85.08219,50.00000,49.00000,3.810794e-09,0.92116,3
302.879,41.51917,      3.15309,     84.81429,50.00000,49.00000,3.810794e-09,0.92116,3
304.167,41.64917,      3.16328,     84.54638,50.00000,49.00000,3.812331e-09,0.92109,3
305.452,41.77917,      3.17502,     84.30294,50.00000,49.00000,3.815840e-09,0.92103,3
306.747,41.90917,      3.18932,     84.05049,50.00000,49.00000,3.815217e-09,0.92097,3
308.031,42.03917,      3.19847,     83.74932,50.00000,49.00000,3.815217e-09,0.92097,3
309.327,42.16917,      3.21057,     83.47710,50.00000,49.00000,3.810349e-09,0.92092,3
310.604,42.29917,      3.22360,     83.18258,50.00000,49.00000,3.806294e-09,0.92086,3
311.889,42.42917,      3.23421,     82.93249,50.00000,49.00000,3.816617e-09,0.92080,3
313.182,42.55917,      3.24566,     82.61585,50.00000,49.00000,3.812954e-09,0.92075,3
314.468,42.68917,      3.25596,     82.31703,50.00000,49.00000,3.812954e-09,0.92075,3
315.762,42.81917,      3.26981,     82.03796,50.00000,49.00000,3.810228e-09,0.92070,3
317.029,42.94917,      3.28050,     81.71703,50.00000,49.00000,3.810921e-09,0.92064,3
318.328,43.07917,      3.28904,     81.41585,50.00000,49.00000,3.808833e-09,0.92059,3
319.626,43.20917,      3.29877,     81.07495,50.00000,49.00000,3.817248e-09,0.92054,3
320.899,43.33917,      3.30842,     80.76497,50.00000,49.00000,3.817248e-09,0.92054,3
322.185,43.46917,      3.31876,     80.45284,50.00000,49.00000,3.817560e-09,0.92049,3
323.475,43.59917,      3.32699,     80.10528,50.00000,49.00000,3.815441e-09,0.92045,3
324.766,43.72917,      3.33742,     79.75088,50.00000,49.00000,3.809220e-09,0.92040,3
326.052,43.85917,      3.34472,     79.42994,50.00000,49.00000,3.809220e-09,0.92040,3
327.339,43.98917,      3.35304,     79.08904,50.00000,49.00000,3.812988e-09,0.92035,3
328.622,44.11917,      3.37001,     78.75029,50.00000,49.00000,3.810778e-09,0.92031,3
329.914,44.24917,      3.37704,     78.38708,50.00000,49.00000,3.810047e-09,0.92027,3
331.199,44.37917,      3.38565,     78.04188,50.00000,49.00000,3.808820e-09,0.92022,3
332.496,44.50917,      3.39888,     77.69648,50.00000,49.00000,3.808820e-09,0.92022,3
333.77,44.63917,      3.40375,     77.37319,50.00000,49.00000,3.815540e-09,0.92019,3
335.068,44.76917,      3.40636,     76.98787,50.00000,49.00000,3.805495e-09,0.92015,3
336.353,44.89917,      3.40853,     76.59609,50.00000,49.00000,3.811518e-09,0.92011,3
337.63,45.02917,      3.41922,     76.19530,50.00000,49.00000,3.811346e-09,0.92007,3
338.933,45.15917,      3.43464,     75.83444,50.00000,49.00000,3.811346e-09,0.92007,3
340.22,45.28917,      3.43628,     75.47573,50.00000,49.00000,3.805503e-09,0.92003,3
341.501,45.41917,      3.44150,     75.06849,50.00000,49.00000,3.808068e-09,0.92000,3
342.792,45.54917,      3.44198,     74.65656,50.00000,49.00000,3.813704e-09,0.91997,3
344.082,45.67917,      3.46029,     74.26262,50.00000,49.00000,3.818789e-09,0.91993,3
345.367,45.80917,      3.46539,     73.84188,50.00000,49.00000,3.818789e-09,0.91993,3
346.653,45.93917,      3.46348,     73.42779,50.00000,49.00000,3.810712e-09,0.91990,3
347.942,46.06917,      3.48955,     72.98513,50.00000,49.00000,3.812752e-09,0.91986,3
349.227,46.19917,      3.46731,     72.55773,50.00000,49.00000,3.812882e-09,0.91983,3
350.526,46.32917,      3.43152,     72.07965,50.00000,49.00000,3.812882e-09,0.91983,3
351.814,46.45917,      3.48619,     71.58356,50.00000,49.00000,3.803816e-09,0.91980,3
353.09,46.58917,      3.51100,     71.17632,50.00000,49.00000,3.813483e-09,0.91976,3
354.384,46.71917,      3.52115,     70.68023,50.00000,49.00000,3.809171e-09,0.91973,3
355.674,46.84917,      3.49676,     70.17104,50.00000,49.00000,3.815311e-09,0.91970,3
356.961,46.97917,      3.48042,     69.70841,50.00000,49.00000,3.815311e-09,0.91970,3
358.252,47.10917,      3.52340,     69.28767,50.00000,49.00000,3.812783e-09,0.91968,3
359.551,47.23917,      3.52446,     68.71663,50.00000,49.00000,3.811159e-09,0.91965,3
360.821,47.36917,      3.52888,     68.19628,50.00000,49.00000,3.818553e-09,0.91962,3
362.124,47.49917,      3.51541,     67.65597,50.00000,49.00000,3.818553e-09,0.91962,3
363.4,47.62917,      3.54141,     67.10920,50.00000,49.00000,3.808796e-09,0.91959,3
364.689,47.75917,      3.56303,     66.55577,50.00000,49.00000,3.816030e-09,0.91956,3
365.987,47.88917,      3.54314,     65.98219,50.00000,49.00000,3.819543e-09,0.91953,3
367.279,48.01917,      3.54173,     65.43092,50.00000,49.00000,3.805971e-09,0.91951,3
368.575,48.14917,      3.49049,     64.84423,50.00000,49.00000,3.805971e-09,0.91951,3
369.85,48.27917,      3.51396,     64.23992,50.00000,49.00000,3.807995e-09,0.91948,3
371.149,48.40917,      3.53699,     63.66654,50.00000,49.00000,3.809868e-09,0.91945,3
372.437,48.53917,      3.57667,     63.05988,50.00000,49.00000,3.813033e-09,0.91942,3
373.729,48.66917,      3.55884,     62.44658,50.00000,49.00000,3.815515e-09,0.91940,3
375.015,48.79917,      3.52736,     61.80900,50.00000,49.00000,3.815515e-09,0.91940,3
376.293,48.92917,      3.57447,     61.15362,50.00000,49.00000,3.812294e-09,0.91937,3
377.602,49.05917,      3.56875,     60.50059,50.00000,49.00000,3.807735e-09,0.91935,3
378.889,49.18917,      3.48136,     59.80313,50.00000,49.00000,3.811954e-09,0.91933,3
380.181,49.31917,      3.60428,     59.09237,50.00000,49.00000,3.808111e-09,0.91930,3
381.475,49.44917,      3.54843,     58.34638,50.00000,49.00000,3.808111e-09,0.91930,3
382.764,49.57917,      3.60339,     57.61135,50.00000,49.00000,3.811293e-09,0.91928,3
384.044,49.70917,      3.49979,     56.88513,50.00000,49.00000,3.809735e-09,0.91926,3
385.334,49.83917,      3.19040,     56.16771,50.00000,49.00000,3.806070e-09,0.91924,3
386.631,49.96917,      3.65523,     55.35519,50.00000,49.00000,3.806070e-09,0.91924,3
387.921,50.09917,      3.55609,     54.57378,50.00000,49.00000,3.807149e-09,0.91922,3
389.203,50.22917,      3.60128,     53.77886,50.00000,49.00000,3.813333e-09,0.91919,3
390.484,50.35917,      3.62489,     53.02622,50.00000,49.00000,3.805705e-09,0.91918,3
391.772,50.48917,      3.64499,     52.16712,50.00000,49.00000,3.804542e-09,0.91915,3
393.066,50.61917,      3.66070,     51.35010,50.00000,49.00000,3.804542e-09,0.91915,3
394.35,50.74917,      3.69052,     50.49119,50.00000,49.00000,3.813285e-09,0.91914,3
395.651,50.87917,      3.68838,     49.59883,50.00000,49.00000,3.808316e-09,0.91912,3
396.943,51.00917,      3.68660,     48.69785,50.00000,49.00000,3.810883e-09,0.91910,3
398.23,51.13917,      3.70931,     47.70822,50.00000,49.00000,3.811838e-09,0.91909,3
399.521,51.26917,      3.66919,     46.82035,50.00000,49.00000,3.811838e-09,0.91909,3
400.815,51.39917,      3.59830,     45.83288,50.00000,49.00000,3.813347e-09,0.91907,3
402.098,51.52917,      3.66913,     44.86321,50.00000,49.00000,3.805691e-09,0.91906,3
403.387,51.65917,      3.74370,     43.88474,50.00000,49.00000,3.809415e-09,0.91904,3
404.681,51.78917,      3.72482,     42.88180,50.00000,49.00000,3.798380e-09,0.91903,3
405.969,51.91917,      3.72518,     41.88982,50.00000,49.00000,3.798380e-09,0.91903,3
407.269,52.04917,      3.73060,     40.84481,50.00000,49.00000,3.803554e-09,0.91901,3
408.556,52.17917,      3.71917,     39.79765,50.00000,49.00000,3.812163e-09,0.91900,3
409.849,52.30917,      3.74989,     38.73268,50.00000,49.00000,3.808860e-09,0.91899,3
411.146,52.43917,      3.70894,     37.69432,50.00000,49.00000,3.808860e-09,0.91899,3
412.448,52.56917,      3.76805,     36.57847,50.00000,49.00000,3.802762e-09,0.91897,3
413.731,52.69917,      3.77125,     35.48043,50.00000,49.00000,3.805504e-09,0.91896,3
415.019,52.82917,      3.76877,     34.38885,50.00000,49.00000,3.806658e-09,0.91896,3
416.321,52.95917,      3.76854,     33.26654,50.00000,49.00000,3.816383e-09,0.91895,3
417.601,53.08917,      3.75892,     32.12407,50.00000,49.00000,3.816383e-09,0.91895,3
418.901,53.21917,      3.75400,     30.93523,50.00000,49.00000,3.813763e-09,0.91894,3
420.198,53.34917,      3.74327,     29.77280,50.00000,49.00000,3.813163e-09,0.91893,3
421.475,53.47917,      3.72818,     28.62368,50.00000,49.00000,3.811976e-09,0.91892,3
422.769,53.60917,      3.70956,     27.41272,50.00000,49.00000,3.808847e-09,0.91891,3
424.068,53.73917,      3.68153,     26.21937,50.00000,49.00000,3.808847e-09,0.91891,3
425.352,53.86917,      3.65911,     25.02818,50.00000,49.00000,3.800296e-09,0.91891,3
426.661,53.99917,      3.62355,     23.81722,50.00000,49.00000,3.807144e-09,0.91890,3
427.945,54.12917,      3.59154,     22.60176,50.00000,49.00000,3.810085e-09,0.91889,3
429.241,54.25917,      3.55273,     21.38630,50.00000,49.00000,3.810085e-09,0.91889,3
430.532,54.38917,      3.50319,     20.17965,50.00000,49.00000,3.804789e-09,0.91889,3
431.831,54.51917,      3.45059,     18.98415,50.00000,49.00000,3.805593e-09,0.91889,3
433.129,54.64917,      3.39170,     17.79961,50.00000,49.00000,3.810170e-09,0.91888,3
434.423,54.77917,      3.31541,     16.61076,50.00000,49.00000,3.805328e-09,0.91888,3
435.725,54.90917,      3.23594,     15.44403,50.00000,49.00000,3.805328e-09,0.91888,3
437.012,55.03917,      3.15951,     14.31703,50.00000,49.00000,3.810751e-09,0.91887,3
438.31,55.16917,      3.06788,     13.15910,50.00000,49.00000,3.806444e-09,0.91887,3
439.615,55.29917,      2.96957,     12.08767,50.00000,49.00000,3.809310e-09,0.91887,3
440.9,55.42917,      2.87129,     11.04266,50.00000,49.00000,3.807076e-09,0.91887,3
442.196,55.55917,      2.76746,      9.98434,50.00000,49.00000,3.807076e-09,0.91887,3
443.487,55.68917,      2.67511,      8.98141,50.00000,49.00000,3.806443e-09,0.91887,3
444.782,55.81917,      2.58887,      8.01174,50.00000,49.00000,3.808903e-09,0.91887,3
446.069,55.94917,      2.49976,      7.12387,50.00000,49.00000,3.805717e-09,0.91887,3
447.373,56.07917,      2.40488,      6.21389,50.00000,49.00000,3.805717e-09,0.91887,3
448.674,56.20917,      2.29929,      5.41018,50.00000,49.00000,3.800417e-09,0.91887,3
449.971,56.33917,      2.20046,      4.64423,50.00000,49.00000,3.810460e-09,0.91887,3
451.261,56.46917,      2.12804,      3.90705,50.00000,49.00000,3.810650e-09,0.91887,3
452.566,56.59917,      2.07114,      3.24951,50.00000,49.00000,3.806083e-09,0.91887,3
453.856,56.72917,      2.02164,      2.60959,50.00000,49.00000,3.806083e-09,0.91887,3
455.163,56.85917,      1.97317,      2.03405,50.00000,49.00000,3.808479e-09,0.91887,3
456.453,56.98917,      1.91703,      1.54912,50.00000,49.00000,3.807350e-09,0.91886,3
457.752,57.11917,      1.86514,      1.07534,50.00000,49.00000,3.804062e-09,0.91887,3
459.053,57.24917,      1.81330,      0.65029,50.00000,49.00000,3.804062e-09,0.91887,3
460.347,57.37917,      1.76219,      0.23836,50.00000,49.00000,3.805002e-09,0.91887,3
461.647,57.50917,      1.71185,-8.043053e-02,50.00000,49.00000,3.802750e-09,0.91887,3
462.951,57.63917,      1.66040,     -0.39041,50.00000,49.00000,3.804291e-09,0.91887,3
464.246,57.76917,      1.61297,     -0.65597,50.00000,49.00000,3.812985e-09,0.91887,3
465.547,57.89917,      1.56445,     -0.89511,50.00000,49.00000,3.812985e-09,0.91887,3
466.828,58.02917,      1.51995,     -1.09667,50.00000,49.00000,3.809387e-09,0.91887,3
468.14,58.15917,      1.47866,     -1.25597,50.00000,49.00000,3.811499e-09,0.91887,3
469.43,58.28917,      1.43931,     -1.39765,50.00000,49.00000,3.809874e-09,0.91887,3
470.729,58.41917,      1.40220,     -1.52838,50.00000,49.00000,3.802604e-09,0.91887,3
472.028,58.54917,      1.36758,     -1.61683,50.00000,49.00000,3.802604e-09,0.91887,3
473.323,58.67917,      1.33638,     -1.67671,50.00000,49.00000,3.809582e-09,0.91887,3
474.622,58.80917,      1.30699,     -1.73209,50.00000,49.00000,3.810005e-09,0.91887,3
475.924,58.93917,      1.28107,     -1.79178,50.00000,49.00000,3.813685e-09,0.91887,3
477.232,59.06917,      1.25268,     -1.84501,50.00000,49.00000,3.814104e-09,0.91887,3
478.52,59.19917,      1.22583,     -1.87143,50.00000,49.00000,3.814104e-09,0.91887,3
479.82,59.32917,      1.20370,     -1.89804,50.00000,49.00000,3.810784e-09,0.91887,3
481.112,59.45917,      1.18315,     -1.92466,50.00000,49.00000,3.806646e-09,0.91887,3
482.404,59.58917,      1.16157,     -1.95127,50.00000,49.00000,3.795752e-09,0.91887,3
483.698,59.71917,      1.14232,     -1.97104,50.00000,49.00000,3.795752e-09,0.91887,3
485.003,59.84917,      1.12326,     -2.00431,50.00000,49.00000,3.807403e-09,0.91887,3
486.286,59.97917,      1.10337,     -2.03092,50.00000,49.00000,3.802153e-09,0.91887,3
487.588,60.10917,      1.08610,     -2.03092,50.00000,49.00000,3.809937e-09,0.91887,3
488.881,60.23917,      1.06997,     -2.08395,50.00000,49.00000,3.806671e-09,0.91887,3
490.18,60.36917,      1.04966,     -2.08395,50.00000,49.00000,3.806671e-09,0.91887,3
491.474,60.49917,      1.03291,     -2.09726,50.00000,49.00000,3.801472e-09,0.91887,3
492.773,60.62917,      1.01636,     -2.11057,50.00000,49.00000,3.805211e-09,0.91887,3
494.072,60.75917,      0.99803,     -2.13718,50.00000,49.00000,3.809664e-09,0.91887,3
495.364,60.88917,      0.98135,     -2.13718,50.00000,49.00000,3.808442e-09,0.91887,3
496.652,61.01917,      0.96508,     -2.16380,50.00000,49.00000,3.808442e-09,0.91887,3
497.945,61.14917,      0.94656,     -2.16380,50.00000,49.00000,3.815529e-09,0.91887,3
499.244,61.27917,      0.92846,     -2.19256,50.00000,49.00000,3.807251e-09,0.91887,3
500.54,61.40917,      0.91129,     -2.21918,50.00000,49.00000,3.803061e-09,0.91887,3
501.833,61.53917,      0.88960,     -2.21918,50.00000,49.00000,3.806151e-09,0.91887,3
503.136,61.66917,      0.87131,     -2.21918,50.00000,49.00000,3.806151e-09,0.91887,3
504.429,61.79917,      0.85394,     -2.24560,50.00000,49.00000,3.804222e-09,0.91887,3
505.725,61.92917,      0.83402,     -2.21918,50.00000,49.00000,3.805241e-09,0.91887,3
507.015,62.05917,      0.81527,     -2.24560,50.00000,49.00000,3.796316e-09,0.91887,3
508.314,62.18917,      0.79522,     -2.27221,50.00000,49.00000,3.796316e-09,0.91887,3
509.612,62.31917,      0.77535,     -2.24560,50.00000,49.00000,3.807784e-09,0.91887,3
510.917,62.44917,      0.75717,     -2.27221,50.00000,49.00000,3.810627e-09,0.91886,3
512.205,62.57917,      0.73915,     -2.27221,50.00000,49.00000,3.805089e-09,0.91886,3
513.502,62.70917,      0.71857,     -2.27221,50.00000,49.00000,3.811295e-09,0.91886,3
514.805,62.83917,      0.70044,     -2.27221,50.00000,49.00000,3.811295e-09,0.91886,3
516.101,62.96917,      0.67871,     -2.27221,50.00000,49.00000,3.801217e-09,0.91886,3
517.394,63.09917,      0.66094,     -2.25225,50.00000,49.00000,3.804455e-09,0.91886,3
518.683,63.22917,      0.64033,     -2.27886,50.00000,49.00000,3.809516e-09,0.91886,3
519.985,63.35917,      0.62093,     -2.27886,50.00000,49.00000,3.809516e-09,0.91886,3
521.3,63.48917,      0.60070,     -2.25225,50.00000,49.00000,3.803823e-09,0.91886,3
522.584,63.61917,      0.57988,     -2.25225,50.00000,49.00000,3.808601e-09,0.91886,3
523.881,63.74917,      0.56103,     -2.26556,50.00000,49.00000,3.806910e-09,0.91886,3
525.173,63.87917,      0.54058,     -2.26556,50.00000,49.00000,3.804395e-09,0.91886,3
526.48,64.00917,      0.52033,     -2.26556,50.00000,49.00000,3.804395e-09,0.91886,3
527.774,64.13917,      0.49950,     -2.23894,50.00000,49.00000,3.803888e-09,0.91885,3
529.074,64.26917,      0.47553,     -2.26556,50.00000,49.00000,3.805406e-09,0.91885,3
530.381,64.39917,      0.45455,     -2.23894,50.00000,49.00000,3.802219e-09,0.91885,3
531.673,64.52917,      0.43504,     -2.25225,50.00000,49.00000,3.806897e-09,0.91885,3
532.965,64.65917,      0.41238,     -2.24560,50.00000,49.00000,3.806897e-09,0.91885,3
534.273,64.78917,      0.39222,     -2.22564,50.00000,49.00000,3.803646e-09,0.91885,3
535.571,64.91917,      0.37097,     -2.22564,50.00000,49.00000,3.806403e-09,0.91884,3
536.864,65.04917,      0.35015,     -2.22564,50.00000,49.00000,3.817311e-09,0.91884,3
538.164,65.17917,      0.32876,     -2.23894,50.00000,49.00000,3.799363e-09,0.91884,3
539.464,65.30917,      0.30729,     -2.21018,50.00000,49.00000,3.799363e-09,0.91884,3
540.771,65.43917,      0.28136,     -2.21018,50.00000,49.00000,3.805659e-09,0.91884,3
542.068,65.56917,      0.26286,     -2.21018,50.00000,49.00000,3.800142e-09,0.91884,3
543.369,65.69917,      0.24378,     -2.19022,50.00000,49.00000,3.802010e-09,0.91883,3
544.664,65.82917,      0.22074,     -2.19022,50.00000,49.00000,3.802010e-09,0.91883,3
545.962,65.95917,      0.20075,     -2.21018,50.00000,49.00000,3.805829e-09,0.91883,3
547.272,66.08917,      0.17913,     -2.21018,50.00000,49.00000,3.797579e-09,0.91883,3
548.559,66.21917,      0.15770,     -2.18356,50.00000,49.00000,3.801908e-09,0.91883,3
549.863,66.34917,      0.13673,     -2.15714,50.00000,49.00000,3.806374e-09,0.91882,3
551.18,66.47917,      0.11438,     -2.18356,50.00000,49.00000,3.806374e-09,0.91882,3
552.48,66.60917, 9.275317e-02,     -2.19022,50.00000,49.00000,3.805181e-09,0.91882,3
553.778,66.73917, 7.000157e-02,     -2.16380,50.00000,49.00000,3.801103e-09,0.91882,3
555.077,66.86917, 4.665204e-02,     -2.19022,50.00000,49.00000,3.806891e-09,0.91881,3
556.379,66.99917, 2.455001e-02,     -2.18356,50.00000,49.00000,3.807777e-09,0.91881,3
557.676,67.12917, 1.850691e-03,     -2.16380,50.00000,49.00000,3.807777e-09,0.91881,3
558.972,67.25917,-1.906486e-02,     -2.16380,50.00000,49.00000,3.802392e-09,0.91881,3
560.287,67.38917,-4.137132e-02,     -2.16380,50.00000,49.00000,3.801149e-09,0.91880,3
561.578,67.51917,-6.533859e-02,     -2.16380,50.00000,49.00000,3.793515e-09,0.91880,3
562.878,67.64917,-8.804924e-02,     -2.13718,50.00000,49.00000,3.793515e-09,0.91880,3
564.185,67.77917,     -0.10790,     -2.16380,50.00000,49.00000,3.801702e-09,0.91879,3
565.487,67.90917,     -0.13021,     -2.14384,50.00000,49.00000,3.806778e-09,0.91879,3
566.801,68.03917,     -0.15152,     -2.14384,50.00000,49.00000,3.808647e-09,0.91879,3
568.097,68.16917,     -0.17343,     -2.13718,50.00000,49.00000,3.804243e-09,0.91878,3
569.405,68.29917,     -0.19514,     -2.12387,50.00000,49.00000,3.804243e-09,0.91878,3
570.713,68.42917,     -0.21637,     -2.12387,50.00000,49.00000,3.800088e-09,0.91878,3
572.021,68.55917,     -0.24063,     -2.14384,50.00000,49.00000,3.794424e-09,0.91877,3
573.327,68.68917,     -0.26361,     -2.14384,50.00000,49.00000,3.799073e-09,0.91877,3
574.634,68.81917,     -0.28558,     -2.12387,50.00000,49.00000,3.799073e-09,0.91877,3
575.93,68.94917,     -0.30950,     -2.12387,50.00000,49.00000,3.801755e-09,0.91876,3
577.236,69.07917,     -0.33187,     -2.12387,50.00000,49.00000,3.802523e-09,0.91876,3
578.539,69.20917,     -0.35457,     -2.12387,50.00000,49.00000,3.801047e-09,0.91875,3
579.848,69.33917,     -0.38115,     -2.12387,50.00000,49.00000,3.798901e-09,0.91875,3
581.14,69.46917,     -0.40154,     -2.12387,50.00000,49.00000,3.798901e-09,0.91875,3
582.446,69.59917,     -0.42254,     -2.12387,50.00000,49.00000,3.802907e-09,0.91874,3
583.744,69.72917,     -0.44605,     -2.09061,50.00000,49.00000,3.802723e-09,0.91874,3
585.052,69.85917,     -0.46554,     -2.11057,50.00000,49.00000,3.803466e-09,0.91873,3
586.354,69.98917,     -0.48836,     -2.11057,50.00000,49.00000,3.799441e-09,0.91873,3
587.665,70.11917,     -0.51070,     -2.08395,50.00000,49.00000,3.799441e-09,0.91873,3
588.966,70.24917,     -0.53255,     -2.11057,50.00000,49.00000,3.794109e-09,0.91872,3
590.278,70.37917,     -0.55749,     -2.08395,50.00000,49.00000,3.808154e-09,0.91871,3
591.577,70.50917,     -0.58029,     -2.08395,50.00000,49.00000,3.799385e-09,0.91871,3
592.894,70.63917,     -0.60206,     -2.08395,50.00000,49.00000,3.799385e-09,0.91871,3
594.191,70.76917,     -0.62664,     -2.08395,50.00000,49.00000,3.802664e-09,0.91870,3
595.495,70.89917,     -0.64825,     -2.08395,50.00000,49.00000,3.801062e-09,0.91870,3
596.642,71.01417,     -0.66593,     -2.08395,50.00000,49.00000,3.800818e-09,0.91869,4
597.303,71.07917,     -0.67610,     -2.09061,50.00000,49.00000,3.800818e-09,0.91869,4
598,71.14417,     -0.66555,     -2.09061,50.00000,49.00000,3.800818e-09,0.91869,4
598.754,71.20917,     -0.59849,     -2.06419,50.00000,49.00000,3.795742e-09,0.91869,4
599.585,71.27417,     -0.47646,     -2.03757,50.00000,49.00000,3.795742e-09,0.91869,4
600.518,71.33917,     -0.28955,     -2.03092,50.00000,49.00000,3.800004e-09,0.91868,4
601.534,71.40417,-5.224997e-02,     -2.01096,50.00000,49.00000,3.800004e-09,0.91868,4
602.648,71.46917,      0.22261,     -1.95793,50.00000,49.00000,3.800004e-09,0.91868,4
603.836,71.53417,      0.51518,     -1.95793,50.00000,49.00000,3.794848e-09,0.91867,4
605.082,71.59917,      0.81246,     -1.92681,50.00000,49.00000,3.794848e-09,0.91867,4
606.41,71.66417,      1.09778,     -1.90020,50.00000,49.00000,3.801550e-09,0.91866,4
607.763,71.72917,      1.35794,     -1.87378,50.00000,49.00000,3.801550e-09,0.91866,4
609.145,71.79417,      1.58443,     -1.84716,50.00000,49.00000,3.801550e-09,0.91866,4
610.551,71.85917,      1.76786,     -1.84716,50.00000,49.00000,3.798629e-09,0.91866,4
611.948,71.92417,      1.90318,     -1.82055,50.00000,49.00000,3.798629e-09,0.91866,4
613.335,71.98917,      1.99299,     -1.82055,50.00000,49.00000,3.798872e-09,0.91865,4
614.701,72.05417,      2.03594,     -1.79393,50.00000,49.00000,3.798872e-09,0.91865,4
616.05,72.11917,      2.04141,     -1.77417,50.00000,49.00000,3.798872e-09,0.91865,4
617.367,72.18417,      2.00921,     -1.77417,50.00000,49.00000,3.800283e-09,0.91864,4
618.673,72.24917,      1.94717,     -1.78728,50.00000,49.00000,3.800283e-09,0.91864,4
619.927,72.31417,      1.86924,     -1.80059,50.00000,49.00000,3.799706e-09,0.91863,4
621.176,72.37917,      1.77208,     -1.78063,50.00000,49.00000,3.799706e-09,0.91863,4
622.391,72.44417,      1.66919,     -1.78063,50.00000,49.00000,3.799706e-09,0.91863,4
623.602,72.50917,      1.56431,     -1.78063,50.00000,49.00000,3.792449e-09,0.91863,4
624.787,72.57417,      1.46482,     -1.78063,50.00000,49.00000,3.792449e-09,0.91863,4
625.974,72.63917,      1.37450,     -1.80724,50.00000,49.00000,3.802283e-09,0.91862,4
627.146,72.70417,      1.29334,     -1.78063,50.00000,49.00000,3.802283e-09,0.91862,4
628.327,72.76917,      1.22258,     -1.78063,50.00000,49.00000,3.802283e-09,0.91862,4
629.506,72.83417,      1.16996,     -1.78063,50.00000,49.00000,3.803483e-09,0.91861,4
630.696,72.89917,      1.12984,     -1.78063,50.00000,49.00000,3.803483e-09,0.91861,4
631.889,72.96417,      1.10109,     -1.78063,50.00000,49.00000,3.803483e-09,0.91861,4
633.093,73.02917,      1.08321,     -1.75421,50.00000,49.00000,3.805324e-09,0.91860,4
634.307,73.09417,      1.07622,     -1.75421,50.00000,49.00000,3.805324e-09,0.91860,4
635.53,73.15917,      1.07440,     -1.78063,50.00000,49.00000,3.802355e-09,0.91859,4
636.767,73.22417,      1.07721,     -1.76751,50.00000,49.00000,3.802355e-09,0.91859,4
638.021,73.28917,      1.08726,     -1.72759,50.00000,49.00000,3.802355e-09,0.91859,4
639.272,73.35417,      1.09617,     -1.75421,50.00000,49.00000,3.805177e-09,0.91859,4
640.544,73.41917,      1.10396,     -1.73425,50.00000,49.00000,3.805177e-09,0.91859,4
641.81,73.48417,      1.11205,     -1.72759,50.00000,49.00000,3.801911e-09,0.91858,4
643.1,73.54917,      1.11757,     -1.72759,50.00000,49.00000,3.801911e-09,0.91858,4
644.38,73.61417,      1.12105,     -1.72759,50.00000,49.00000,3.801911e-09,0.91858,4
645.675,73.67917,      1.11902,     -1.72759,50.00000,49.00000,3.798899e-09,0.91857,4
646.969,73.74417,      1.11349,     -1.72759,50.00000,49.00000,3.798899e-09,0.91857,4
648.252,73.80917,      1.10383,     -1.70098,50.00000,49.00000,3.798904e-09,0.91856,4
649.556,73.87417,      1.09066,     -1.70098,50.00000,49.00000,3.798904e-09,0.91856,4
650.849,73.93917,      1.07452,     -1.70098,50.00000,49.00000,3.798904e-09,0.91856,4
652.15,74.00417,      1.05569,     -1.70098,50.00000,49.00000,3.800006e-09,0.91855,4
653.447,74.06917,      1.03329,     -1.67436,50.00000,49.00000,3.800006e-09,0.91855,4
654.758,74.13417,      1.01026,     -1.67436,50.00000,49.00000,3.798107e-09,0.91854,4
656.043,74.19917,      0.98419,     -1.67436,50.00000,49.00000,3.798107e-09,0.91854,4
657.337,74.26417,      0.95511,     -1.67436,50.00000,49.00000,3.798107e-09,0.91854,4
658.647,74.32917,      0.92892,     -1.67436,50.00000,49.00000,3.801937e-09,0.91853,4
659.932,74.39417,      0.89703,     -1.68767,50.00000,49.00000,3.801937e-09,0.91853,4
661.236,74.45917,      0.86832,     -1.66771,50.00000,49.00000,3.804981e-09,0.91852,4
662.537,74.52417,      0.83745,     -1.66125,50.00000,49.00000,3.804981e-09,0.91852,4
663.842,74.58917,      0.80918,     -1.66125,50.00000,49.00000,3.804981e-09,0.91852,4
665.145,74.65417,      0.78202,     -1.64129,50.00000,49.00000,3.802780e-09,0.91852,4
666.445,74.71917,      0.75478,     -1.63464,50.00000,49.00000,3.802780e-09,0.91852,4
667.752,74.78417,      0.72449,     -1.63464,50.00000,49.00000,3.799172e-09,0.91851,4
669.06,74.84917,      0.69681,     -1.63464,50.00000,49.00000,3.799172e-09,0.91851,4
670.363,74.91417,      0.66876,     -1.64795,50.00000,49.00000,3.799172e-09,0.91851,4
671.688,74.97917,      0.64273,     -1.64129,50.00000,49.00000,3.800620e-09,0.91850,4
672.994,75.04417,      0.61513,     -1.62133,50.00000,49.00000,3.800620e-09,0.91850,4
674.31,75.10917,      0.58268,     -1.62133,50.00000,49.00000,3.801711e-09,0.91849,4
675.609,75.17417,      0.55522,     -1.62133,50.00000,49.00000,3.801711e-09,0.91849,4
676.927,75.23917,      0.52861,     -1.62133,50.00000,49.00000,3.801711e-09,0.91849,4
678.25,75.30417,      0.49561,     -1.62133,50.00000,49.00000,3.799767e-09,0.91848,4
679.567,75.36917,      0.46705,     -1.59472,50.00000,49.00000,3.799767e-09,0.91848,4
680.886,75.43417,      0.43901,     -1.59472,50.00000,49.00000,3.799767e-09,0.91848,4
682.205,75.49917,      0.40547,     -1.59472,50.00000,49.00000,3.798043e-09,0.91847,4
683.527,75.56417,      0.37849,     -1.59472,50.00000,49.00000,3.798043e-09,0.91847,4
684.843,75.62917,      0.34418,     -1.56810,50.00000,49.00000,3.792327e-09,0.91846,4
686.168,75.69417,      0.30918,     -1.56810,50.00000,49.00000,3.792327e-09,0.91846,4
687.481,75.75917,      0.27652,     -1.56810,50.00000,49.00000,3.792327e-09,0.91846,4
688.808,75.82417,      0.24347,     -1.56810,50.00000,49.00000,3.792135e-09,0.91845,4
690.135,75.88917,      0.20730,     -1.59472,50.00000,49.00000,3.792135e-09,0.91845,4
691.447,75.95417,      0.17347,     -1.56810,50.00000,49.00000,3.801981e-09,0.91844,4
692.773,76.01917,      0.14169,     -1.54168,50.00000,49.00000,3.801981e-09,0.91844,4
694.107,76.08417,      0.10373,     -1.54168,50.00000,49.00000,3.801981e-09,0.91844,4
695.421,76.14917, 7.025586e-02,     -1.54168,50.00000,49.00000,3.792539e-09,0.91842,4
696.758,76.21417, 3.058407e-02,     -1.54168,50.00000,49.00000,3.792539e-09,0.91842,4
698.08,76.27917,-2.449734e-03,     -1.54168,50.00000,49.00000,3.795905e-09,0.91842,4
699.399,76.34417,-3.801737e-02,     -1.51507,50.00000,49.00000,3.795905e-09,0.91842,4
700.721,76.40917,-7.766276e-02,     -1.51507,50.00000,49.00000,3.795905e-09,0.91842,4
702.048,76.47417,     -0.11310,     -1.51507,50.00000,49.00000,3.795152e-09,0.91841,4
703.368,76.53917,     -0.15171,     -1.51507,50.00000,49.00000,3.795152e-09,0.91841,4
704.69,76.60417,     -0.18948,     -1.48845,50.00000,49.00000,3.795152e-09,0.91841,4
706.031,76.66917,     -0.22951,     -1.50176,50.00000,49.00000,3.797265e-09,0.91839,4
707.34,76.73417,     -0.26345,     -1.51507,50.00000,49.00000,3.797265e-09,0.91839,4
708.667,76.79917,     -0.30613,     -1.50841,50.00000,49.00000,3.803016e-09,0.91839,4
709.997,76.86417,     -0.34459,     -1.48845,50.00000,49.00000,3.803016e-09,0.91839,4
711.328,76.92917,     -0.38375,     -1.46184,50.00000,49.00000,3.803016e-09,0.91839,4
712.651,76.99417,     -0.42518,     -1.46184,50.00000,49.00000,3.790922e-09,0.91838,4
713.964,77.05917,     -0.46484,     -1.46184,50.00000,49.00000,3.790922e-09,0.91838,4
715.288,77.12417,     -0.50678,     -1.46184,50.00000,49.00000,3.796418e-09,0.91836,4
716.623,77.18917,     -0.54789,     -1.46184,50.00000,49.00000,3.796418e-09,0.91836,4
717.948,77.25417,     -0.58847,     -1.44853,50.00000,49.00000,3.796418e-09,0.91836,4
719.275,77.31917,     -0.62946,     -1.44853,50.00000,49.00000,3.799463e-09,0.91835,4
720.593,77.38417,     -0.67116,     -1.44853,50.00000,49.00000,3.799463e-09,0.91835,4
721.921,77.44917,     -0.71328,     -1.43542,50.00000,49.00000,3.798478e-09,0.91834,4
723.242,77.51417,     -0.75581,     -1.43542,50.00000,49.00000,3.798478e-09,0.91834,4
724.573,77.57917,     -0.79468,     -1.43542,50.00000,49.00000,3.798478e-09,0.91834,4
725.889,77.64417,     -0.83992,     -1.43542,50.00000,49.00000,3.796260e-09,0.91833,4
727.228,77.70917,     -0.88244,     -1.40881,50.00000,49.00000,3.796260e-09,0.91833,4
728.557,77.77417,     -0.92349,     -1.40881,50.00000,49.00000,3.788702e-09,0.91832,4
729.876,77.83917,     -0.96840,     -1.40881,50.00000,49.00000,3.788702e-09,0.91832,4
731.199,77.90417,     -1.01248,     -1.40881,50.00000,49.00000,3.788702e-09,0.91832,4
732.519,77.96917,     -1.05792,     -1.40881,50.00000,49.00000,3.801274e-09,0.91831,4
733.844,78.03417,     -1.10125,     -1.40881,50.00000,49.00000,3.801274e-09,0.91831,4
735.169,78.09917,     -1.14532,     -1.38219,50.00000,49.00000,3.801274e-09,0.91831,4
736.486,78.16417,     -1.19234,     -1.38219,50.00000,49.00000,3.795601e-09,0.91829,4
737.82,78.22917,     -1.23282,     -1.38219,50.00000,49.00000,3.795601e-09,0.91829,4
739.142,78.29417,     -1.28132,     -1.38219,50.00000,49.00000,3.795466e-09,0.91828,4
740.466,78.35917,     -1.32898,     -1.38219,50.00000,49.00000,3.795466e-09,0.91828,4
741.789,78.42417,     -1.37644,     -1.38219,50.00000,49.00000,3.795466e-09,0.91828,4
743.107,78.48917,     -1.42240,     -1.36888,50.00000,49.00000,3.798025e-09,0.91827,4
744.431,78.55417,     -1.46975,     -1.36888,50.00000,49.00000,3.798025e-09,0.91827,4
745.758,78.61917,     -1.51370,     -1.36888,50.00000,49.00000,3.798336e-09,0.91826,4
747.086,78.68417,     -1.56255,     -1.36888,50.00000,49.00000,3.798336e-09,0.91826,4
748.397,78.74917,     -1.60733,     -1.36888,50.00000,49.00000,3.798336e-09,0.91826,4
749.733,78.81417,     -1.65448,     -1.35558,50.00000,49.00000,3.796531e-09,0.91825,4
751.051,78.87917,     -1.70462,     -1.35558,50.00000,49.00000,3.796531e-09,0.91825,4
752.376,78.94417,     -1.75069,     -1.35558,50.00000,49.00000,3.792646e-09,0.91823,4
753.71,79.00917,     -1.80011,     -1.35558,50.00000,49.00000,3.792646e-09,0.91823,4
755.024,79.07417,     -1.84542,     -1.32916,50.00000,49.00000,3.792646e-09,0.91823,4
756.34,79.13917,     -1.89567,     -1.32916,50.00000,49.00000,3.793054e-09,0.91822,4
757.666,79.20417,     -1.94121,     -1.32916,50.00000,49.00000,3.793054e-09,0.91822,4
758.988,79.26917,     -1.99073,     -1.32916,50.00000,49.00000,3.790896e-09,0.91821,4
760.316,79.33417,     -2.03779,     -1.32916,50.00000,49.00000,3.790896e-09,0.91821,4
761.633,79.39917,     -2.08266,     -1.30254,50.00000,49.00000,3.790896e-09,0.91821,4
762.952,79.46417,     -2.13315,     -1.28258,50.00000,49.00000,3.797369e-09,0.91819,4
764.276,79.52917,     -2.17955,     -1.28258,50.00000,49.00000,3.797369e-09,0.91819,4
765.586,79.59417,     -2.22439,     -1.29589,50.00000,49.00000,3.798606e-09,0.91819,4
766.915,79.65917,     -2.27459,     -1.29589,50.00000,49.00000,3.798606e-09,0.91819,4
768.233,79.72417,     -2.32456,     -1.29589,50.00000,49.00000,3.798606e-09,0.91819,4
769.549,79.78917,     -2.37431,     -1.29589,50.00000,49.00000,3.796689e-09,0.91817,4
770.876,79.85417,     -2.41864,     -1.26928,50.00000,49.00000,3.796689e-09,0.91817,4
772.192,79.91917,     -2.47057,     -1.26928,50.00000,49.00000,3.794019e-09,0.91816,4
773.512,79.98417,     -2.52034,     -1.24932,50.00000,49.00000,3.794019e-09,0.91816,4
774.825,80.04917,     -2.56529,     -1.24266,50.00000,49.00000,3.794019e-09,0.91816,4
776.144,80.11417,     -2.61791,     -1.24266,50.00000,49.00000,3.797850e-09,0.91815,4
777.47,80.17917,     -2.66211,     -1.24266,50.00000,49.00000,3.797850e-09,0.91815,4
778.782,80.24417,     -2.71660,     -1.24266,50.00000,49.00000,3.797850e-09,0.91815,4
780.105,80.30917,     -2.76694,     -1.24266,50.00000,49.00000,3.793684e-09,0.91813,4
781.427,80.37417,     -2.81509,     -1.24266,50.00000,49.00000,3.793684e-09,0.91813,4
782.739,80.43917,     -2.86069,     -1.21624,50.00000,49.00000,3.800410e-09,0.91812,4
784.061,80.50417,     -2.91005,     -1.21624,50.00000,49.00000,3.800410e-09,0.91812,4
785.375,80.56917,     -2.95918,     -1.21624,50.00000,49.00000,3.800410e-09,0.91812,4
786.696,80.63417,     -3.00910,     -1.20294,50.00000,49.00000,3.788870e-09,0.91811,4
788.013,80.69917,     -3.06012,     -1.20294,50.00000,49.00000,3.788870e-09,0.91811,4
789.331,80.76417,     -3.10428,     -1.19628,50.00000,49.00000,3.795741e-09,0.91809,4
790.654,80.82917,     -3.15256,     -1.19628,50.00000,49.00000,3.795741e-09,0.91809,4
791.967,80.89417,     -3.20525,     -1.19628,50.00000,49.00000,            ,0.44811,4
793.282,80.95917,     -3.26007,     -1.18963,50.00000,49.00000,            ,0.44758,4
794.097,80.99917,     -3.28482,     -1.18963,50.00000,49.00000,            ,0.44725,4