File: data/TGA/ps_scf3_flynn_ozawa_wall/1K/ExpDat_2025_11_13_SL_PSSCF3_005f_J3_20K_min.csv
#EXPORTTYPE:                 ,DATA ALL
#FILE:                       ,2025_11_13_SL_PSSCF3_005f_J3_20K_min.ngb-ss5
#FORMAT:                     ,NETZSCH5
#FTYPE:                      ,ASCII
#IDENTITY:                   ,005f-J3
#DECIMAL:                    ,POINT
#SEPARATOR:                  ,COMMA
#MTYPE:                      ,DSC
#INSTRUMENT:                 ,NETZSCH STA 449F5
#PROJECT:                    ,PS
#DATE/TIME:                  ,11/13/2025 9:52:29 AM (UTC-5)
#CORR. FILE:                 ,
#TEMPCAL:                    ,05-05-2025 14:38
#SENSITIVITY:                ,28-06-2023 13:53
#LABORATORY:                 ,Tran/AAG
#OPERATOR:                   ,Stan
#REMARK:                     ,
#SAMPLE:                     ,005f-J3
#SAMPLE MASS /mg:            ,4.0
#MATERIAL:                   ,
#REFERENCE:                  ,
#REFERENCE MASS /mg:         ,0
#TYPE OF CRUCIBLE:           ,Al2O3 85 ‘l, open
#SAMPLE CRUCIBLE MASS /mg:   ,0
#REFERENCE CRUCIBLE MASS /mg:,0
#DSC RANGE /‘V:              ,5000
#TG RANGE /mg:               ,35000
#TAU-R:                      ,---
#CORR. CODE:                 ,000
#EXO:                        ,-1
#RANGE:                      ,20›C....800›C/0.0....20.0K/min
#SEGMENT:                    ,S1-4/4
#SEG. 1:                     ,20›C/5.0(K/min)/100›C
#SEG. 2:                     ,100›C/00:05/100›C
#SEG. 3:                     ,100›C/20.0(K/min)/600›C
#SEG. 4:                     ,600›C/20.0(K/min)/800›C

##Temp./›C,Time/min,DSC/(mW/mg),Mass/%,Gas Flow(purge2)/(ml/min),Gas Flow(protective)/(ml/min),TIC(scan:1)/A,Sensit./(uV/mW),Segment
 32.97400, 0.00000,      0.53789,100,50.00000,48.00000,            ,0.92408,1
 33.55300, 0.80000,      0.28419, 89.92250,50.00000,48.00000,3.605760e-09,0.92411,1
 34.15400, 1.60000,      0.22824, 90.33550,50.00000,48.00000,3.610169e-09,0.92415,1
 34.69000, 2.40000,      0.18447, 90.32700,50.00000,48.00000,3.616332e-09,0.92418,1
 35.25700, 3.20000,      0.19518, 90.02150,50.00000,48.00000,3.625559e-09,0.92422,1
 36.17300, 4.00000,      0.32203, 90.20525,50.00000,48.00000,3.628229e-09,0.92426,1
 37.64600, 4.80000,      0.53955, 90.51075,50.00000,48.00000,3.634978e-09,0.92430,1
 39.67900, 5.60000,      0.79940, 91.10475,50.00000,48.00000,3.636223e-09,0.92433,1
 42.33700, 6.40000,      1.06566, 91.65625,50.00000,48.00000,3.640775e-09,0.92436,1
 45.55900, 7.20000,      1.32927, 92.33225,50.00000,48.00000,3.643151e-09,0.92439,1
 49.27000, 8.00000,      1.57608, 92.85550,50.00000,48.00000,3.650992e-09,0.92443,1
 53.41300, 8.80000,      1.79570, 93.34200,50.00000,48.00000,3.653656e-09,0.92447,1
 57.89000, 9.60000,      1.99199, 93.80300,50.00000,48.00000,3.652885e-09,0.92453,1
 62.61600,10.40000,      2.15478, 94.14250,50.00000,48.00000,3.656364e-09,0.92460,1
 67.47100,11.20000,      2.28108, 94.41950,50.00000,48.00000,3.659838e-09,0.92467,1
 72.42900,12.00000,      2.37383, 94.66850,50.00000,48.00000,3.661503e-09,0.92476,1
 77.39200,12.80000,      2.43756, 94.81550,50.00000,48.00000,3.659577e-09,0.92486,1
 82.33600,13.60000,      2.47309, 94.98525,50.00000,48.00000,3.662951e-09,0.92497,1
 87.21800,14.40000,      2.49168, 95.07000,50.00000,48.00000,3.657645e-09,0.92509,1
 92.06300,15.20000,      2.49495, 95.14650,50.00000,48.00000,3.665818e-09,0.92521,1
 96.68600,15.98333,      2.48378, 95.19750,50.00000,48.00000,3.659977e-09,0.92534,2
 99.97900,16.58333,      2.38276, 94.98525,50.00000,48.00000,3.668169e-09,0.92542,2
102.514,17.18333,      2.00498, 94.38275,50.00000,48.00000,3.667290e-09,0.92552,2
104.286,17.78333,      1.55359, 93.79725,50.00000,48.00000,3.673692e-09,0.92560,2
105.659,18.38333,      1.20845, 93.38450,50.00000,48.00000,3.671600e-09,0.92569,2
106.708,18.98333,      0.95715, 92.98550,50.00000,48.00000,3.673063e-09,0.92579,2
107.49,19.58333,      0.73511, 92.64050,50.00000,48.00000,3.669236e-09,0.92585,2
107.929,20.18333,      0.50772, 92.25875,50.00000,48.00000,3.667429e-09,0.92593,2
108.095,20.78333,      0.29684, 91.86275,50.00000,48.00000,3.675624e-09,0.92601,2
108.109,20.97833,      0.23332, 91.76100,50.00000,48.00000,3.670716e-09,0.92602,3
108.096,21.03833,      0.21277, 91.76100,50.00000,48.00000,3.670716e-09,0.92602,3
108.082,21.09833,      0.19865, 91.70725,50.00000,48.00000,3.676334e-09,0.92604,3
108.099,21.15833,      0.18786, 91.69875,50.00000,48.00000,3.676334e-09,0.92604,3
108.112,21.21833,      0.18329, 91.71575,50.00000,48.00000,3.676334e-09,0.92604,3
108.137,21.27833,      0.18828, 91.77500,50.00000,48.00000,3.667027e-09,0.92606,3
108.196,21.33833,      0.20427, 91.85150,50.00000,48.00000,3.667027e-09,0.92606,3
108.234,21.39833,      0.23146, 91.97300,50.00000,48.00000,3.667027e-09,0.92606,3
108.359,21.45833,      0.27299, 92.13425,50.00000,48.00000,3.673756e-09,0.92607,3
108.468,21.51833,      0.32739, 92.33500,50.00000,48.00000,3.673756e-09,0.92607,3
108.622,21.57833,      0.39925, 92.53875,50.00000,48.00000,3.673756e-09,0.92607,3
108.827,21.63833,      0.48378, 92.68875,50.00000,48.00000,3.673194e-09,0.92608,3
109.042,21.69833,      0.58701, 92.96875,50.00000,48.00000,3.673194e-09,0.92608,3
109.303,21.75833,      0.70584, 93.20625,50.00000,48.00000,3.676200e-09,0.92610,3
109.568,21.81833,      0.83736, 93.48625,50.00000,48.00000,3.676200e-09,0.92610,3
109.922,21.87833,      0.98202, 93.71825,50.00000,48.00000,3.676200e-09,0.92610,3
110.28,21.93833,      1.14105, 93.99825,50.00000,48.00000,3.672403e-09,0.92611,3
110.667,21.99833,      1.31031, 94.27825,50.00000,48.00000,3.672403e-09,0.92611,3
111.113,22.05833,      1.48983, 94.52425,50.00000,48.00000,3.672403e-09,0.92611,3
111.588,22.11833,      1.67960, 94.83250,50.00000,48.00000,3.669298e-09,0.92612,3
112.093,22.17833,      1.87277, 95.05600,50.00000,48.00000,3.669298e-09,0.92612,3
112.63,22.23833,      2.07353, 95.31325,50.00000,48.00000,3.669298e-09,0.92612,3
113.176,22.29833,      2.27520, 95.57925,50.00000,48.00000,3.669507e-09,0.92613,3
113.793,22.35833,      2.47930, 95.80550,50.00000,48.00000,3.669507e-09,0.92613,3
114.399,22.41833,      2.68370, 96.02050,50.00000,48.00000,3.673460e-09,0.92614,3
115.051,22.47833,      2.88761, 96.22400,50.00000,48.00000,3.673460e-09,0.92614,3
115.708,22.53833,      3.08684, 96.47300,50.00000,48.00000,3.673460e-09,0.92614,3
116.393,22.59833,      3.28309, 96.65400,50.00000,48.00000,3.671383e-09,0.92615,3
117.091,22.65833,      3.47592, 96.84925,50.00000,48.00000,3.671383e-09,0.92615,3
117.807,22.71833,      3.66139, 97.01325,50.00000,48.00000,3.671383e-09,0.92615,3
118.535,22.77833,      3.83949, 97.17450,50.00000,48.00000,3.673962e-09,0.92616,3
119.286,22.83833,      4.01232, 97.33275,50.00000,48.00000,3.673962e-09,0.92616,3
120.042,22.89833,      4.17755, 97.48550,50.00000,48.00000,3.673962e-09,0.92616,3
120.82,22.95833,      4.33668, 97.64400,50.00000,48.00000,3.673710e-09,0.92617,3
121.583,23.01833,      4.48776, 97.71750,50.00000,48.00000,3.673710e-09,0.92617,3
122.378,23.07833,      4.63087, 97.87575,50.00000,48.00000,3.674817e-09,0.92618,3
123.171,23.13833,      4.76740, 97.97775,50.00000,48.00000,3.674817e-09,0.92618,3
123.978,23.19833,      4.89947, 98.04825,50.00000,48.00000,3.674817e-09,0.92618,3
124.785,23.25833,      5.02497, 98.18125,50.00000,48.00000,3.668089e-09,0.92618,3
125.613,23.31833,      5.14351, 98.24925,50.00000,48.00000,3.668089e-09,0.92618,3
126.431,23.37833,      5.25795, 98.37075,50.00000,48.00000,3.668089e-09,0.92618,3
127.278,23.43833,      5.37026, 98.47550,50.00000,48.00000,3.666236e-09,0.92619,3
128.109,23.49833,      5.47720, 98.57725,50.00000,48.00000,3.666236e-09,0.92619,3
128.976,23.55833,      5.58181, 98.65650,50.00000,48.00000,3.666236e-09,0.92619,3
129.846,23.61833,      5.68507, 98.77800,50.00000,48.00000,3.669826e-09,0.92619,3
130.726,23.67833,      5.78595, 98.85150,50.00000,48.00000,3.669826e-09,0.92619,3
131.614,23.73833,      5.88423, 98.94775,50.00000,48.00000,3.669826e-09,0.92619,3
132.517,23.79833,      5.98602, 99.03825,50.00000,48.00000,3.671676e-09,0.92620,3
133.441,23.85833,      6.08692, 99.14850,50.00000,48.00000,3.671676e-09,0.92620,3
134.364,23.91833,      6.18836, 99.27575,50.00000,48.00000,3.668759e-09,0.92620,3
135.317,23.97833,      6.29336, 99.35800,50.00000,48.00000,3.668759e-09,0.92620,3
136.269,24.03833,      6.40017, 99.49650,50.00000,48.00000,3.668759e-09,0.92620,3
137.245,24.09833,      6.50845, 99.58700,50.00000,48.00000,3.671042e-09,0.92620,3
138.238,24.15833,      6.61880, 99.67475,50.00000,48.00000,3.671042e-09,0.92620,3
139.24,24.21833,      6.73186, 99.79900,50.00000,48.00000,3.671042e-09,0.92620,3
140.265,24.27833,      6.84872, 99.90100,50.00000,48.00000,3.675698e-09,0.92620,3
141.304,24.33833,      6.96853, 99.98575,50.00000,48.00000,3.675698e-09,0.92620,3
142.368,24.39833,      7.08986,100.088,50.00000,48.00000,3.675698e-09,0.92620,3
143.448,24.45833,      7.21438,100.24,50.00000,48.00000,3.669180e-09,0.92620,3
144.538,24.51833,      7.34186,100.339,50.00000,48.00000,3.669180e-09,0.92620,3
145.649,24.57833,      7.47173,100.447,50.00000,48.00000,3.660590e-09,0.92620,3
146.785,24.63833,      7.60297,100.529,50.00000,48.00000,3.660590e-09,0.92620,3
147.931,24.69833,      7.73699,100.681,50.00000,48.00000,3.660590e-09,0.92620,3
149.088,24.75833,      7.87234,100.775,50.00000,48.00000,3.672013e-09,0.92620,3
150.272,24.81833,      8.00699,100.865,50.00000,48.00000,3.672013e-09,0.92620,3
151.458,24.87833,      8.14568,100.998,50.00000,48.00000,3.672013e-09,0.92620,3
152.669,24.93833,      8.28073,101.086,50.00000,48.00000,3.671182e-09,0.92619,3
153.891,24.99833,      8.41861,101.154,50.00000,48.00000,3.671182e-09,0.92619,3
155.127,25.05833,      8.55344,101.21,50.00000,48.00000,3.671182e-09,0.92619,3
156.373,25.11833,      8.68922,101.332,50.00000,48.00000,3.671519e-09,0.92619,3
157.635,25.17833,      8.82089,101.42,50.00000,48.00000,3.671519e-09,0.92619,3
158.906,25.23833,      8.95458,101.507,50.00000,48.00000,3.674969e-09,0.92619,3
160.181,25.29833,      9.08495,101.553,50.00000,48.00000,3.674969e-09,0.92619,3
161.487,25.35833,      9.21067,101.624,50.00000,48.00000,3.674969e-09,0.92619,3
162.771,25.41833,      9.33506,101.66,50.00000,48.00000,3.676296e-09,0.92618,3
164.093,25.47833,      9.45845,101.734,50.00000,48.00000,3.676296e-09,0.92618,3
165.404,25.53833,      9.57823,101.813,50.00000,48.00000,3.676296e-09,0.92618,3
166.72,25.59833,      9.69340,101.87,50.00000,48.00000,3.677012e-09,0.92617,3
168.079,25.65833,      9.80549,101.949,50.00000,48.00000,3.677012e-09,0.92617,3
169.393,25.71833,      9.91694,102.002,50.00000,48.00000,3.672689e-09,0.92616,3
170.75,25.77833,     10.02423,102.036,50.00000,48.00000,3.672689e-09,0.92616,3
172.098,25.83833,     10.12768,102.07,50.00000,48.00000,3.672689e-09,0.92616,3
173.474,25.89833,     10.22773,102.124,50.00000,48.00000,3.670012e-09,0.92616,3
174.846,25.95833,     10.32438,102.178,50.00000,48.00000,3.670012e-09,0.92616,3
176.201,26.01833,     10.42032,102.249,50.00000,48.00000,3.670012e-09,0.92616,3
177.584,26.07833,     10.51157,102.282,50.00000,48.00000,3.666960e-09,0.92615,3
178.965,26.13833,     10.60136,102.316,50.00000,48.00000,3.666960e-09,0.92615,3
180.348,26.19833,     10.68647,102.316,50.00000,48.00000,3.666960e-09,0.92615,3
181.754,26.25833,     10.76964,102.35,50.00000,48.00000,3.668700e-09,0.92613,3
183.143,26.31833,     10.85187,102.384,50.00000,48.00000,3.668700e-09,0.92613,3
184.545,26.37833,     10.92970,102.418,50.00000,48.00000,3.676446e-09,0.92612,3
185.96,26.43833,     11.00659,102.418,50.00000,48.00000,3.676446e-09,0.92612,3
187.361,26.49833,     11.08016,102.452,50.00000,48.00000,3.676446e-09,0.92612,3
188.785,26.55833,     11.15396,102.486,50.00000,48.00000,3.668068e-09,0.92611,3
190.2,26.61833,     11.22533,102.523,50.00000,48.00000,3.668068e-09,0.92611,3
191.629,26.67833,     11.29359,102.523,50.00000,48.00000,3.668068e-09,0.92611,3
193.067,26.73833,     11.36109,102.557,50.00000,48.00000,3.673273e-09,0.92609,3
194.489,26.79833,     11.42631,102.594,50.00000,48.00000,3.673273e-09,0.92609,3
195.94,26.85833,     11.48941,102.627,50.00000,48.00000,3.673273e-09,0.92609,3
197.366,26.91833,     11.54990,102.602,50.00000,48.00000,3.668865e-09,0.92608,3
198.798,26.97833,     11.61331,102.619,50.00000,48.00000,3.668865e-09,0.92608,3
200.254,27.03833,     11.66974,102.636,50.00000,48.00000,3.666214e-09,0.92606,3
201.695,27.09833,     11.72911,102.673,50.00000,48.00000,3.666214e-09,0.92606,3
203.14,27.15833,     11.78503,102.673,50.00000,48.00000,3.666214e-09,0.92606,3
204.593,27.21833,     11.83950,102.681,50.00000,48.00000,3.675956e-09,0.92605,3
206.05,27.27833,     11.89182,102.681,50.00000,48.00000,3.675956e-09,0.92605,3
207.507,27.33833,     11.94084,102.681,50.00000,48.00000,3.675956e-09,0.92605,3
208.965,27.39833,     11.99163,102.681,50.00000,48.00000,3.668997e-09,0.92603,3
210.431,27.45833,     12.03677,102.681,50.00000,48.00000,3.668997e-09,0.92603,3
211.88,27.51833,     12.08238,102.681,50.00000,48.00000,3.668997e-09,0.92603,3
213.335,27.57833,     12.12582,102.681,50.00000,48.00000,3.674976e-09,0.92601,3
214.784,27.63833,     12.16719,102.681,50.00000,48.00000,3.674976e-09,0.92601,3
216.254,27.69833,     12.20411,102.681,50.00000,48.00000,3.668760e-09,0.92599,3
217.702,27.75833,     12.24319,102.681,50.00000,48.00000,3.668760e-09,0.92599,3
219.168,27.81833,     12.27755,102.681,50.00000,48.00000,3.668760e-09,0.92599,3
220.633,27.87833,     12.31141,102.647,50.00000,48.00000,3.672361e-09,0.92597,3
222.076,27.93833,     12.34454,102.647,50.00000,48.00000,3.672361e-09,0.92597,3
223.547,27.99833,     12.37325,102.613,50.00000,48.00000,3.672361e-09,0.92597,3
224.991,28.05833,     12.40248,102.613,50.00000,48.00000,3.671080e-09,0.92594,3
226.444,28.11833,     12.42863,102.579,50.00000,48.00000,3.671080e-09,0.92594,3
227.911,28.17833,     12.45105,102.579,50.00000,48.00000,3.673081e-09,0.92592,3
229.348,28.23833,     12.47418,102.546,50.00000,48.00000,3.673081e-09,0.92592,3
230.802,28.29833,     12.49292,102.546,50.00000,48.00000,3.673081e-09,0.92592,3
232.258,28.35833,     12.51183,102.511,50.00000,48.00000,3.673950e-09,0.92589,3
233.701,28.41833,     12.52936,102.478,50.00000,48.00000,3.673950e-09,0.92589,3
235.156,28.47833,     12.54378,102.478,50.00000,48.00000,3.673950e-09,0.92589,3
236.59,28.53833,     12.55648,102.407,50.00000,48.00000,3.674701e-09,0.92587,3
238.035,28.59833,     12.56876,102.362,50.00000,48.00000,3.674701e-09,0.92587,3
239.484,28.65833,     12.57915,102.328,50.00000,48.00000,3.674701e-09,0.92587,3
240.91,28.71833,     12.58528,102.302,50.00000,48.00000,3.670781e-09,0.92584,3
242.351,28.77833,     12.59259,102.268,50.00000,48.00000,3.670781e-09,0.92584,3
243.782,28.83833,     12.59828,102.198,50.00000,48.00000,3.671926e-09,0.92581,3
245.22,28.89833,     12.60073,102.163,50.00000,48.00000,3.671926e-09,0.92581,3
246.648,28.95833,     12.60496,102.127,50.00000,48.00000,3.671926e-09,0.92581,3
248.08,29.01833,     12.60383,102.05,50.00000,48.00000,3.673008e-09,0.92578,3
249.495,29.07833,     12.60439,102.014,50.00000,48.00000,3.673008e-09,0.92578,3
250.927,29.13833,     12.60431,101.977,50.00000,48.00000,3.673008e-09,0.92578,3
252.337,29.19833,     12.59873,101.918,50.00000,48.00000,3.678344e-09,0.92575,3
253.76,29.25833,     12.59660,101.87,50.00000,48.00000,3.678344e-09,0.92575,3
255.184,29.31833,     12.59223,101.833,50.00000,48.00000,3.678344e-09,0.92575,3
256.579,29.37833,     12.58406,101.759,50.00000,48.00000,3.674916e-09,0.92572,3
257.988,29.43833,     12.57797,101.725,50.00000,48.00000,3.674916e-09,0.92572,3
259.396,29.49833,     12.56890,101.66,50.00000,48.00000,3.681806e-09,0.92569,3
260.801,29.55833,     12.55727,101.615,50.00000,48.00000,3.681806e-09,0.92569,3
262.2,29.61833,     12.54791,101.57,50.00000,48.00000,3.681806e-09,0.92569,3
263.591,29.67833,     12.53824,101.474,50.00000,48.00000,3.676365e-09,0.92566,3
264.989,29.73833,     12.52659,101.428,50.00000,48.00000,3.676365e-09,0.92566,3
266.379,29.79833,     12.51415,101.341,50.00000,48.00000,3.676365e-09,0.92566,3
267.779,29.85833,     12.50000,101.245,50.00000,48.00000,3.667622e-09,0.92562,3
269.159,29.91833,     12.48512,101.188,50.00000,48.00000,3.667622e-09,0.92562,3
270.528,29.97833,     12.47244,101.117,50.00000,48.00000,3.667622e-09,0.92562,3
271.919,30.03833,     12.45561,101.035,50.00000,48.00000,3.677584e-09,0.92559,3
273.298,30.09833,     12.44190,100.956,50.00000,48.00000,3.677584e-09,0.92559,3
274.667,30.15833,     12.42783,100.888,50.00000,48.00000,3.672228e-09,0.92555,3
276.041,30.21833,     12.41147,100.792,50.00000,48.00000,3.672228e-09,0.92555,3
277.404,30.27833,     12.39448,100.701,50.00000,48.00000,3.672228e-09,0.92555,3
278.766,30.33833,     12.37298,100.619,50.00000,48.00000,3.673374e-09,0.92551,3
280.135,30.39833,     12.35652,100.585,50.00000,48.00000,3.673374e-09,0.92551,3
281.49,30.45833,     12.33915,100.512,50.00000,48.00000,3.673374e-09,0.92551,3
282.842,30.51833,     12.32078,100.421,50.00000,48.00000,3.671683e-09,0.92547,3
284.205,30.57833,     12.30302,100.283,50.00000,48.00000,3.671683e-09,0.92547,3
285.541,30.63833,     12.28439,100.198,50.00000,48.00000,3.676403e-09,0.92543,3
286.891,30.69833,     12.26307,100.073,50.00000,48.00000,3.676403e-09,0.92543,3
288.226,30.75833,     12.24366, 99.96325,50.00000,48.00000,3.676403e-09,0.92543,3
289.566,30.81833,     12.22286, 99.90375,50.00000,48.00000,3.671442e-09,0.92539,3
290.911,30.87833,     12.20594, 99.76525,50.00000,48.00000,3.671442e-09,0.92539,3
292.241,30.93833,     12.18374, 99.65200,50.00000,48.00000,3.671442e-09,0.92539,3
293.574,30.99833,     12.16203, 99.54450,50.00000,48.00000,3.668540e-09,0.92535,3
294.888,31.05833,     12.14218, 99.45975,50.00000,48.00000,3.668540e-09,0.92535,3
296.225,31.11833,     12.12094, 99.33800,50.00000,48.00000,3.668540e-09,0.92535,3
297.539,31.17833,     12.10030, 99.20800,50.00000,48.00000,3.666741e-09,0.92531,3
298.871,31.23833,     12.08133, 99.11175,50.00000,48.00000,3.666741e-09,0.92531,3
300.19,31.29833,     12.05924, 98.99875,50.00000,48.00000,3.673855e-09,0.92527,3
301.499,31.35833,     12.04206, 98.82625,50.00000,48.00000,3.673855e-09,0.92527,3
302.801,31.41833,     12.02062, 98.69325,50.00000,48.00000,3.673855e-09,0.92527,3
304.116,31.47833,     11.99859, 98.54050,50.00000,48.00000,3.669890e-09,0.92522,3
305.417,31.53833,     11.97973, 98.41900,50.00000,48.00000,3.669890e-09,0.92522,3
306.714,31.59833,     11.96078, 98.27175,50.00000,48.00000,3.669890e-09,0.92522,3
308.032,31.65833,     11.94062, 98.15875,50.00000,48.00000,3.672363e-09,0.92517,3
309.33,31.71833,     11.92479, 97.94650,50.00000,48.00000,3.672363e-09,0.92517,3
310.623,31.77833,     11.90591, 97.78250,50.00000,48.00000,3.672363e-09,0.92517,3
311.915,31.83833,     11.88796, 97.65250,50.00000,48.00000,3.668999e-09,0.92513,3
313.203,31.89833,     11.86819, 97.49400,50.00000,48.00000,3.668999e-09,0.92513,3
314.494,31.95833,     11.85039, 97.25075,50.00000,48.00000,3.671549e-09,0.92508,3
315.782,32.01833,     11.83523, 97.07550,50.00000,48.00000,3.671549e-09,0.92508,3
317.064,32.07833,     11.81921, 96.90850,50.00000,48.00000,3.671549e-09,0.92508,3
318.347,32.13833,     11.80540, 96.71050,50.00000,48.00000,3.676363e-09,0.92503,3
319.639,32.19833,     11.78722, 96.49550,50.00000,48.00000,3.676363e-09,0.92503,3
320.909,32.25833,     11.77414, 96.26925,50.00000,48.00000,3.676363e-09,0.92503,3
322.18,32.31833,     11.76081, 96.05725,50.00000,48.00000,3.674701e-09,0.92498,3
323.459,32.37833,     11.74407, 95.83650,50.00000,48.00000,3.674701e-09,0.92498,3
324.722,32.43833,     11.73180, 95.62725,50.00000,48.00000,3.674701e-09,0.92498,3
326.003,32.49833,     11.72026, 95.36425,50.00000,48.00000,3.676939e-09,0.92493,3
327.256,32.55833,     11.70979, 95.11250,50.00000,48.00000,3.676939e-09,0.92493,3
328.519,32.61833,     11.70045, 94.84950,50.00000,48.00000,3.673862e-09,0.92488,3
329.782,32.67833,     11.68908, 94.61750,50.00000,48.00000,3.673862e-09,0.92488,3
331.04,32.73833,     11.68037, 94.34325,50.00000,48.00000,3.673862e-09,0.92488,3
332.296,32.79833,     11.66885, 94.06600,50.00000,48.00000,3.676700e-09,0.92483,3
333.562,32.85833,     11.66122, 93.76050,50.00000,48.00000,3.676700e-09,0.92483,3
334.823,32.91833,     11.65048, 93.50875,50.00000,48.00000,3.676700e-09,0.92483,3
336.063,32.97833,     11.64167, 93.20350,50.00000,48.00000,3.670402e-09,0.92477,3
337.305,33.03833,     11.63337, 92.89225,50.00000,48.00000,3.670402e-09,0.92477,3
338.567,33.09833,     11.62383, 92.62925,50.00000,48.00000,3.670402e-09,0.92477,3
339.806,33.15833,     11.61545, 92.30675,50.00000,48.00000,3.664077e-09,0.92472,3
341.046,33.21833,     11.60629, 91.99850,50.00000,48.00000,3.664077e-09,0.92472,3
342.296,33.27833,     11.59802, 91.67900,50.00000,48.00000,3.678508e-09,0.92466,3
343.541,33.33833,     11.59118, 91.33100,50.00000,48.00000,3.678508e-09,0.92466,3
344.776,33.39833,     11.58213, 91.01700,50.00000,48.00000,3.678508e-09,0.92466,3
345.998,33.45833,     11.57286, 90.66075,50.00000,48.00000,3.673975e-09,0.92461,3
347.247,33.51833,     11.56601, 90.31575,50.00000,48.00000,3.673975e-09,0.92461,3
348.489,33.57833,     11.55801, 89.98200,50.00000,48.00000,3.673975e-09,0.92461,3
349.72,33.63833,     11.55188, 89.64250,50.00000,48.00000,3.671636e-09,0.92455,3
350.95,33.69833,     11.54519, 89.26925,50.00000,48.00000,3.671636e-09,0.92455,3
352.179,33.75833,     11.53925, 88.93550,50.00000,48.00000,3.665590e-09,0.92449,3
353.41,33.81833,     11.53512, 88.53375,50.00000,48.00000,3.665590e-09,0.92449,3
354.633,33.87833,     11.52930, 88.15475,50.00000,48.00000,3.665590e-09,0.92449,3
355.853,33.93833,     11.52628, 87.77875,50.00000,48.00000,3.671865e-09,0.92443,3
357.082,33.99833,     11.53170, 87.37975,50.00000,48.00000,3.671865e-09,0.92443,3
358.31,34.05833,     11.53034, 86.98950,50.00000,48.00000,3.671865e-09,0.92443,3
359.532,34.11833,     11.53175, 86.53975,50.00000,48.00000,3.665702e-09,0.92437,3
360.752,34.17833,     11.52999, 86.15800,50.00000,48.00000,3.665702e-09,0.92437,3
361.969,34.23833,     11.52556, 85.70275,50.00000,48.00000,3.665702e-09,0.92437,3
363.19,34.29833,     11.52484, 85.26700,50.00000,48.00000,3.662593e-09,0.92431,3
364.404,34.35833,     11.52610, 84.80600,50.00000,48.00000,3.662593e-09,0.92431,3
365.613,34.41833,     11.52571, 84.38450,50.00000,48.00000,3.668454e-09,0.92424,3
366.84,34.47833,     11.52953, 83.88675,50.00000,48.00000,3.668454e-09,0.92424,3
368.048,34.53833,     11.53412, 83.34375,50.00000,48.00000,3.668454e-09,0.92424,3
369.26,34.59833,     11.53587, 82.86300,50.00000,48.00000,3.664129e-09,0.92418,3
370.473,34.65833,     11.53948, 82.38500,50.00000,48.00000,3.664129e-09,0.92418,3
371.669,34.71833,     11.54151, 81.84475,50.00000,48.00000,3.664129e-09,0.92418,3
372.888,34.77833,     11.54813, 81.30450,50.00000,48.00000,3.664300e-09,0.92412,3
374.108,34.83833,     11.55212, 80.73600,50.00000,48.00000,3.664300e-09,0.92412,3
375.304,34.89833,     11.55841, 80.18450,50.00000,48.00000,3.668565e-09,0.92405,3
376.513,34.95833,     11.56383, 79.59900,50.00000,48.00000,3.668565e-09,0.92405,3
377.723,35.01833,     11.57302, 79.02200,50.00000,48.00000,3.668565e-09,0.92405,3
378.929,35.07833,     11.58136, 78.36875,50.00000,48.00000,3.669780e-09,0.92399,3
380.134,35.13833,     11.59291, 77.76900,50.00000,48.00000,3.669780e-09,0.92399,3
381.344,35.19833,     11.60161, 77.07900,50.00000,48.00000,3.669780e-09,0.92399,3
382.537,35.25833,     11.61114, 76.44550,50.00000,48.00000,3.675879e-09,0.92392,3
383.742,35.31833,     11.62517, 75.72425,50.00000,48.00000,3.675879e-09,0.92392,3
384.956,35.37833,     11.63695, 75.03400,50.00000,48.00000,3.675879e-09,0.92392,3
386.152,35.43833,     11.64847, 74.24775,50.00000,48.00000,3.670317e-09,0.92385,3
387.347,35.49833,     11.66540, 73.50950,50.00000,48.00000,3.670317e-09,0.92385,3
388.546,35.55833,     11.68054, 72.73175,50.00000,48.00000,3.678177e-09,0.92378,3
389.739,35.61833,     11.69561, 72.02475,50.00000,48.00000,3.678177e-09,0.92378,3
390.931,35.67833,     11.71179, 71.21025,50.00000,48.00000,3.678177e-09,0.92378,3
392.128,35.73833,     11.72862, 70.42100,50.00000,48.00000,3.680667e-09,0.92371,3
393.335,35.79833,     11.74701, 69.51875,50.00000,48.00000,3.680667e-09,0.92371,3
394.524,35.85833,     11.76652, 68.71275,50.00000,48.00000,3.680667e-09,0.92371,3
395.719,35.91833,     11.78671, 67.78225,50.00000,48.00000,3.672805e-09,0.92364,3
396.926,35.97833,     11.80467, 66.93925,50.00000,48.00000,3.672805e-09,0.92364,3
398.123,36.03833,     11.82553, 65.96075,50.00000,48.00000,3.672805e-09,0.92364,3
399.307,36.09833,     11.84623, 65.06425,50.00000,48.00000,3.674735e-09,0.92357,3
400.504,36.15833,     11.86552, 64.04025,50.00000,48.00000,3.674735e-09,0.92357,3
401.711,36.21833,     11.88529, 63.08425,50.00000,48.00000,3.665560e-09,0.92350,3
402.902,36.27833,     11.90512, 62.02650,50.00000,48.00000,3.665560e-09,0.92350,3
404.098,36.33833,     11.92340, 61.04800,50.00000,48.00000,3.665560e-09,0.92350,3
405.301,36.39833,     11.94045, 59.93350,50.00000,48.00000,3.664042e-09,0.92342,3
406.476,36.45833,     11.95735, 58.89000,50.00000,48.00000,3.664042e-09,0.92342,3
407.689,36.51833,     11.97545, 57.83200,50.00000,48.00000,3.664042e-09,0.92342,3
408.874,36.57833,     11.99201, 56.78000,50.00000,48.00000,3.679128e-09,0.92335,3
410.078,36.63833,     12.00696, 55.60625,50.00000,48.00000,3.679128e-09,0.92335,3
411.266,36.69833,     12.02083, 54.52000,50.00000,48.00000,3.679128e-09,0.92335,3
412.442,36.75833,     12.03284, 53.28700,50.00000,48.00000,3.680712e-09,0.92327,3
413.639,36.81833,     12.04660, 52.18950,50.00000,48.00000,3.680712e-09,0.92327,3
414.837,36.87833,     12.05394, 51.03000,50.00000,48.00000,3.674103e-09,0.92320,3
416.032,36.93833,     12.06262, 49.84775,50.00000,48.00000,3.674103e-09,0.92320,3
417.225,36.99833,     12.06761, 48.65125,50.00000,48.00000,3.674103e-09,0.92320,3
418.402,37.05833,     12.07176, 47.49175,50.00000,48.00000,3.673404e-09,0.92312,3
419.6,37.11833,     12.07086, 46.17650,50.00000,48.00000,3.673404e-09,0.92312,3
420.78,37.17833,     12.06964, 45.02250,50.00000,48.00000,3.673404e-09,0.92312,3
421.972,37.23833,     12.06829, 43.74400,50.00000,48.00000,3.674286e-09,0.92305,3
423.158,37.29833,     12.06681, 42.57325,50.00000,48.00000,3.674286e-09,0.92305,3
424.344,37.35833,     12.05960, 41.30050,50.00000,48.00000,3.673312e-09,0.92296,3
425.532,37.41833,     12.05351, 40.13500,50.00000,48.00000,3.673312e-09,0.92296,3
426.727,37.47833,     12.04377, 38.85400,50.00000,48.00000,3.673312e-09,0.92296,3
427.911,37.53833,     12.03065, 37.67725,50.00000,48.00000,3.658861e-09,0.92289,3
429.105,37.59833,     12.01760, 36.44975,50.00000,48.00000,3.658861e-09,0.92289,3
430.285,37.65833,     12.00368, 35.27325,50.00000,48.00000,3.658861e-09,0.92289,3
431.477,37.71833,     11.98730, 34.07675,50.00000,48.00000,3.676230e-09,0.92281,3
432.668,37.77833,     11.96735, 32.96250,50.00000,48.00000,3.676230e-09,0.92281,3
433.849,37.83833,     11.94369, 31.70675,50.00000,48.00000,3.676230e-09,0.92281,3
435.032,37.89833,     11.91908, 30.58950,50.00000,48.00000,3.668756e-09,0.92272,3
436.211,37.95833,     11.88967, 29.45250,50.00000,48.00000,3.668756e-09,0.92272,3
437.398,38.01833,     11.85911, 28.40325,50.00000,48.00000,3.678530e-09,0.92265,3
438.582,38.07833,     11.82546, 27.29150,50.00000,48.00000,3.678530e-09,0.92265,3
439.781,38.13833,     11.79103, 26.23375,50.00000,48.00000,3.678530e-09,0.92265,3
440.958,38.19833,     11.75319, 25.20700,50.00000,48.00000,3.666574e-09,0.92256,3
442.142,38.25833,     11.71094, 24.25950,50.00000,48.00000,3.666574e-09,0.92256,3
443.336,38.31833,     11.66751, 23.29225,50.00000,48.00000,3.666574e-09,0.92256,3
444.515,38.37833,     11.61958, 22.38150,50.00000,48.00000,3.671007e-09,0.92248,3
445.703,38.43833,     11.57042, 21.45675,50.00000,48.00000,3.671007e-09,0.92248,3
446.902,38.49833,     11.52007, 20.68750,50.00000,48.00000,3.671007e-09,0.92248,3
448.078,38.55833,     11.46240, 19.81050,50.00000,48.00000,3.675594e-09,0.92240,3
449.257,38.61833,     11.40456, 19.11775,50.00000,48.00000,3.675594e-09,0.92240,3
450.44,38.67833,     11.34893, 18.34275,50.00000,48.00000,3.675594e-09,0.92240,3
451.631,38.73833,     11.28493, 17.72325,50.00000,48.00000,3.671131e-09,0.92231,3
452.814,38.79833,     11.21820, 17.05300,50.00000,48.00000,3.671131e-09,0.92231,3
453.991,38.85833,     11.15499, 16.45325,50.00000,48.00000,3.669578e-09,0.92223,3
455.191,38.91833,     11.08981, 15.89625,50.00000,48.00000,3.669578e-09,0.92223,3
456.37,38.97833,     11.02228, 15.42950,50.00000,48.00000,3.669578e-09,0.92223,3
457.551,39.03833,     10.95900, 14.93450,50.00000,48.00000,3.666887e-09,0.92214,3
458.736,39.09833,     10.89285, 14.51875,50.00000,48.00000,3.666887e-09,0.92214,3
459.918,39.15833,     10.82104, 14.17375,50.00000,48.00000,3.666887e-09,0.92214,3
461.107,39.21833,     10.75774, 13.83725,50.00000,48.00000,3.663212e-09,0.92205,3
462.299,39.27833,     10.68706, 13.57125,50.00000,48.00000,3.663212e-09,0.92205,3
463.471,39.33833,     10.62392, 13.30550,50.00000,48.00000,3.663212e-09,0.92205,3
464.657,39.39833,     10.56255, 13.13300,50.00000,48.00000,3.664037e-09,0.92197,3
465.844,39.45833,     10.50156, 12.95175,50.00000,48.00000,3.664037e-09,0.92197,3
467.028,39.51833,     10.44693, 12.81050,50.00000,48.00000,3.667341e-09,0.92188,3
468.218,39.57833,     10.39096, 12.66350,50.00000,48.00000,3.667341e-09,0.92188,3
469.385,39.63833,     10.33749, 12.58125,50.00000,48.00000,3.667341e-09,0.92188,3
470.582,39.69833,     10.28694, 12.54175,50.00000,48.00000,3.669061e-09,0.92181,3
471.758,39.75833,     10.23925, 12.50775,50.00000,48.00000,3.669061e-09,0.92181,3
472.946,39.81833,     10.19426, 12.47400,50.00000,48.00000,3.669061e-09,0.92181,3
474.125,39.87833,     10.15079, 12.46550,50.00000,48.00000,3.676284e-09,0.92175,3
475.312,39.93833,     10.11031, 12.44000,50.00000,48.00000,3.676284e-09,0.92175,3
476.499,39.99833,     10.07484, 12.44000,50.00000,48.00000,3.676284e-09,0.92175,3
477.675,40.05833,     10.04152, 12.44000,50.00000,48.00000,3.665467e-09,0.92168,3
478.866,40.11833,     10.00918, 12.44000,50.00000,48.00000,3.665467e-09,0.92168,3
480.063,40.17833,      9.97861, 12.44000,50.00000,48.00000,3.670420e-09,0.92161,3
481.244,40.23833,      9.95168, 12.44000,50.00000,48.00000,3.670420e-09,0.92161,3
482.436,40.29833,      9.92232, 12.40600,50.00000,48.00000,3.670420e-09,0.92161,3
483.601,40.35833,      9.89278, 12.40600,50.00000,48.00000,3.671381e-09,0.92155,3
484.781,40.41833,      9.86392, 12.43150,50.00000,48.00000,3.671381e-09,0.92155,3
485.972,40.47833,      9.83755, 12.43150,50.00000,48.00000,3.671381e-09,0.92155,3
487.161,40.53833,      9.81598, 12.43150,50.00000,48.00000,3.671521e-09,0.92148,3
488.334,40.59833,      9.79472, 12.43150,50.00000,48.00000,3.671521e-09,0.92148,3
489.524,40.65833,      9.76798, 12.39750,50.00000,48.00000,3.671521e-09,0.92148,3
490.699,40.71833,      9.74186, 12.40600,50.00000,48.00000,3.669795e-09,0.92141,3
491.887,40.77833,      9.71827, 12.43150,50.00000,48.00000,3.669795e-09,0.92141,3
493.07,40.83833,      9.69856, 12.43150,50.00000,48.00000,3.675189e-09,0.92134,3
494.263,40.89833,      9.67638, 12.46550,50.00000,48.00000,3.675189e-09,0.92134,3
495.45,40.95833,      9.65308, 12.43150,50.00000,48.00000,3.675189e-09,0.92134,3
496.618,41.01833,      9.62692, 12.43150,50.00000,48.00000,3.667038e-09,0.92128,3
497.809,41.07833,      9.60406, 12.43150,50.00000,48.00000,3.667038e-09,0.92128,3
498.997,41.13833,      9.58042, 12.43150,50.00000,48.00000,3.667038e-09,0.92128,3
500.176,41.19833,      9.56317, 12.46550,50.00000,48.00000,3.673162e-09,0.92122,3
501.347,41.25833,      9.53816, 12.46550,50.00000,48.00000,3.673162e-09,0.92122,3
502.535,41.31833,      9.51862, 12.46550,50.00000,48.00000,3.673162e-09,0.92122,3
503.716,41.37833,      9.49382, 12.46550,50.00000,48.00000,3.663706e-09,0.92115,3
504.898,41.43833,      9.47367, 12.46550,50.00000,48.00000,3.663706e-09,0.92115,3
506.087,41.49833,      9.45319, 12.46550,50.00000,48.00000,3.668283e-09,0.92109,3
507.262,41.55833,      9.42894, 12.46550,50.00000,48.00000,3.668283e-09,0.92109,3
508.439,41.61833,      9.40810, 12.50225,50.00000,48.00000,3.668283e-09,0.92109,3
509.628,41.67833,      9.38412, 12.54175,50.00000,48.00000,3.672471e-09,0.92103,3
510.811,41.73833,      9.36409, 12.50775,50.00000,48.00000,3.672471e-09,0.92103,3
511.994,41.79833,      9.33790, 12.50775,50.00000,48.00000,3.672471e-09,0.92103,3
513.177,41.85833,      9.31702, 12.50775,50.00000,48.00000,3.669199e-09,0.92097,3
514.361,41.91833,      9.29669, 12.50775,50.00000,48.00000,3.669199e-09,0.92097,3
515.559,41.97833,      9.27417, 12.50775,50.00000,48.00000,3.669199e-09,0.92097,3
516.719,42.03833,      9.25464, 12.50775,50.00000,48.00000,3.674687e-09,0.92091,3
517.911,42.09833,      9.22991, 12.50775,50.00000,48.00000,3.674687e-09,0.92091,3
519.086,42.15833,      9.21099, 12.54175,50.00000,48.00000,3.675353e-09,0.92085,3
520.265,42.21833,      9.18718, 12.54175,50.00000,48.00000,3.675353e-09,0.92085,3
521.457,42.27833,      9.16372, 12.54175,50.00000,48.00000,3.675353e-09,0.92085,3
522.646,42.33833,      9.14304, 12.54175,50.00000,48.00000,3.666462e-09,0.92080,3
523.828,42.39833,      9.12217, 12.54175,50.00000,48.00000,3.666462e-09,0.92080,3
525.017,42.45833,      9.10420, 12.57575,50.00000,48.00000,3.666462e-09,0.92080,3
526.194,42.51833,      9.08080, 12.57575,50.00000,48.00000,3.670679e-09,0.92074,3
527.383,42.57833,      9.06100, 12.57575,50.00000,48.00000,3.670679e-09,0.92074,3
528.566,42.63833,      9.03908, 12.60975,50.00000,48.00000,3.670679e-09,0.92074,3
529.753,42.69833,      9.01677, 12.60975,50.00000,48.00000,3.668966e-09,0.92069,3
530.939,42.75833,      8.99663, 12.60975,50.00000,48.00000,3.668966e-09,0.92069,3
532.118,42.81833,      8.97271, 12.60975,50.00000,48.00000,3.668898e-09,0.92064,3
533.306,42.87833,      8.95436, 12.64350,50.00000,48.00000,3.668898e-09,0.92064,3
534.492,42.93833,      8.92898, 12.64350,50.00000,48.00000,3.668898e-09,0.92064,3
535.686,42.99833,      8.90852, 12.64350,50.00000,48.00000,3.665164e-09,0.92058,3
536.872,43.05833,      8.88523, 12.64350,50.00000,48.00000,3.665164e-09,0.92058,3
538.057,43.11833,      8.86380, 12.67750,50.00000,48.00000,3.665164e-09,0.92058,3
539.262,43.17833,      8.84050, 12.67750,50.00000,48.00000,3.671260e-09,0.92054,3
540.437,43.23833,      8.81809, 12.67750,50.00000,48.00000,3.671260e-09,0.92054,3
541.624,43.29833,      8.79504, 12.67750,50.00000,48.00000,3.671260e-09,0.92054,3
542.813,43.35833,      8.76825, 12.69450,50.00000,48.00000,3.676288e-09,0.92048,3
544.004,43.41833,      8.74402, 12.70300,50.00000,48.00000,3.676288e-09,0.92048,3
545.185,43.47833,      8.72224, 12.70300,50.00000,48.00000,3.670234e-09,0.92044,3
546.38,43.53833,      8.69784, 12.71150,50.00000,48.00000,3.670234e-09,0.92044,3
547.557,43.59833,      8.67447, 12.71150,50.00000,48.00000,3.670234e-09,0.92044,3
548.758,43.65833,      8.64656, 12.71150,50.00000,48.00000,3.666961e-09,0.92039,3
549.936,43.71833,      8.62298, 12.74550,50.00000,48.00000,3.666961e-09,0.92039,3
551.138,43.77833,      8.59786, 12.74550,50.00000,48.00000,3.666961e-09,0.92039,3
552.319,43.83833,      8.57678, 12.71150,50.00000,48.00000,3.670596e-09,0.92034,3
553.519,43.89833,      8.55310, 12.71150,50.00000,48.00000,3.670596e-09,0.92034,3
554.708,43.95833,      8.52786, 12.74550,50.00000,48.00000,3.670596e-09,0.92034,3
555.899,44.01833,      8.50286, 12.74550,50.00000,48.00000,3.667423e-09,0.92030,3
557.098,44.07833,      8.47817, 12.74550,50.00000,48.00000,3.667423e-09,0.92030,3
558.282,44.13833,      8.45152, 12.74550,50.00000,48.00000,3.665981e-09,0.92026,3
559.467,44.19833,      8.42883, 12.77925,50.00000,48.00000,3.665981e-09,0.92026,3
560.661,44.25833,      8.40308, 12.77925,50.00000,48.00000,3.665981e-09,0.92026,3
561.863,44.31833,      8.37865, 12.77925,50.00000,48.00000,3.668877e-09,0.92022,3
563.051,44.37833,      8.35024, 12.81325,50.00000,48.00000,3.668877e-09,0.92022,3
564.239,44.43833,      8.32545, 12.81325,50.00000,48.00000,3.668877e-09,0.92022,3
565.433,44.49833,      8.29788, 12.81325,50.00000,48.00000,3.672815e-09,0.92018,3
566.63,44.55833,      8.26920, 12.79625,50.00000,48.00000,3.672815e-09,0.92018,3
567.826,44.61833,      8.24620, 12.79625,50.00000,48.00000,3.672815e-09,0.92018,3
569.018,44.67833,      8.21724, 12.79625,50.00000,48.00000,3.671729e-09,0.92014,3
570.21,44.73833,      8.18747, 12.79625,50.00000,48.00000,3.671729e-09,0.92014,3
571.405,44.79833,      8.16002, 12.83025,50.00000,48.00000,3.660415e-09,0.92010,3
572.597,44.85833,      8.12761, 12.83025,50.00000,48.00000,3.660415e-09,0.92010,3
573.788,44.91833,      8.10297, 12.83025,50.00000,48.00000,3.660415e-09,0.92010,3
574.99,44.97833,      8.07248, 12.83025,50.00000,48.00000,3.670586e-09,0.92006,3
576.191,45.03833,      8.04426, 12.86425,50.00000,48.00000,3.670586e-09,0.92006,3
577.37,45.09833,      8.01504, 12.86425,50.00000,48.00000,3.670586e-09,0.92006,3
578.566,45.15833,      7.98620, 12.86425,50.00000,48.00000,3.664176e-09,0.92002,3
579.762,45.21833,      7.96106, 12.89825,50.00000,48.00000,3.664176e-09,0.92002,3
580.956,45.27833,      7.92850, 12.89825,50.00000,48.00000,3.664176e-09,0.92002,3
582.153,45.33833,      7.90037, 12.89825,50.00000,48.00000,3.670163e-09,0.91999,3
583.346,45.39833,      7.86860, 12.89825,50.00000,48.00000,3.670163e-09,0.91999,3
584.546,45.45833,      7.84269, 12.89825,50.00000,48.00000,3.659240e-09,0.91995,3
585.743,45.51833,      7.80968, 12.89825,50.00000,48.00000,3.659240e-09,0.91995,3
586.943,45.57833,      7.78180, 12.89825,50.00000,48.00000,3.659240e-09,0.91995,3
588.138,45.63833,      7.75097, 12.90650,50.00000,48.00000,3.672619e-09,0.91992,3
589.318,45.69833,      7.71744, 12.93200,50.00000,48.00000,3.672619e-09,0.91992,3
590.53,45.75833,      7.68826, 12.94900,50.00000,48.00000,3.672619e-09,0.91992,3
591.73,45.81833,      7.65465, 12.94900,50.00000,48.00000,3.670548e-09,0.91988,3
592.92,45.87833,      7.62681, 12.94900,50.00000,48.00000,3.670548e-09,0.91988,3
594.119,45.93833,      7.59155, 12.94900,50.00000,48.00000,3.670548e-09,0.91988,4
595.304,45.99833,      7.56167, 12.94900,50.00000,48.00000,3.664466e-09,0.91985,4
596.505,46.05833,      7.52864, 12.94900,50.00000,48.00000,3.664466e-09,0.91985,4
597.697,46.11833,      7.49117, 12.94900,50.00000,48.00000,3.666365e-09,0.91982,4
598.89,46.17833,      7.45676, 12.94900,50.00000,48.00000,3.666365e-09,0.91982,4
600.093,46.23833,      7.41734, 12.96600,50.00000,48.00000,3.666365e-09,0.91982,4
601.264,46.29833,      7.38072, 12.96600,50.00000,48.00000,3.669387e-09,0.91978,4
602.468,46.35833,      7.34388, 12.96600,50.00000,48.00000,3.669387e-09,0.91978,4
603.657,46.41833,      7.31000, 12.96600,50.00000,48.00000,3.669387e-09,0.91978,4
604.86,46.47833,      7.27325, 12.96600,50.00000,48.00000,3.671717e-09,0.91975,4
606.058,46.53833,      7.24311, 12.97450,50.00000,48.00000,3.671717e-09,0.91975,4
607.25,46.59833,      7.20960, 13.00000,50.00000,48.00000,3.671717e-09,0.91975,4
608.448,46.65833,      7.17494, 13.00000,50.00000,48.00000,3.661417e-09,0.91972,4
609.655,46.71833,      7.14740, 13.00000,50.00000,48.00000,3.661417e-09,0.91972,4
610.844,46.77833,      7.11602, 13.00000,50.00000,48.00000,3.672250e-09,0.91969,4
612.042,46.83833,      7.08460, 13.03400,50.00000,48.00000,3.672250e-09,0.91969,4
613.242,46.89833,      7.05164, 13.03400,50.00000,48.00000,3.672250e-09,0.91969,4
614.448,46.95833,      7.02042, 13.03400,50.00000,48.00000,3.665043e-09,0.91966,4
615.642,47.01833,      6.98862, 13.00850,50.00000,48.00000,3.665043e-09,0.91966,4
616.85,47.07833,      6.95321, 13.00850,50.00000,48.00000,3.665043e-09,0.91966,4
618.043,47.13833,      6.91902, 13.00850,50.00000,48.00000,3.669171e-09,0.91963,4
619.243,47.19833,      6.88222, 13.04250,50.00000,48.00000,3.669171e-09,0.91963,4
620.444,47.25833,      6.84422, 13.04250,50.00000,48.00000,3.669171e-09,0.91963,4
621.64,47.31833,      6.80933, 13.04250,50.00000,48.00000,3.673066e-09,0.91960,4
622.839,47.37833,      6.76924, 13.04250,50.00000,48.00000,3.673066e-09,0.91960,4
624.046,47.43833,      6.73273, 13.04250,50.00000,48.00000,3.664830e-09,0.91957,4
625.245,47.49833,      6.69348, 13.04250,50.00000,48.00000,3.664830e-09,0.91957,4
626.436,47.55833,      6.65369, 13.07625,50.00000,48.00000,3.664830e-09,0.91957,4
627.643,47.61833,      6.61388, 13.07625,50.00000,48.00000,3.672701e-09,0.91954,4
628.835,47.67833,      6.57530, 13.04250,50.00000,48.00000,3.672701e-09,0.91954,4
630.039,47.73833,      6.53521, 13.04250,50.00000,48.00000,3.672701e-09,0.91954,4
631.238,47.79833,      6.49423, 13.04250,50.00000,48.00000,3.665772e-09,0.91952,4
632.436,47.85833,      6.45421, 13.06775,50.00000,48.00000,3.665772e-09,0.91952,4
633.626,47.91833,      6.41474, 13.07625,50.00000,48.00000,3.665772e-09,0.91952,4
634.836,47.97833,      6.37455, 13.11025,50.00000,48.00000,3.669354e-09,0.91949,4
636.045,48.03833,      6.33239, 13.11025,50.00000,48.00000,3.669354e-09,0.91949,4
637.237,48.09833,      6.29035, 13.11025,50.00000,48.00000,3.672972e-09,0.91946,4
638.433,48.15833,      6.24894, 13.09325,50.00000,48.00000,3.672972e-09,0.91946,4
639.634,48.21833,      6.20301, 13.09325,50.00000,48.00000,3.672972e-09,0.91946,4
640.827,48.27833,      6.16206, 13.10175,50.00000,48.00000,3.667239e-09,0.91943,4
642.045,48.33833,      6.11633, 13.12725,50.00000,48.00000,3.667239e-09,0.91943,4
643.239,48.39833,      6.07254, 13.12725,50.00000,48.00000,3.667239e-09,0.91943,4
644.438,48.45833,      6.03200, 13.09325,50.00000,48.00000,3.667697e-09,0.91941,4
645.636,48.51833,      5.99020, 13.12725,50.00000,48.00000,3.667697e-09,0.91941,4
646.85,48.57833,      5.94540, 13.13575,50.00000,48.00000,3.667697e-09,0.91941,4
648.041,48.63833,      5.90406, 13.16125,50.00000,48.00000,3.672969e-09,0.91938,4
649.251,48.69833,      5.85972, 13.16125,50.00000,48.00000,3.672969e-09,0.91938,4
650.449,48.75833,      5.81406, 13.16125,50.00000,48.00000,3.666493e-09,0.91936,4
651.652,48.81833,      5.77129, 13.16125,50.00000,48.00000,3.666493e-09,0.91936,4
652.858,48.87833,      5.72503, 13.16125,50.00000,48.00000,3.666493e-09,0.91936,4
654.065,48.93833,      5.67378, 13.16125,50.00000,48.00000,3.671636e-09,0.91933,4
655.256,48.99833,      5.62604, 13.16125,50.00000,48.00000,3.671636e-09,0.91933,4
656.458,49.05833,      5.58011, 13.16125,50.00000,48.00000,3.671636e-09,0.91933,4
657.665,49.11833,      5.53032, 13.16125,50.00000,48.00000,3.662392e-09,0.91931,4
658.864,49.17833,      5.48486, 13.16125,50.00000,48.00000,3.662392e-09,0.91931,4
660.08,49.23833,      5.43068, 13.16125,50.00000,48.00000,3.668329e-09,0.91929,4
661.273,49.29833,      5.38077, 13.16125,50.00000,48.00000,3.668329e-09,0.91929,4
662.472,49.35833,      5.33453, 13.16125,50.00000,48.00000,3.668329e-09,0.91929,4
663.679,49.41833,      5.28253, 13.16125,50.00000,48.00000,3.659309e-09,0.91927,4
664.879,49.47833,      5.22997, 13.16125,50.00000,48.00000,3.659309e-09,0.91927,4
666.092,49.53833,      5.17847, 13.19500,50.00000,48.00000,3.659309e-09,0.91927,4
667.278,49.59833,      5.12594, 13.19500,50.00000,48.00000,3.666076e-09,0.91925,4
668.489,49.65833,      5.07833, 13.23200,50.00000,48.00000,3.666076e-09,0.91925,4
669.68,49.71833,      5.02440, 13.23200,50.00000,48.00000,3.666076e-09,0.91925,4
670.898,49.77833,      4.97008, 13.19800,50.00000,48.00000,3.661654e-09,0.91922,4
672.104,49.83833,      4.91861, 13.23200,50.00000,48.00000,3.661654e-09,0.91922,4
673.302,49.89833,      4.86888, 13.23200,50.00000,48.00000,3.668310e-09,0.91920,4
674.502,49.95833,      4.81405, 13.23200,50.00000,48.00000,3.668310e-09,0.91920,4
675.713,50.01833,      4.75912, 13.23200,50.00000,48.00000,3.668310e-09,0.91920,4
676.92,50.07833,      4.70442, 13.23200,50.00000,48.00000,3.657241e-09,0.91918,4
678.128,50.13833,      4.64689, 13.23200,50.00000,48.00000,3.657241e-09,0.91918,4
679.327,50.19833,      4.58995, 13.23200,50.00000,48.00000,3.657241e-09,0.91918,4
680.523,50.25833,      4.53169, 13.23200,50.00000,48.00000,3.666170e-09,0.91916,4
681.73,50.31833,      4.47487, 13.23200,50.00000,48.00000,3.666170e-09,0.91916,4
682.939,50.37833,      4.41444, 13.23200,50.00000,48.00000,3.666170e-09,0.91916,4
684.139,50.43833,      4.35652, 13.23200,50.00000,48.00000,3.669799e-09,0.91914,4
685.348,50.49833,      4.29965, 13.23200,50.00000,48.00000,3.669799e-09,0.91914,4
686.54,50.55833,      4.24335, 13.23200,50.00000,48.00000,3.670916e-09,0.91912,4
687.755,50.61833,      4.18041, 13.25725,50.00000,48.00000,3.670916e-09,0.91912,4
688.957,50.67833,      4.12037, 13.25725,50.00000,48.00000,3.670916e-09,0.91912,4
690.164,50.73833,      4.06174, 13.25725,50.00000,48.00000,3.661889e-09,0.91910,4
691.365,50.79833,      3.99868, 13.25725,50.00000,48.00000,3.661889e-09,0.91910,4
692.568,50.85833,      3.93936, 13.22350,50.00000,48.00000,3.661889e-09,0.91910,4
693.772,50.91833,      3.87989, 13.22350,50.00000,48.00000,3.662376e-09,0.91909,4
694.982,50.97833,      3.81601, 13.26025,50.00000,48.00000,3.662376e-09,0.91909,4
696.185,51.03833,      3.75469, 13.26025,50.00000,49.00000,3.662376e-09,0.91909,4
697.386,51.09833,      3.68813, 13.29400,50.00000,49.00000,3.656387e-09,0.91907,4
698.587,51.15833,      3.62806, 13.32800,50.00000,49.00000,3.656387e-09,0.91907,4
699.795,51.21833,      3.56512, 13.36200,50.00000,49.00000,3.667288e-09,0.91905,4
700.996,51.27833,      3.49927, 13.36200,50.00000,49.00000,3.667288e-09,0.91905,4
702.215,51.33833,      3.43999, 13.36200,50.00000,49.00000,3.667288e-09,0.91905,4
703.416,51.39833,      3.37422, 13.38750,50.00000,49.00000,3.665369e-09,0.91904,4
704.624,51.45833,      3.30714, 13.38750,50.00000,49.00000,3.665369e-09,0.91904,4
705.837,51.51833,      3.24977, 13.38750,50.00000,49.00000,3.665369e-09,0.91904,4
707.045,51.57833,      3.18159, 13.35075,50.00000,48.00000,3.662161e-09,0.91902,4
708.253,51.63833,      3.12036, 13.31675,50.00000,48.00000,3.662161e-09,0.91902,4
709.456,51.69833,      3.05067, 13.31675,50.00000,49.00000,3.662161e-09,0.91902,4
710.656,51.75833,      2.98675, 13.35350,50.00000,49.00000,3.665184e-09,0.91901,4
711.877,51.81833,      2.91679, 13.38750,50.00000,49.00000,3.665184e-09,0.91901,4
713.084,51.87833,      2.85218, 13.38750,50.00000,49.00000,3.659634e-09,0.91900,4
714.283,51.93833,      2.78780, 13.38750,50.00000,49.00000,3.659634e-09,0.91900,4
715.495,51.99833,      2.71615, 13.35350,50.00000,49.00000,3.659634e-09,0.91900,4
716.696,52.05833,      2.64710, 13.35350,50.00000,49.00000,3.661606e-09,0.91898,4
717.912,52.11833,      2.57633, 13.35350,50.00000,49.00000,3.661606e-09,0.91898,4
719.113,52.17833,      2.50536, 13.38750,50.00000,49.00000,3.661606e-09,0.91898,4
720.328,52.23833,      2.43945, 13.38750,50.00000,49.00000,3.658439e-09,0.91897,4
721.537,52.29833,      2.36938, 13.38750,50.00000,49.00000,3.658439e-09,0.91897,4
722.738,52.35833,      2.29673, 13.38750,50.00000,49.00000,3.658439e-09,0.91897,4
723.954,52.41833,      2.22555, 13.38750,50.00000,49.00000,3.662874e-09,0.91896,4
725.166,52.47833,      2.15701, 13.39600,50.00000,49.00000,3.662874e-09,0.91896,4
726.374,52.53833,      2.08590, 13.39600,50.00000,49.00000,3.658938e-09,0.91895,4
727.577,52.59833,      2.01502, 13.39600,50.00000,49.00000,3.658938e-09,0.91895,4
728.789,52.65833,      1.94079, 13.39600,50.00000,49.00000,3.658938e-09,0.91895,4
729.988,52.71833,      1.86072, 13.39600,50.00000,49.00000,3.656093e-09,0.91893,4
731.197,52.77833,      1.79662, 13.42150,50.00000,49.00000,3.656093e-09,0.91893,4
732.411,52.83833,      1.72310, 13.42150,50.00000,49.00000,3.656093e-09,0.91893,4
733.608,52.89833,      1.65061, 13.42150,50.00000,49.00000,3.658018e-09,0.91893,4
734.823,52.95833,      1.57677, 13.42150,50.00000,49.00000,3.658018e-09,0.91893,4
736.028,53.01833,      1.50437, 13.42150,50.00000,49.00000,3.658018e-09,0.91893,4
737.237,53.07833,      1.43384, 13.42150,50.00000,49.00000,3.657296e-09,0.91892,4
738.437,53.13833,      1.35827, 13.42150,50.00000,49.00000,3.657296e-09,0.91892,4
739.654,53.19833,      1.28460, 13.42150,50.00000,49.00000,3.659609e-09,0.91891,4
740.869,53.25833,      1.21523, 13.42150,50.00000,49.00000,3.659609e-09,0.91891,4
742.067,53.31833,      1.13917, 13.42150,50.00000,49.00000,3.659609e-09,0.91891,4
743.276,53.37833,      1.06908, 13.42150,50.00000,49.00000,3.661853e-09,0.91890,4
744.489,53.43833,      0.99271, 13.45525,50.00000,49.00000,3.661853e-09,0.91890,4
745.7,53.49833,      0.92189, 13.42150,50.00000,49.00000,3.661853e-09,0.91890,4
746.91,53.55833,      0.85011, 13.45525,50.00000,49.00000,3.666186e-09,0.91889,4
748.113,53.61833,      0.77775, 13.45525,50.00000,49.00000,3.666186e-09,0.91889,4
749.322,53.67833,      0.70114, 13.45525,50.00000,49.00000,3.666186e-09,0.91889,4
750.536,53.73833,      0.62805, 13.45525,50.00000,49.00000,3.657332e-09,0.91889,4
751.73,53.79833,      0.55727, 13.45525,50.00000,49.00000,3.657332e-09,0.91889,4
752.94,53.85833,      0.48264, 13.48925,50.00000,49.00000,3.660816e-09,0.91888,4
754.157,53.91833,      0.40990, 13.45525,50.00000,49.00000,3.660816e-09,0.91888,4
755.363,53.97833,      0.33454, 13.45525,50.00000,49.00000,3.660816e-09,0.91888,4
756.567,54.03833,      0.26231, 13.48925,50.00000,49.00000,3.659932e-09,0.91888,4
757.774,54.09833,      0.18373, 13.45250,50.00000,49.00000,3.659932e-09,0.91888,4
758.986,54.15833,      0.11201, 13.45250,50.00000,49.00000,3.659932e-09,0.91888,4
760.191,54.21833, 3.765242e-02, 13.45250,50.00000,49.00000,3.657687e-09,0.91887,4
761.4,54.27833,-3.437925e-02, 13.46100,50.00000,49.00000,3.657687e-09,0.91887,4
762.606,54.33833,     -0.10449, 13.46950,50.00000,49.00000,3.657687e-09,0.91887,4
763.813,54.39833,     -0.18181, 13.45250,50.00000,49.00000,3.648614e-09,0.91886,4
765.02,54.45833,     -0.25681, 13.48650,50.00000,49.00000,3.648614e-09,0.91886,4
766.237,54.51833,     -0.32406, 13.48650,50.00000,49.00000,3.658218e-09,0.91886,4
767.431,54.57833,     -0.39936, 13.48650,50.00000,49.00000,3.658218e-09,0.91886,4
768.647,54.63833,     -0.46774, 13.48650,50.00000,49.00000,3.658218e-09,0.91886,4
769.845,54.69833,     -0.54002, 13.48650,50.00000,49.00000,3.649107e-09,0.91886,4
771.059,54.75833,     -0.61664, 13.48650,50.00000,49.00000,3.649107e-09,0.91886,4
772.26,54.81833,     -0.68673, 13.48650,50.00000,49.00000,3.649107e-09,0.91886,4
773.468,54.87833,     -0.76115, 13.48650,50.00000,49.00000,3.656680e-09,0.91885,4
774.671,54.93833,     -0.83112, 13.48650,50.00000,49.00000,3.656680e-09,0.91885,4
775.871,54.99833,     -0.89537, 13.50350,50.00000,49.00000,3.656680e-09,0.91885,4
777.086,55.05833,     -0.97824, 13.52025,50.00000,49.00000,3.658683e-09,0.91885,4
778.292,55.11833,     -1.05161, 13.52025,50.00000,49.00000,3.658683e-09,0.91885,4
779.501,55.17833,     -1.11294, 13.52025,50.00000,49.00000,3.657136e-09,0.91885,4
780.712,55.23833,     -1.18325, 13.51200,50.00000,49.00000,3.657136e-09,0.91885,4
781.921,55.29833,     -1.25328, 13.48650,50.00000,49.00000,3.657136e-09,0.91885,4
783.128,55.35833,     -1.32009, 13.50350,50.00000,49.00000,3.653457e-09,0.91885,4
784.331,55.41833,     -1.39380, 13.50350,50.00000,49.00000,3.653457e-09,0.91885,4
785.55,55.47833,     -1.46599, 13.50350,50.00000,49.00000,3.653457e-09,0.91885,4
786.762,55.53833,     -1.53452, 13.50350,50.00000,49.00000,3.656588e-09,0.91885,4
787.963,55.59833,     -1.60360, 13.50350,50.00000,49.00000,3.656588e-09,0.91885,4
789.172,55.65833,     -1.67964, 13.52025,50.00000,49.00000,3.656588e-09,0.91885,4
790.374,55.71833,     -1.75243, 13.52025,50.00000,49.00000,3.656829e-09,0.91885,4
791.592,55.77833,     -1.81306, 13.55425,50.00000,49.00000,            ,0.44826,4
792.801,55.83833,     -1.89298, 13.55425,50.00000,49.00000,            ,0.44777,4
794.008,55.89833,     -1.98586, 13.52025,50.00000,49.00000,            ,0.44729,4
794.703,55.93333,     -2.00715, 13.52025,50.00000,49.00000,            ,0.44701,4