File: data/TGA/ps_scf3_flynn_ozawa_wall/1K/ExpDat_2025_11_13_SL_PSSCF3_005f_J3_5K_min.csv
#EXPORTTYPE:                 ,DATA ALL
#FILE:                       ,2025_11_13_SL_PSSCF3_005f_J3_5K_min.ngb-ss5
#FORMAT:                     ,NETZSCH5
#FTYPE:                      ,ASCII
#IDENTITY:                   ,005F-J3
#DECIMAL:                    ,POINT
#SEPARATOR:                  ,COMMA
#MTYPE:                      ,DSC
#INSTRUMENT:                 ,NETZSCH STA 449F5
#PROJECT:                    ,PS
#DATE/TIME:                  ,11/13/2025 5:00:49 PM (UTC-5)
#CORR. FILE:                 ,
#TEMPCAL:                    ,05-05-2025 14:38
#SENSITIVITY:                ,28-06-2023 13:53
#LABORATORY:                 ,Tran/AAG
#OPERATOR:                   ,Stan
#REMARK:                     ,
#SAMPLE:                     ,005F-J3
#SAMPLE MASS /mg:            ,4.0
#MATERIAL:                   ,
#REFERENCE:                  ,
#REFERENCE MASS /mg:         ,0
#TYPE OF CRUCIBLE:           ,Al2O3 85 ‘l, open
#SAMPLE CRUCIBLE MASS /mg:   ,0
#REFERENCE CRUCIBLE MASS /mg:,0
#DSC RANGE /‘V:              ,5000
#TG RANGE /mg:               ,35000
#TAU-R:                      ,---
#CORR. CODE:                 ,000
#EXO:                        ,-1
#RANGE:                      ,20›C....800›C/0.0....20.0K/min
#SEGMENT:                    ,S1-4/4
#SEG. 1:                     ,20›C/5.0(K/min)/100›C
#SEG. 2:                     ,100›C/00:05/100›C
#SEG. 3:                     ,100›C/5.0(K/min)/600›C
#SEG. 4:                     ,600›C/20.0(K/min)/800›C

##Temp./›C,Time/min,DSC/(mW/mg),Mass/%,Gas Flow(purge2)/(ml/min),Gas Flow(protective)/(ml/min),TIC(scan:1)/A,Sensit./(uV/mW),Segment
 25.30000,  0.00000,      1.03326,    100,50.00000,56.00000,            ,0.92261,1
 30.51600,  1.13333,      0.81506,     97.34975,50.00000,53.00000,3.577185e-09,0.92319,1
 33.04000,  2.26667,      0.41879,     85.78475,50.00000,51.00000,3.585409e-09,0.92353,1
 34.50900,  3.40000,      0.24102,     85.89500,50.00000,51.00000,3.578996e-09,0.92375,1
 36.21200,  4.53333,      0.31604,     85.96275,50.00000,51.00000,3.590983e-09,0.92394,1
 38.97800,  5.66667,      0.54955,     86.40700,50.00000,51.00000,3.607334e-09,0.92409,1
 42.85300,  6.80000,      0.80755,     86.91600,50.00000,51.00000,3.609753e-09,0.92420,1
 47.79600,  7.93333,      1.06243,     87.51850,50.00000,51.00000,3.613206e-09,0.92428,1
 53.65900,  9.06667,      1.29049,     88.11250,50.00000,51.00000,3.610280e-09,0.92437,1
 60.16600, 10.20000,      1.48149,     88.62725,50.00000,51.00000,3.616579e-09,0.92446,1
 67.11000, 11.33333,      1.63363,     89.01175,50.00000,51.00000,3.614892e-09,0.92458,1
 74.21200, 12.46667,      1.73699,     89.29475,50.00000,51.00000,3.627528e-09,0.92472,1
 81.29400, 13.60000,      1.79815,     89.47275,50.00000,51.00000,3.613456e-09,0.92488,1
 88.36800, 14.73333,      1.83297,     89.60300,50.00000,51.00000,3.630238e-09,0.92505,1
 95.26500, 15.86667,      1.84585,     89.59450,50.00000,51.00000,3.621794e-09,0.92524,1
100.188, 16.75000,      1.72328,     89.30875,50.00000,51.00000,3.620160e-09,0.92537,2
103.356, 17.60000,      1.25510,     88.44625,50.00000,51.00000,3.629997e-09,0.92550,2
105.458, 18.45000,      0.88067,     87.82400,50.00000,51.00000,3.627719e-09,0.92563,2
106.934, 19.30000,      0.63829,     87.30350,50.00000,51.00000,3.628824e-09,0.92575,2
107.78, 20.15000,      0.39872,     86.75200,50.00000,51.00000,3.632122e-09,0.92586,2
108.005, 21.00000,      0.18142,     86.24850,50.00000,51.00000,3.631041e-09,0.92598,2
108.011, 21.22667,      0.13451,     86.07025,50.00000,51.00000,3.636270e-09,0.92600,3
108.021, 21.45333,      0.11126,     86.02800,50.00000,51.00000,3.625475e-09,0.92602,3
108.069, 21.68000,      0.12372,     86.06175,50.00000,51.00000,3.633016e-09,0.92605,3
108.231, 21.90667,      0.17334,     86.17225,50.00000,51.00000,3.631057e-09,0.92606,3
108.477, 22.13333,      0.25224,     86.30800,50.00000,51.00000,3.633507e-09,0.92608,3
108.81, 22.36000,      0.34736,     86.44650,50.00000,51.00000,3.636066e-09,0.92611,3
109.199, 22.58667,      0.44750,     86.58800,50.00000,51.00000,3.634265e-09,0.92612,3
109.647, 22.81333,      0.54081,     86.68975,50.00000,51.00000,3.631494e-09,0.92613,3
110.125, 23.04000,      0.62191,     86.79150,50.00000,51.00000,3.634464e-09,0.92615,3
110.658, 23.26667,      0.68995,     86.89325,50.00000,51.00000,3.631525e-09,0.92616,3
111.209, 23.49333,      0.74764,     86.96125,50.00000,51.00000,3.631479e-09,0.92617,3
111.762, 23.72000,      0.80015,     86.99525,50.00000,51.00000,3.634317e-09,0.92618,3
112.356, 23.94667,      0.84812,     87.09125,50.00000,51.00000,3.641708e-09,0.92619,3
112.998, 24.17333,      0.89593,     87.17050,50.00000,51.00000,3.630046e-09,0.92620,3
113.656, 24.40000,      0.95062,     87.24125,50.00000,51.00000,3.631326e-09,0.92620,3
114.371, 24.62667,      1.00619,     87.34300,50.00000,51.00000,3.632413e-09,0.92620,3
115.132, 24.85333,      1.06952,     87.45350,50.00000,51.00000,3.638765e-09,0.92620,3
115.932, 25.08000,      1.13268,     87.57225,50.00000,51.00000,3.639537e-09,0.92620,3
116.764, 25.30667,      1.19841,     87.65125,50.00000,51.00000,3.635616e-09,0.92620,3
117.653, 25.53333,      1.26462,     87.79550,50.00000,51.00000,3.629786e-09,0.92619,3
118.584, 25.76000,      1.32819,     87.89750,50.00000,51.00000,3.632208e-09,0.92619,3
119.546, 25.98667,      1.38871,     87.99925,50.00000,51.00000,3.633999e-09,0.92617,3
120.538, 26.21333,      1.44637,     88.07550,50.00000,51.00000,3.626487e-09,0.92616,3
121.563, 26.44000,      1.50223,     88.20300,50.00000,51.00000,3.635647e-09,0.92616,3
122.598, 26.66667,      1.55169,     88.27075,50.00000,51.00000,3.632843e-09,0.92613,3
123.672, 26.89333,      1.60143,     88.34150,50.00000,51.00000,3.633206e-09,0.92612,3
124.766, 27.12000,      1.64769,     88.40925,50.00000,51.00000,3.630247e-09,0.92611,3
125.881, 27.34667,      1.68941,     88.47725,50.00000,51.00000,3.629016e-09,0.92608,3
127.006, 27.57333,      1.73204,     88.58475,50.00000,51.00000,3.631133e-09,0.92606,3
128.162, 27.80000,      1.77265,     88.62725,50.00000,51.00000,3.626416e-09,0.92604,3
129.348, 28.02667,      1.81166,     88.72050,50.00000,51.00000,3.638531e-09,0.92601,3
130.543, 28.25333,      1.84781,     88.78825,50.00000,51.00000,3.632418e-09,0.92598,3
131.745, 28.48000,      1.88339,     88.85625,50.00000,51.00000,3.628560e-09,0.92596,3
132.966, 28.70667,      1.91338,     88.89025,50.00000,51.00000,3.627815e-09,0.92592,3
134.189, 28.93333,      1.94405,     88.95800,50.00000,51.00000,3.631167e-09,0.92589,3
135.441, 29.16000,      1.97081,     88.99200,50.00000,51.00000,3.627471e-09,0.92584,3
136.699, 29.38667,      1.99762,     89.06000,50.00000,51.00000,3.632902e-09,0.92581,3
137.949, 29.61333,      2.01944,     89.06000,50.00000,51.00000,3.630815e-09,0.92578,3
139.223, 29.84000,      2.04090,     89.16175,50.00000,51.00000,3.631309e-09,0.92572,3
140.488, 30.06667,      2.06030,     89.19575,50.00000,51.00000,3.631011e-09,0.92568,3
141.777, 30.29333,      2.07745,     89.22950,50.00000,51.00000,3.636470e-09,0.92565,3
143.043, 30.52000,      2.09398,     89.29175,50.00000,51.00000,3.629268e-09,0.92558,3
144.316, 30.74667,      2.10529,     89.29475,50.00000,51.00000,3.623208e-09,0.92554,3
145.585, 30.97333,      2.11874,     89.36525,50.00000,51.00000,3.635635e-09,0.92550,3
146.864, 31.20000,      2.12695,     89.36525,50.00000,51.00000,3.630445e-09,0.92542,3
148.139, 31.42667,      2.13647,     89.39925,50.00000,51.00000,3.639559e-09,0.92538,3
149.413, 31.65333,      2.14516,     89.43325,50.00000,51.00000,3.641200e-09,0.92529,3
150.695, 31.88000,      2.15242,     89.43325,50.00000,51.00000,3.639290e-09,0.92525,3
151.96, 32.10667,      2.15650,     89.44175,50.00000,51.00000,3.630682e-09,0.92521,3
153.241, 32.33333,      2.16212,     89.50100,50.00000,51.00000,3.634227e-09,0.92511,3
154.506, 32.56000,      2.16668,     89.50100,50.00000,51.00000,3.633732e-09,0.92506,3
155.78, 32.78667,      2.16979,     89.53500,50.00000,51.00000,3.637235e-09,0.92501,3
157.035, 33.01333,      2.17205,     89.53500,50.00000,51.00000,3.628092e-09,0.92491,3
158.293, 33.24000,      2.17199,     89.56900,50.00000,51.00000,3.637474e-09,0.92486,3
159.524, 33.46667,      2.17235,     89.56900,50.00000,51.00000,3.626369e-09,0.92475,3
160.776, 33.69333,      2.17189,     89.57750,50.00000,51.00000,3.636248e-09,0.92469,3
162.002, 33.92000,      2.17078,     89.61150,50.00000,51.00000,3.637476e-09,0.92464,3
163.235, 34.14667,      2.16820,     89.64525,50.00000,51.00000,3.628071e-09,0.92452,3
164.457, 34.37333,      2.16562,     89.61150,50.00000,51.00000,3.631781e-09,0.92446,3
165.699, 34.60000,      2.16457,     89.64525,50.00000,51.00000,3.629681e-09,0.92439,3
166.918, 34.82667,      2.16393,     89.64525,50.00000,51.00000,3.633794e-09,0.92427,3
168.12, 35.05333,      2.16029,     89.64525,50.00000,51.00000,3.633563e-09,0.92421,3
169.344, 35.28000,      2.15733,     89.64525,50.00000,51.00000,3.633207e-09,0.92414,3
170.544, 35.50667,      2.15392,     89.67925,50.00000,51.00000,3.627963e-09,0.92401,3
171.733, 35.73333,      2.15157,     89.71325,50.00000,51.00000,3.631528e-09,0.92394,3
172.927, 35.96000,      2.14752,     89.71325,50.00000,51.00000,3.629880e-09,0.92387,3
174.117, 36.18667,      2.14412,     89.67925,50.00000,51.00000,3.626013e-09,0.92373,3
175.299, 36.41333,      2.14201,     89.71325,50.00000,51.00000,3.632066e-09,0.92366,3
176.478, 36.64000,      2.13840,     89.68775,50.00000,51.00000,3.640427e-09,0.92351,3
177.653, 36.86667,      2.13672,     89.72175,50.00000,51.00000,3.627623e-09,0.92343,3
178.842, 37.09333,      2.13400,     89.72175,50.00000,51.00000,3.631207e-09,0.92336,3
180.009, 37.32000,      2.13276,     89.68775,50.00000,51.00000,3.629160e-09,0.92321,3
181.183, 37.54667,      2.12831,     89.72175,50.00000,51.00000,3.641031e-09,0.92313,3
182.336, 37.77333,      2.12729,     89.70475,50.00000,51.00000,3.627629e-09,0.92305,3
183.508, 38.00000,      2.12415,     89.71325,50.00000,51.00000,3.640556e-09,0.92289,3
184.655, 38.22667,      2.12400,     89.73875,50.00000,51.00000,3.626542e-09,0.92281,3
185.816, 38.45333,      2.12150,     89.70475,50.00000,51.00000,3.632542e-09,0.92273,3
186.977, 38.68000,      2.12010,     89.73875,50.00000,51.00000,3.632170e-09,0.92256,3
188.126, 38.90667,      2.12042,     89.70475,50.00000,51.00000,3.628720e-09,0.92248,3
189.276, 39.13333,      2.11902,     89.70475,50.00000,51.00000,3.634275e-09,0.92231,3
190.437, 39.36000,      2.11961,     89.71325,50.00000,51.00000,3.630451e-09,0.92222,3
191.568, 39.58667,      2.11950,     89.71325,50.00000,51.00000,3.633723e-09,0.92213,3
192.736, 39.81333,      2.11947,     89.73875,50.00000,51.00000,3.637224e-09,0.92196,3
193.872, 40.04000,      2.11917,     89.73875,50.00000,51.00000,3.632638e-09,0.92189,3
195.006, 40.26667,      2.11780,     89.73875,50.00000,51.00000,3.627809e-09,0.92182,3
196.15, 40.49333,      2.11841,     89.70475,50.00000,51.00000,3.634444e-09,0.92169,3
197.291, 40.72000,      2.12013,     89.70475,50.00000,51.00000,3.634967e-09,0.92162,3
198.44, 40.94667,      2.12078,     89.67075,50.00000,51.00000,3.633920e-09,0.92155,3
199.574, 41.17333,      2.12316,     89.70475,50.00000,51.00000,3.636812e-09,0.92142,3
200.696, 41.40000,      2.12357,     89.67075,50.00000,51.00000,3.628783e-09,0.92135,3
201.84, 41.62667,      2.12666,     89.68775,50.00000,51.00000,3.628410e-09,0.92123,3
202.98, 41.85333,      2.13020,     89.70475,50.00000,51.00000,3.631755e-09,0.92116,3
204.121, 42.08000,      2.13332,     89.65375,50.00000,51.00000,3.631844e-09,0.92110,3
205.222, 42.30667,      2.13572,     89.63675,50.00000,51.00000,3.630431e-09,0.92098,3
206.36, 42.53333,      2.13755,     89.65375,50.00000,51.00000,3.634948e-09,0.92092,3
207.489, 42.76000,      2.14157,     89.62000,50.00000,51.00000,3.626261e-09,0.92087,3
208.627, 42.98667,      2.14475,     89.58600,50.00000,51.00000,3.629579e-09,0.92076,3
209.758, 43.21333,      2.14749,     89.58600,50.00000,51.00000,3.629569e-09,0.92071,3
210.886, 43.44000,      2.15510,     89.62000,50.00000,51.00000,3.626194e-09,0.92060,3
212.008, 43.66667,      2.15830,     89.54925,50.00000,51.00000,3.630215e-09,0.92056,3
213.14, 43.89333,      2.16132,     89.54925,50.00000,51.00000,3.632120e-09,0.92050,3
214.271, 44.12000,      2.16435,     89.54925,50.00000,51.00000,3.627300e-09,0.92041,3
215.386, 44.34667,      2.16980,     89.51525,50.00000,51.00000,3.634165e-09,0.92037,3
216.525, 44.57333,      2.17422,     89.49825,50.00000,51.00000,3.628247e-09,0.92033,3
217.645, 44.80000,      2.18328,     89.49825,50.00000,51.00000,3.629461e-09,0.92025,3
218.771, 45.02667,      2.18726,     89.44725,50.00000,51.00000,3.633693e-09,0.92021,3
219.891, 45.25333,      2.18858,     89.43900,50.00000,51.00000,3.622392e-09,0.92017,3
221.024, 45.48000,      2.19172,     89.41350,50.00000,51.00000,3.634985e-09,0.92009,3
222.151, 45.70667,      2.19798,     89.40500,50.00000,51.00000,3.624081e-09,0.92005,3
223.278, 45.93333,      2.20115,     89.38225,50.00000,51.00000,3.630086e-09,0.91998,3
224.42, 46.16000,      2.20324,     89.35400,50.00000,51.00000,3.645288e-09,0.91994,3
225.538, 46.38667,      2.20663,     89.32000,50.00000,51.00000,3.630225e-09,0.91991,3
226.649, 46.61333,      2.21093,     89.32000,50.00000,51.00000,3.627240e-09,0.91984,3
227.779, 46.84000,      2.21327,     89.26075,50.00000,51.00000,3.632980e-09,0.91981,3
228.909, 47.06667,      2.21607,     89.23525,50.00000,51.00000,3.630275e-09,0.91978,3
230.032, 47.29333,      2.22089,     89.19275,50.00000,51.00000,3.630959e-09,0.91972,3
231.157, 47.52000,      2.22483,     89.16725,50.00000,51.00000,3.632567e-09,0.91969,3
232.288, 47.74667,      2.22993,     89.13350,50.00000,51.00000,3.629503e-09,0.91962,3
233.418, 47.97333,      2.23505,     89.10800,50.00000,51.00000,3.630585e-09,0.91960,3
234.523, 48.20000,      2.24195,     89.04000,50.00000,51.00000,3.641770e-09,0.91956,3
235.673, 48.42667,      2.24670,     89.04000,50.00000,51.00000,3.625164e-09,0.91951,3
236.787, 48.65333,      2.25162,     88.97225,50.00000,51.00000,3.634798e-09,0.91949,3
237.912, 48.88000,      2.25590,     88.97225,50.00000,51.00000,3.631128e-09,0.91945,3
239.039, 49.10667,      2.25930,     88.93825,50.00000,51.00000,3.633272e-09,0.91941,3
240.17, 49.33333,      2.25819,     88.90425,50.00000,51.00000,3.628386e-09,0.91938,3
241.311, 49.56000,      2.26028,     88.83650,50.00000,51.00000,3.636409e-09,0.91936,3
242.436, 49.78667,      2.26395,     88.80250,50.00000,51.00000,3.634938e-09,0.91931,3
243.556, 50.01333,      2.26784,     88.73450,50.00000,51.00000,3.625586e-09,0.91928,3
244.686, 50.24000,      2.27132,     88.76000,50.00000,51.00000,3.637391e-09,0.91924,3
245.816, 50.46667,      2.27619,     88.65825,50.00000,51.00000,3.633654e-09,0.91922,3
246.941, 50.69333,      2.28061,     88.65825,50.00000,51.00000,3.634914e-09,0.91920,3
248.08, 50.92000,      2.28553,     88.59025,50.00000,51.00000,3.629401e-09,0.91916,3
249.192, 51.14667,      2.28973,     88.55650,50.00000,51.00000,3.632175e-09,0.91915,3
250.321, 51.37333,      2.29352,     88.48850,50.00000,51.00000,3.638532e-09,0.91911,3
251.452, 51.60000,      2.30055,     88.45450,50.00000,51.00000,3.628509e-09,0.91909,3
252.58, 51.82667,      2.30598,     88.41500,50.00000,51.00000,3.631121e-09,0.91908,3
253.704, 52.05333,      2.30959,     88.34725,50.00000,51.00000,3.633323e-09,0.91905,3
254.839, 52.28000,      2.31670,     88.27925,50.00000,51.00000,3.637300e-09,0.91903,3
255.962, 52.50667,      2.32057,     88.21975,50.00000,51.00000,3.628320e-09,0.91902,3
257.096, 52.73333,      2.32586,     88.18600,50.00000,51.00000,3.632371e-09,0.91899,3
258.228, 52.96000,      2.33072,     88.14350,50.00000,51.00000,3.640986e-09,0.91898,3
259.366, 53.18667,      2.33421,     88.05875,50.00000,51.00000,3.631016e-09,0.91897,3
260.492, 53.41333,      2.33816,     87.99075,50.00000,51.00000,3.626382e-09,0.91895,3
261.626, 53.64000,      2.34284,     87.95675,50.00000,51.00000,3.628725e-09,0.91894,3
262.757, 53.86667,      2.34823,     87.89750,50.00000,51.00000,3.634110e-09,0.91892,3
263.891, 54.09333,      2.35271,     87.82100,50.00000,51.00000,3.628635e-09,0.91892,3
265.03, 54.32000,      2.36072,     87.75875,50.00000,51.00000,3.630133e-09,0.91891,3
266.141, 54.54667,      2.36238,     87.71350,50.00000,51.00000,3.632227e-09,0.91890,3
267.289, 54.77333,      2.36649,     87.64575,50.00000,51.00000,3.627580e-09,0.91890,3
268.417, 55.00000,      2.36986,     87.57775,50.00000,51.00000,3.629406e-09,0.91889,3
269.547, 55.22667,      2.37185,     87.50425,50.00000,51.00000,3.633673e-09,0.91888,3
270.688, 55.45333,      2.37317,     87.50700,50.00000,51.00000,3.632602e-09,0.91888,3
271.804, 55.68000,      2.37397,     87.40250,50.00000,51.00000,3.629234e-09,0.91888,3
272.935, 55.90667,      2.37623,     87.33450,50.00000,51.00000,3.627463e-09,0.91887,3
274.049, 56.13333,      2.37751,     87.23275,50.00000,51.00000,3.632502e-09,0.91887,3
275.182, 56.36000,      2.38097,     87.16200,50.00000,51.00000,3.630745e-09,0.91887,3
276.312, 56.58667,      2.38420,     87.07150,50.00000,51.00000,3.631411e-09,0.91887,3
277.446, 56.81333,      2.38841,     86.98675,50.00000,51.00000,3.632045e-09,0.91887,3
278.576, 57.04000,      2.40183,     86.88500,50.00000,51.00000,3.630667e-09,0.91887,3
279.701, 57.26667,      2.40629,     86.81700,50.00000,51.00000,3.627746e-09,0.91887,3
280.823, 57.49333,      2.40957,     86.71525,50.00000,51.00000,3.628449e-09,0.91887,3
281.976, 57.72000,      2.41438,     86.64725,50.00000,51.00000,3.625241e-09,0.91887,3
283.089, 57.94667,      2.42051,     86.54275,50.00000,51.00000,3.628827e-09,0.91887,3
284.229, 58.17333,      2.42080,     86.43800,50.00000,51.00000,3.631554e-09,0.91887,3
285.351, 58.40000,      2.41938,     86.33625,50.00000,51.00000,3.624792e-09,0.91887,3
286.489, 58.62667,      2.42205,     86.23150,50.00000,51.00000,3.630347e-09,0.91887,3
287.614, 58.85333,      2.42494,     86.09000,50.00000,51.00000,3.633088e-09,0.91887,3
288.738, 59.08000,      2.42497,     85.98275,50.00000,51.00000,3.630553e-09,0.91887,3
289.869, 59.30667,      2.44514,     85.91475,50.00000,51.00000,3.632604e-09,0.91887,3
290.988, 59.53333,      2.44495,     85.73950,50.00000,51.00000,3.628799e-09,0.91887,3
292.118, 59.76000,      2.44864,     85.62900,50.00000,51.00000,3.631737e-09,0.91887,3
293.258, 59.98667,      2.45117,     85.46800,50.00000,51.00000,3.634918e-09,0.91887,3
294.386, 60.21333,      2.45368,     85.33200,50.00000,51.00000,3.622496e-09,0.91888,3
295.507, 60.44000,      2.45666,     85.18500,50.00000,51.00000,3.625576e-09,0.91888,3
296.636, 60.66667,      2.45654,     85.04350,50.00000,51.00000,3.627719e-09,0.91887,3
297.755, 60.89333,      2.47476,     84.85400,50.00000,51.00000,3.632524e-09,0.91888,3
298.887, 61.12000,      2.47903,     84.69300,50.00000,51.00000,3.632957e-09,0.91887,3
300.023, 61.34667,      2.48358,     84.54875,50.00000,51.00000,3.626425e-09,0.91887,3
301.158, 61.57333,      2.48619,     84.33650,50.00000,51.00000,3.626702e-09,0.91887,3
302.282, 61.80000,      2.48806,     84.16125,50.00000,51.00000,3.628100e-09,0.91887,3
303.424, 62.02667,      2.48196,     83.93775,50.00000,51.00000,3.626094e-09,0.91887,3
304.544, 62.25333,      2.47213,     83.73400,50.00000,51.00000,3.638127e-09,0.91887,3
305.685, 62.48000,      2.45990,     83.54750,50.00000,51.00000,3.625151e-09,0.91887,3
306.811, 62.70667,      2.47177,     83.25900,50.00000,51.00000,3.628200e-09,0.91887,3
307.925, 62.93333,      2.46433,     83.07500,50.00000,51.00000,3.634433e-09,0.91886,3
309.063, 63.16000,      2.48437,     82.85450,50.00000,51.00000,3.632142e-09,0.91886,3
310.193, 63.38667,      2.49929,     82.61125,50.00000,51.00000,3.627442e-09,0.91886,3
311.322, 63.61333,      2.48454,     82.36800,50.00000,51.00000,3.618789e-09,0.91886,3
312.447, 63.84000,      2.47195,     82.13050,50.00000,51.00000,3.630040e-09,0.91886,3
313.592, 64.06667,      2.45224,     81.86175,50.00000,51.00000,3.626445e-09,0.91886,3
314.715, 64.29333,      2.50764,     81.57325,50.00000,51.00000,3.625029e-09,0.91885,3
315.847, 64.52000,      2.48346,     81.31300,50.00000,51.00000,3.630748e-09,0.91885,3
316.98, 64.74667,      2.43027,     81.02175,50.00000,51.00000,3.622573e-09,0.91885,3
318.118, 64.97333,      2.37077,     80.70775,50.00000,51.00000,3.630656e-09,0.91885,3
319.235, 65.20000,      2.33212,     80.39950,50.00000,51.00000,3.624613e-09,0.91885,3
320.372, 65.42667,      2.55889,     80.07700,50.00000,51.00000,3.622251e-09,0.91884,3
321.507, 65.65333,      2.51747,     79.74625,50.00000,51.00000,3.632763e-09,0.91884,3
322.628, 65.88000,      2.49208,     79.50575,50.00000,51.00000,3.632867e-09,0.91883,3
323.76, 66.10667,      2.49284,     79.17200,50.00000,51.00000,3.628444e-09,0.91883,3
324.885, 66.33333,      2.51630,     78.88350,50.00000,51.00000,3.628247e-09,0.91883,3
326.034, 66.56000,      2.48064,     78.57525,50.00000,51.00000,3.620269e-09,0.91883,3
327.16, 66.78667,      2.42202,     78.21600,50.00000,51.00000,3.626337e-09,0.91882,3
328.287, 67.01333,      2.55309,     77.83125,50.00000,51.00000,3.625059e-09,0.91882,3
329.426, 67.24000,      2.49470,     77.52600,50.00000,51.00000,3.627990e-09,0.91881,3
330.56, 67.46667,      2.39186,     77.19775,50.00000,51.00000,3.627615e-09,0.91881,3
331.688, 67.69333,      2.31012,     76.73675,50.00000,51.00000,3.631462e-09,0.91881,3
332.809, 67.92000,      2.57898,     76.32375,50.00000,51.00000,3.619546e-09,0.91880,3
333.937, 68.14667,      2.52430,     75.97025,50.00000,51.00000,3.623176e-09,0.91879,3
335.054, 68.37333,      2.36396,     75.57150,50.00000,51.00000,3.631732e-09,0.91879,3
336.187, 68.60000,      2.42891,     75.13875,50.00000,51.00000,3.625702e-09,0.91879,3
337.326, 68.82667,      2.52526,     74.73725,50.00000,51.00000,3.623066e-09,0.91878,3
338.462, 69.05333,      2.58098,     74.29300,50.00000,51.00000,3.620948e-09,0.91877,3
339.586, 69.28000,      2.45111,     73.86875,50.00000,51.00000,3.629628e-09,0.91876,3
340.72, 69.50667,      2.54892,     73.35700,50.00000,51.00000,3.631958e-09,0.91876,3
341.849, 69.73333,      2.32297,     72.87325,50.00000,51.00000,3.627751e-09,0.91876,3
342.99, 69.96000,      2.60435,     72.37275,50.00000,51.00000,3.626066e-09,0.91875,3
344.119, 70.18667,      2.45306,     71.87200,50.00000,51.00000,3.624334e-09,0.91874,3
345.238, 70.41333,      2.60315,     71.33750,50.00000,51.00000,3.625382e-09,0.91874,3
346.366, 70.64000,      2.52121,     70.76325,50.00000,51.00000,3.626322e-09,0.91873,3
347.504, 70.86667,      2.58298,     70.22875,50.00000,51.00000,3.631705e-09,0.91872,3
348.635, 71.09333,      2.63024,     69.60650,50.00000,51.00000,3.617783e-09,0.91871,3
349.768, 71.32000,      2.62042,     69.05225,50.00000,51.00000,3.620860e-09,0.91871,3
350.904, 71.54667,      2.56542,     68.41850,50.00000,51.00000,3.622009e-09,0.91870,3
352.026, 71.77333,      2.34916,     67.79350,50.00000,51.00000,3.626330e-09,0.91869,3
353.163, 72.00000,      2.60502,     67.12050,50.00000,51.00000,3.624145e-09,0.91868,3
354.29, 72.22667,      2.49502,     66.39925,50.00000,51.00000,3.620234e-09,0.91868,3
355.426, 72.45333,      2.40965,     65.66100,50.00000,51.00000,3.632332e-09,0.91866,3
356.548, 72.68000,      2.36298,     64.95675,50.00000,51.00000,3.623472e-09,0.91866,3
357.682, 72.90667,      2.61827,     64.16750,50.00000,51.00000,3.624994e-09,0.91866,3
358.816, 73.13333,      2.47975,     63.38700,50.00000,51.00000,3.618182e-09,0.91864,3
359.945, 73.36000,      2.68868,     62.55550,50.00000,51.00000,3.618426e-09,0.91864,3
361.079, 73.58667,      2.61394,     61.71250,50.00000,51.00000,3.621130e-09,0.91863,3
362.207, 73.81333,      2.55441,     60.87825,50.00000,51.00000,3.628955e-09,0.91862,3
363.335, 74.04000,      2.48761,     59.93650,50.00000,51.00000,3.624868e-09,0.91861,3
364.47, 74.26667,      2.66497,     59.05675,50.00000,51.00000,3.629398e-09,0.91860,3
365.594, 74.49333,      2.62338,     58.10650,50.00000,51.00000,3.619462e-09,0.91859,3
366.732, 74.72000,      2.62124,     57.17025,50.00000,51.00000,3.624130e-09,0.91858,3
367.86, 74.94667,      2.63622,     56.15775,50.00000,51.00000,3.620195e-09,0.91857,3
368.983, 75.17333,      2.62241,     55.10850,50.00000,51.00000,3.625259e-09,0.91856,3
370.111, 75.40000,      2.62842,     54.11000,50.00000,51.00000,3.621544e-09,0.91855,3
371.24, 75.62667,      2.66096,     53.03525,50.00000,51.00000,3.621629e-09,0.91854,3
372.37, 75.85333,      2.68325,     52.00275,50.00000,51.00000,3.625716e-09,0.91853,3
373.499, 76.08000,      2.67316,     50.85175,50.00000,51.00000,3.624726e-09,0.91852,3
374.629, 76.30667,      2.66996,     49.75150,50.00000,51.00000,3.628577e-09,0.91851,3
375.762, 76.53333,      2.67610,     48.60875,50.00000,51.00000,3.618021e-09,0.91850,3
376.895, 76.76000,      2.67237,     47.41250,50.00000,51.00000,3.622338e-09,0.91849,3
378.033, 76.98667,      2.68871,     46.24425,50.00000,51.00000,3.619832e-09,0.91848,3
379.159, 77.21333,      2.66728,     44.99150,50.00000,51.00000,3.621146e-09,0.91848,3
380.292, 77.44000,      2.65895,     43.78650,50.00000,51.00000,3.617334e-09,0.91846,3
381.424, 77.66667,      2.63232,     42.55325,50.00000,51.00000,3.619345e-09,0.91845,3
382.562, 77.89333,      2.64169,     41.27775,50.00000,51.00000,3.625230e-09,0.91844,3
383.677, 78.12000,      2.64102,     40.01625,50.00000,51.00000,3.623681e-09,0.91842,3
384.826, 78.34667,      2.61889,     38.72950,50.00000,51.00000,3.625759e-09,0.91842,3
385.952, 78.57333,      2.58714,     37.43400,50.00000,51.00000,3.619069e-09,0.91841,3
387.079, 78.80000,      2.58372,     36.18675,50.00000,51.00000,3.619084e-09,0.91839,3
388.207, 79.02667,      2.56673,     34.86875,50.00000,51.00000,3.622919e-09,0.91839,3
389.342, 79.25333,      2.53424,     33.60175,50.00000,51.00000,3.622528e-09,0.91838,3
390.472, 79.48000,      2.52283,     32.27800,50.00000,51.00000,3.620099e-09,0.91836,3
391.606, 79.70667,      2.49997,     31.03350,50.00000,51.00000,3.619461e-09,0.91835,3
392.73, 79.93333,      2.46963,     29.77200,50.00000,51.00000,3.620723e-09,0.91833,3
393.885, 80.16000,      2.44231,     28.49925,50.00000,51.00000,3.626558e-09,0.91832,3
395.014, 80.38667,      2.41317,     27.24625,50.00000,51.00000,3.628831e-09,0.91832,3
396.136, 80.61333,      2.37241,     25.99350,50.00000,51.00000,3.626141e-09,0.91830,3
397.277, 80.84000,      2.32390,     24.73475,50.00000,51.00000,3.615729e-09,0.91829,3
398.399, 81.06667,      2.28315,     23.52150,50.00000,51.00000,3.626804e-09,0.91828,3
399.544, 81.29333,      2.21620,     22.31925,50.00000,51.00000,3.624360e-09,0.91826,3
400.655, 81.52000,      2.15913,     21.14550,50.00000,51.00000,3.622576e-09,0.91826,3
401.791, 81.74667,      2.09948,     19.92375,50.00000,51.00000,3.622167e-09,0.91824,3
402.931, 81.97333,      2.03965,     18.75575,50.00000,51.00000,3.622821e-09,0.91823,3
404.057, 82.20000,      1.96936,     17.62725,50.00000,51.00000,3.620235e-09,0.91822,3
405.198, 82.42667,      1.89971,     16.48175,50.00000,51.00000,3.623756e-09,0.91820,3
406.324, 82.65333,      1.82676,     15.37000,50.00000,51.00000,3.615906e-09,0.91820,3
407.461, 82.88000,      1.74721,     14.24725,50.00000,51.00000,3.620536e-09,0.91818,3
408.592, 83.10667,      1.66796,     13.13575,50.00000,51.00000,3.620838e-09,0.91816,3
409.718, 83.33333,      1.58399,     12.09775,50.00000,51.00000,3.623754e-09,0.91816,3
410.861, 83.56000,      1.49784,     11.10775,50.00000,51.00000,3.620449e-09,0.91815,3
411.991, 83.78667,      1.40636,     10.06700,50.00000,51.00000,3.618906e-09,0.91812,3
413.115, 84.01333,      1.32468,      9.09675,50.00000,51.00000,3.623619e-09,0.91812,3
414.253, 84.24000,      1.24950,      8.14375,50.00000,51.00000,3.623254e-09,0.91810,3
415.385, 84.46667,      1.17100,      7.22450,50.00000,51.00000,3.624347e-09,0.91809,3
416.53, 84.69333,      1.09002,      6.29950,50.00000,51.00000,3.617168e-09,0.91808,3
417.663, 84.92000,      1.02146,      5.42000,50.00000,51.00000,3.626557e-09,0.91806,3
418.79, 85.14667,      0.96962,      4.58850,50.00000,51.00000,3.623029e-09,0.91805,3
419.922, 85.37333,      0.92131,      3.75700,50.00000,51.00000,3.621525e-09,0.91803,3
421.06, 85.60000,      0.87485,      3.01600,50.00000,51.00000,3.620641e-09,0.91802,3
422.186, 85.82667,      0.82538,      2.28325,50.00000,51.00000,3.610119e-09,0.91801,3
423.315, 86.05333,      0.77805,      1.59600,50.00000,51.00000,3.617117e-09,0.91799,3
424.444, 86.28000,      0.72686,      0.93700,50.00000,51.00000,3.613883e-09,0.91798,3
425.585, 86.50667,      0.67810,      0.32625,50.00000,51.00000,3.627824e-09,0.91797,3
426.725, 86.73333,      0.62632,     -0.19700,50.00000,51.00000,3.625382e-09,0.91795,3
427.854, 86.96000,      0.57638,     -0.75425,50.00000,51.00000,3.619811e-09,0.91794,3
428.993, 87.18667,      0.52315,     -1.26900,50.00000,51.00000,3.614689e-09,0.91793,3
430.117, 87.41333,      0.47289,     -1.72150,50.00000,51.00000,3.625294e-09,0.91791,3
431.258, 87.64000,      0.42192,     -2.14300,50.00000,51.00000,3.619107e-09,0.91791,3
432.383, 87.86667,      0.37481,     -2.56450,50.00000,51.00000,3.618637e-09,0.91789,3
433.512, 88.09333,      0.32928,     -2.92075,50.00000,51.00000,3.617478e-09,0.91787,3
434.65, 88.32000,      0.28651,     -3.24325,50.00000,51.00000,3.628799e-09,0.91786,3
435.772, 88.54667,      0.24359,     -3.57700,50.00000,51.00000,3.614152e-09,0.91784,3
436.912, 88.77333,      0.20606,     -3.82025,50.00000,51.00000,3.624312e-09,0.91783,3
438.051, 89.00000,      0.16695,     -4.01825,50.00000,51.00000,3.616957e-09,0.91782,3
439.176, 89.22667,      0.12831,     -4.20775,50.00000,51.00000,3.617116e-09,0.91780,3
440.317, 89.45333, 9.128871e-02,     -4.36050,50.00000,51.00000,3.620361e-09,0.91779,3
441.452, 89.68000, 5.415780e-02,     -4.50175,50.00000,51.00000,3.613262e-09,0.91778,3
442.582, 89.90667, 1.982962e-02,     -4.60925,50.00000,51.00000,3.618975e-09,0.91776,3
443.713, 90.13333,-1.285038e-02,     -4.67725,50.00000,51.00000,3.617732e-09,0.91775,3
444.846, 90.36000,-4.153463e-02,     -4.76500,50.00000,51.00000,3.624076e-09,0.91772,3
445.992, 90.58667,-6.796354e-02,     -4.80725,50.00000,51.00000,3.623373e-09,0.91772,3
447.108, 90.81333,-9.300269e-02,     -4.81575,50.00000,51.00000,3.622829e-09,0.91771,3
448.245, 91.04000,     -0.11871,     -4.87525,50.00000,51.00000,3.612345e-09,0.91768,3
449.378, 91.26667,     -0.14155,     -4.90075,50.00000,51.00000,3.620598e-09,0.91767,3
450.509, 91.49333,     -0.16475,     -4.95450,50.00000,51.00000,3.624283e-09,0.91766,3
451.639, 91.72000,     -0.18684,     -4.93750,50.00000,51.00000,3.615850e-09,0.91764,3
452.769, 91.94667,     -0.20693,     -4.97125,50.00000,51.00000,3.625370e-09,0.91763,3
453.898, 92.17333,     -0.22707,     -5.00525,50.00000,51.00000,3.621464e-09,0.91760,3
455.038, 92.40000,     -0.24669,     -5.02225,50.00000,51.00000,3.608038e-09,0.91760,3
456.164, 92.62667,     -0.26488,     -5.02225,50.00000,51.00000,3.614108e-09,0.91759,3
457.304, 92.85333,     -0.28342,     -5.05625,50.00000,51.00000,3.621903e-09,0.91756,3
458.435, 93.08000,     -0.30321,     -5.05625,50.00000,51.00000,3.615099e-09,0.91755,3
459.561, 93.30667,     -0.32484,     -5.07325,50.00000,51.00000,3.627094e-09,0.91754,3
460.698, 93.53333,     -0.34655,     -5.10700,50.00000,51.00000,3.623701e-09,0.91751,3
461.828, 93.76000,     -0.37010,     -5.10700,50.00000,51.00000,3.617048e-09,0.91750,3
462.964, 93.98667,     -0.39134,     -5.13250,50.00000,51.00000,3.622647e-09,0.91749,3
464.084, 94.21333,     -0.41443,     -5.09875,50.00000,51.00000,3.622544e-09,0.91747,3
465.214, 94.44000,     -0.43368,     -5.14950,50.00000,51.00000,3.623038e-09,0.91746,3
466.337, 94.66667,     -0.45449,     -5.15800,50.00000,51.00000,3.620889e-09,0.91744,3
467.482, 94.89333,     -0.47719,     -5.20050,50.00000,51.00000,3.621098e-09,0.91743,3
468.605, 95.12000,     -0.49571,     -5.16650,50.00000,51.00000,3.621593e-09,0.91741,3
469.74, 95.34667,     -0.51459,     -5.16650,50.00000,51.00000,3.618738e-09,0.91738,3
470.877, 95.57333,     -0.53777,     -5.20050,50.00000,51.00000,3.616758e-09,0.91737,3
472.003, 95.80000,     -0.55950,     -5.19200,50.00000,51.00000,3.626991e-09,0.91736,3
473.151, 96.02667,     -0.58403,     -5.22600,50.00000,51.00000,3.618593e-09,0.91734,3
474.273, 96.25333,     -0.60497,     -5.20050,50.00000,51.00000,3.617975e-09,0.91732,3
475.411, 96.48000,     -0.62598,     -5.21750,50.00000,51.00000,3.621529e-09,0.91730,3
476.55, 96.70667,     -0.64644,     -5.23450,50.00000,51.00000,3.622899e-09,0.91729,3
477.684, 96.93333,     -0.66482,     -5.23450,50.00000,51.00000,3.622458e-09,0.91727,3
478.824, 97.16000,     -0.68662,     -5.23450,50.00000,51.00000,3.621199e-09,0.91725,3
479.948, 97.38667,     -0.71092,     -5.23450,50.00000,51.00000,3.618740e-09,0.91724,3
481.085, 97.61333,     -0.73223,     -5.24300,50.00000,51.00000,3.621747e-09,0.91723,3
482.219, 97.84000,     -0.75699,     -5.22600,50.00000,51.00000,3.620520e-09,0.91720,3
483.35, 98.06667,     -0.78181,     -5.22600,50.00000,51.00000,3.623294e-09,0.91719,3
484.478, 98.29333,     -0.80515,     -5.22600,50.00000,51.00000,3.629427e-09,0.91716,3
485.619, 98.52000,     -0.83012,     -5.22600,50.00000,51.00000,3.625789e-09,0.91715,3
486.751, 98.74667,     -0.85361,     -5.22600,50.00000,51.00000,3.622778e-09,0.91714,3
487.877, 98.97333,     -0.87653,     -5.22600,50.00000,51.00000,3.616975e-09,0.91711,3
489.028, 99.20000,     -0.89862,     -5.22600,50.00000,51.00000,3.630378e-09,0.91710,3
490.157, 99.42667,     -0.92012,     -5.22600,50.00000,51.00000,3.625810e-09,0.91708,3
491.27, 99.65333,     -0.94571,     -5.22600,50.00000,51.00000,3.625112e-09,0.91706,3
492.41, 99.88000,     -0.96953,     -5.22600,50.00000,51.00000,3.620481e-09,0.91704,3
493.537,100.107,     -0.99246,     -5.19200,50.00000,51.00000,3.617348e-09,0.91703,3
494.683,100.333,     -1.01424,     -5.19200,50.00000,51.00000,3.616872e-09,0.91701,3
495.806,100.56,     -1.04042,     -5.19200,50.00000,51.00000,3.613857e-09,0.91699,3
496.946,100.787,     -1.06200,     -5.19200,50.00000,51.00000,3.616538e-09,0.91696,3
498.077,101.013,     -1.08551,     -5.19200,50.00000,51.00000,3.615085e-09,0.91695,3
499.224,101.24,     -1.10659,     -5.20050,50.00000,51.00000,3.623662e-09,0.91693,3
500.357,101.467,     -1.13149,     -5.19200,50.00000,51.00000,3.622475e-09,0.91691,3
501.49,101.693,     -1.15519,     -5.15800,50.00000,51.00000,3.620103e-09,0.91689,3
502.619,101.92,     -1.17800,     -5.15800,50.00000,51.00000,3.621347e-09,0.91687,3
503.743,102.147,     -1.19898,     -5.13250,50.00000,51.00000,3.620491e-09,0.91685,3
504.895,102.373,     -1.22258,     -5.16650,50.00000,51.00000,3.625772e-09,0.91683,3
506.03,102.6,     -1.24907,     -5.10700,50.00000,51.00000,3.616994e-09,0.91682,3
507.159,102.827,     -1.27531,     -5.12400,50.00000,51.00000,3.620566e-09,0.91679,3
508.294,103.053,     -1.30195,     -5.12400,50.00000,51.00000,3.619419e-09,0.91677,3
509.43,103.28,     -1.32452,     -5.09025,50.00000,51.00000,3.626845e-09,0.91676,3
510.544,103.507,     -1.35317,     -5.12400,50.00000,51.00000,3.616304e-09,0.91673,3
511.682,103.733,     -1.37523,     -5.12400,50.00000,51.00000,3.617499e-09,0.91672,3
512.829,103.96,     -1.39737,     -5.09025,50.00000,51.00000,3.619549e-09,0.91669,3
513.964,104.187,     -1.41986,     -5.09025,50.00000,51.00000,3.622237e-09,0.91667,3
515.1,104.413,     -1.44146,     -5.09025,50.00000,51.00000,3.618553e-09,0.91666,3
516.221,104.64,     -1.46533,     -5.09025,50.00000,51.00000,3.611921e-09,0.91663,3
517.368,104.867,     -1.48899,     -5.09025,50.00000,51.00000,3.621364e-09,0.91661,3
518.5,105.093,     -1.51751,     -5.09025,50.00000,51.00000,3.615323e-09,0.91660,3
519.633,105.32,     -1.54578,     -5.09025,50.00000,51.00000,3.614623e-09,0.91657,3
520.775,105.547,     -1.57092,     -5.09025,50.00000,51.00000,3.623047e-09,0.91655,3
521.903,105.773,     -1.59481,     -5.09025,50.00000,51.00000,3.625457e-09,0.91652,3
523.024,106,     -1.62068,     -5.05625,50.00000,51.00000,3.620708e-09,0.91650,3
524.171,106.227,     -1.64343,     -5.07325,50.00000,51.00000,3.619903e-09,0.91648,3
525.305,106.453,     -1.66685,     -5.07325,50.00000,51.00000,3.621121e-09,0.91646,3
526.437,106.68,     -1.68839,     -5.03925,50.00000,51.00000,3.617871e-09,0.91644,3
527.574,106.907,     -1.71292,     -5.03925,50.00000,51.00000,3.622797e-09,0.91642,3
528.7,107.133,     -1.73553,     -5.03925,50.00000,51.00000,3.629068e-09,0.91639,3
529.851,107.36,     -1.75922,     -5.00525,50.00000,51.00000,3.620598e-09,0.91637,3
530.982,107.587,     -1.78654,     -5.04775,50.00000,51.00000,3.621996e-09,0.91634,3
532.115,107.813,     -1.81294,     -5.04775,50.00000,51.00000,3.628475e-09,0.91633,3
533.245,108.04,     -1.83842,     -5.04775,50.00000,51.00000,3.624278e-09,0.91631,3
534.385,108.267,     -1.86464,     -5.01375,50.00000,51.00000,3.621410e-09,0.91628,3
535.52,108.493,     -1.88927,     -5.01375,50.00000,51.00000,3.624875e-09,0.91626,3
536.654,108.72,     -1.91264,     -5.01375,50.00000,51.00000,3.623422e-09,0.91623,3
537.786,108.947,     -1.93937,     -4.99675,50.00000,51.00000,3.617674e-09,0.91621,3
538.922,109.173,     -1.96550,     -5.01375,50.00000,51.00000,3.611661e-09,0.91619,3
540.061,109.4,     -1.99006,     -5.01375,50.00000,51.00000,3.614260e-09,0.91616,3
541.19,109.627,     -2.01067,     -4.97975,50.00000,51.00000,3.613776e-09,0.91614,3
542.33,109.853,     -2.03435,     -4.97975,50.00000,51.00000,3.612391e-09,0.91612,3
543.467,110.08,     -2.05874,     -4.97975,50.00000,51.00000,3.615306e-09,0.91609,3
544.61,110.307,     -2.08420,     -4.96300,50.00000,51.00000,3.615815e-09,0.91607,3
545.745,110.533,     -2.11070,     -4.97975,50.00000,51.00000,3.616353e-09,0.91605,3
546.87,110.76,     -2.13490,     -4.95450,50.00000,51.00000,3.620282e-09,0.91602,3
548.002,110.987,     -2.15818,     -4.95450,50.00000,51.00000,3.612170e-09,0.91600,3
549.138,111.213,     -2.18586,     -4.98825,50.00000,51.00000,3.614701e-09,0.91596,3
550.274,111.44,     -2.20625,     -4.98825,50.00000,51.00000,3.614032e-09,0.91595,3
551.406,111.667,     -2.23003,     -4.95450,50.00000,51.00000,3.612595e-09,0.91593,3
552.542,111.893,     -2.25018,     -4.93750,50.00000,51.00000,3.613662e-09,0.91589,3
553.689,112.12,     -2.27342,     -4.93750,50.00000,51.00000,3.610223e-09,0.91587,3
554.82,112.347,     -2.29769,     -4.94600,50.00000,51.00000,3.620195e-09,0.91586,3
555.954,112.573,     -2.32472,     -4.94600,50.00000,51.00000,3.622157e-09,0.91582,3
557.09,112.8,     -2.34844,     -4.94600,50.00000,51.00000,3.612002e-09,0.91581,3
558.229,113.027,     -2.37155,     -4.95450,50.00000,51.00000,3.617113e-09,0.91578,3
559.356,113.253,     -2.39806,     -4.95450,50.00000,51.00000,3.618589e-09,0.91575,3
560.487,113.48,     -2.42091,     -4.95450,50.00000,51.00000,3.618599e-09,0.91573,3
561.635,113.707,     -2.44353,     -4.95450,50.00000,51.00000,3.612765e-09,0.91569,3
562.769,113.933,     -2.46887,     -4.93750,50.00000,51.00000,3.624757e-09,0.91567,3
563.909,114.16,     -2.49225,     -4.88650,50.00000,51.00000,3.616344e-09,0.91566,3
565.039,114.387,     -2.51224,     -4.95450,50.00000,51.00000,3.615150e-09,0.91562,3
566.178,114.613,     -2.53298,     -4.95450,50.00000,51.00000,3.616468e-09,0.91560,3
567.319,114.84,     -2.56026,     -4.92050,50.00000,51.00000,3.609535e-09,0.91558,3
568.459,115.067,     -2.58247,     -4.92050,50.00000,51.00000,3.612282e-09,0.91554,3
569.582,115.293,     -2.60776,     -4.92050,50.00000,51.00000,3.612896e-09,0.91552,3
570.735,115.52,     -2.63216,     -4.94600,50.00000,51.00000,3.618435e-09,0.91548,3
571.868,115.747,     -2.65209,     -4.90350,50.00000,51.00000,3.612720e-09,0.91546,3
573.001,115.973,     -2.67722,     -4.90350,50.00000,51.00000,3.619382e-09,0.91544,3
574.135,116.2,     -2.69828,     -4.92900,50.00000,51.00000,3.625184e-09,0.91541,3
575.278,116.427,     -2.71872,     -4.93750,50.00000,51.00000,3.618234e-09,0.91539,3
576.407,116.653,     -2.74192,     -4.93750,50.00000,51.00000,3.617258e-09,0.91536,3
577.547,116.88,     -2.76416,     -4.90350,50.00000,51.00000,3.612880e-09,0.91533,3
578.677,117.107,     -2.78919,     -4.90350,50.00000,51.00000,3.611125e-09,0.91531,3
579.821,117.333,     -2.81397,     -4.90350,50.00000,51.00000,3.615820e-09,0.91528,3
580.963,117.56,     -2.83498,     -4.90350,50.00000,51.00000,3.612432e-09,0.91525,3
582.09,117.787,     -2.85702,     -4.86950,50.00000,51.00000,3.613037e-09,0.91523,3
583.232,118.013,     -2.87916,     -4.86950,50.00000,51.00000,3.615268e-09,0.91518,3
584.361,118.24,     -2.90408,     -4.89500,50.00000,51.00000,3.615281e-09,0.91517,3
585.502,118.467,     -2.92561,     -4.86950,50.00000,51.00000,3.612546e-09,0.91514,3
586.639,118.693,     -2.94577,     -4.89500,50.00000,51.00000,3.614733e-09,0.91510,3
587.774,118.92,     -2.96387,     -4.87800,50.00000,51.00000,3.610231e-09,0.91508,3
588.919,119.147,     -2.99008,     -4.89500,50.00000,51.00000,3.613598e-09,0.91506,3
590.046,119.373,     -3.01068,     -4.87800,50.00000,51.00000,3.615848e-09,0.91503,3
591.184,119.6,     -3.03557,     -4.87800,50.00000,51.00000,3.611499e-09,0.91500,3
592.309,119.827,     -3.05730,     -4.88650,50.00000,51.00000,3.605407e-09,0.91498,3
593.447,120.053,     -3.07736,     -4.84400,50.00000,51.00000,3.614745e-09,0.91494,3
594.587,120.28,     -3.09464,     -4.87800,50.00000,51.00000,3.618363e-09,0.91492,3
595.73,120.507,     -3.11373,     -4.87800,50.00000,51.00000,3.612884e-09,0.91488,3
596.875,120.733,     -3.13498,     -4.87800,50.00000,51.00000,3.615813e-09,0.91485,3
598.004,120.96,     -3.15763,     -4.87800,50.00000,51.00000,3.620703e-09,0.91483,3
598.559,121.07,     -3.16593,     -4.87800,50.00000,51.00000,3.614250e-09,0.91481,4
599.066,121.155,     -3.10431,     -4.84400,50.00000,51.00000,3.616540e-09,0.91479,4
599.743,121.24,     -2.84652,     -4.84400,50.00000,51.00000,3.616540e-09,0.91479,4
600.648,121.325,     -2.36943,     -4.76500,50.00000,51.00000,3.619426e-09,0.91477,4
601.796,121.41,     -1.70260,     -4.69700,50.00000,51.00000,3.619426e-09,0.91477,4
603.171,121.495,     -0.90984,     -4.66300,50.00000,51.00000,3.616126e-09,0.91475,4
604.739,121.58,-6.769565e-02,     -4.59525,50.00000,51.00000,3.616126e-09,0.91475,4
606.464,121.665,      0.74069,     -4.51600,50.00000,51.00000,3.609281e-09,0.91473,4
608.301,121.75,      1.45465,     -4.44525,50.00000,51.00000,3.609281e-09,0.91473,4
610.162,121.835,      2.03171,     -4.41125,50.00000,51.00000,3.618302e-09,0.91471,4
612.038,121.92,      2.44986,     -4.37750,50.00000,51.00000,3.618302e-09,0.91471,4
613.915,122.005,      2.68941,     -4.35200,50.00000,51.00000,3.617630e-09,0.91468,4
615.713,122.09,      2.77857,     -4.34350,50.00000,51.00000,3.617630e-09,0.91468,4
617.449,122.175,      2.73639,     -4.30950,50.00000,51.00000,3.615273e-09,0.91466,4
619.132,122.26,      2.59003,     -4.30950,50.00000,51.00000,3.615273e-09,0.91466,4
620.731,122.345,      2.37621,     -4.34350,50.00000,51.00000,3.621474e-09,0.91464,4
622.268,122.43,      2.12812,     -4.34350,50.00000,51.00000,3.621474e-09,0.91464,4
623.771,122.515,      1.87623,     -4.34350,50.00000,51.00000,3.618240e-09,0.91462,4
625.242,122.6,      1.64132,     -4.36050,50.00000,51.00000,3.618240e-09,0.91462,4
626.692,122.685,      1.43591,     -4.32650,50.00000,51.00000,3.614683e-09,0.91460,4
628.134,122.77,      1.28503,     -4.33500,50.00000,51.00000,3.614683e-09,0.91460,4
629.603,122.855,      1.17724,     -4.36050,50.00000,51.00000,3.623790e-09,0.91457,4
631.06,122.94,      1.12113,     -4.32375,50.00000,51.00000,3.623790e-09,0.91457,4
632.568,123.025,      1.10306,     -4.32375,50.00000,51.00000,3.613843e-09,0.91456,4
634.109,123.11,      1.11768,     -4.30675,50.00000,51.00000,3.613843e-09,0.91456,4
635.647,123.195,      1.16436,     -4.28975,50.00000,51.00000,3.616107e-09,0.91453,4
637.241,123.28,      1.22120,     -4.25575,50.00000,51.00000,3.616107e-09,0.91453,4
638.852,123.365,      1.28822,     -4.25575,50.00000,51.00000,3.617107e-09,0.91451,4
640.478,123.45,      1.35102,     -4.22175,50.00000,51.00000,3.617107e-09,0.91451,4
642.139,123.535,      1.40518,     -4.18800,50.00000,51.00000,3.611022e-09,0.91449,4
643.798,123.62,      1.44838,     -4.15400,50.00000,51.00000,3.611022e-09,0.91449,4
645.48,123.705,      1.47687,     -4.15400,50.00000,51.00000,3.615650e-09,0.91446,4
647.151,123.79,      1.48829,     -4.15400,50.00000,51.00000,3.615650e-09,0.91446,4
648.837,123.875,      1.48447,     -4.15400,50.00000,51.00000,3.609325e-09,0.91444,4
650.525,123.96,      1.47502,     -4.12000,50.00000,51.00000,3.609325e-09,0.91444,4
652.2,124.045,      1.45054,     -4.08600,50.00000,51.00000,3.612365e-09,0.91442,4
653.898,124.13,      1.42149,     -4.08600,50.00000,51.00000,3.618140e-09,0.91440,4
655.571,124.215,      1.38817,     -4.08600,50.00000,51.00000,3.618140e-09,0.91440,4
657.274,124.3,      1.34499,     -4.08600,50.00000,51.00000,3.612973e-09,0.91438,4
658.951,124.385,      1.30162,     -4.05225,50.00000,51.00000,3.612973e-09,0.91438,4
660.649,124.47,      1.25925,     -4.05225,50.00000,51.00000,3.615779e-09,0.91436,4
662.348,124.555,      1.21673,     -4.05225,50.00000,51.00000,3.615779e-09,0.91436,4
664.05,124.64,      1.17445,     -4.02675,50.00000,51.00000,3.616260e-09,0.91433,4
665.743,124.725,      1.13618,     -4.02675,50.00000,51.00000,3.616260e-09,0.91433,4
667.447,124.81,      1.09208,     -3.98150,50.00000,51.00000,3.612538e-09,0.91431,4
669.158,124.895,      1.05165,     -3.94750,50.00000,51.00000,3.612538e-09,0.91431,4
670.873,124.98,      1.00955,     -3.98150,50.00000,51.00000,3.609567e-09,0.91428,4
672.585,125.065,      0.97074,     -3.98150,50.00000,51.00000,3.609567e-09,0.91428,4
674.313,125.15,      0.92301,     -3.98150,50.00000,51.00000,3.615573e-09,0.91427,4
676.031,125.235,      0.87625,     -3.95600,50.00000,51.00000,3.615573e-09,0.91427,4
677.755,125.32,      0.82857,     -3.94750,50.00000,51.00000,3.616037e-09,0.91424,4
679.48,125.405,      0.77804,     -3.94750,50.00000,51.00000,3.616037e-09,0.91424,4
681.215,125.49,      0.71849,     -3.94750,50.00000,51.00000,3.612104e-09,0.91422,4
682.935,125.575,      0.66606,     -3.93050,50.00000,51.00000,3.612104e-09,0.91422,4
684.675,125.66,      0.61385,     -3.92200,50.00000,51.00000,3.626677e-09,0.91420,4
686.403,125.745,      0.55952,     -3.87675,50.00000,51.00000,3.626677e-09,0.91420,4
688.147,125.83,      0.50230,     -3.87675,50.00000,51.00000,3.611949e-09,0.91418,4
689.876,125.915,      0.44217,     -3.87675,50.00000,51.00000,3.611949e-09,0.91418,4
691.619,126,      0.38379,     -3.87675,50.00000,51.00000,3.622136e-09,0.91415,4
693.354,126.085,      0.31703,     -3.87675,50.00000,51.00000,3.622136e-09,0.91415,4
695.088,126.17,      0.25513,     -3.84275,50.00000,51.00000,3.618183e-09,0.91413,4
696.833,126.255,      0.19029,     -3.84275,50.00000,51.00000,3.618183e-09,0.91413,4
698.566,126.34,      0.12485,     -3.84275,50.00000,51.00000,3.620096e-09,0.91411,4
700.309,126.425, 5.174418e-02,     -3.80900,50.00000,51.00000,3.620096e-09,0.91411,4
702.046,126.51,-9.423163e-03,     -3.80900,50.00000,51.00000,3.614035e-09,0.91409,4
703.784,126.595,-8.415813e-02,     -3.80900,50.00000,51.00000,3.614035e-09,0.91409,4
705.52,126.68,     -0.15283,     -3.80900,50.00000,51.00000,3.615184e-09,0.91407,4
707.269,126.765,     -0.22172,     -3.77500,50.00000,51.00000,3.615184e-09,0.91407,4
709.008,126.85,     -0.29400,     -3.77500,50.00000,51.00000,3.626076e-09,0.91404,4
710.749,126.935,     -0.36412,     -3.74100,50.00000,51.00000,3.624539e-09,0.91401,4
712.496,127.02,     -0.43804,     -3.74100,50.00000,51.00000,3.624539e-09,0.91401,4
714.242,127.105,     -0.51378,     -3.70700,50.00000,51.00000,3.625785e-09,0.91399,4
715.977,127.19,     -0.58936,     -3.70700,50.00000,51.00000,3.625785e-09,0.91399,4
717.721,127.275,     -0.66518,     -3.67325,50.00000,51.00000,3.620937e-09,0.91397,4
719.452,127.36,     -0.74163,     -3.70700,50.00000,51.00000,3.620937e-09,0.91397,4
721.205,127.445,     -0.82512,     -3.67325,50.00000,51.00000,3.616929e-09,0.91395,4
722.942,127.53,     -0.90526,     -3.67325,50.00000,51.00000,3.616929e-09,0.91395,4
724.688,127.615,     -0.98284,     -3.63925,50.00000,51.00000,3.620479e-09,0.91392,4
726.426,127.7,     -1.05986,     -3.63925,50.00000,51.00000,3.620479e-09,0.91392,4
728.163,127.785,     -1.14476,     -3.60525,50.00000,51.00000,3.616669e-09,0.91390,4
729.904,127.87,     -1.22669,     -3.60525,50.00000,51.00000,3.616669e-09,0.91390,4
731.643,127.955,     -1.30807,     -3.57125,50.00000,51.00000,3.619960e-09,0.91388,4
733.389,128.04,     -1.39456,     -3.57125,50.00000,51.00000,3.619960e-09,0.91388,4
735.129,128.125,     -1.47847,     -3.58825,50.00000,51.00000,3.611191e-09,0.91385,4
736.863,128.21,     -1.56142,     -3.59675,50.00000,51.00000,3.611191e-09,0.91385,4
738.603,128.295,     -1.64665,     -3.56275,50.00000,51.00000,3.613092e-09,0.91383,4
740.342,128.38,     -1.73621,     -3.56275,50.00000,51.00000,3.613092e-09,0.91383,4
742.08,128.465,     -1.81626,     -3.52900,50.00000,51.00000,3.620873e-09,0.91381,4
743.823,128.55,     -1.90717,     -3.52900,50.00000,51.00000,3.620873e-09,0.91381,4
745.561,128.635,     -1.99100,     -3.52900,50.00000,51.00000,3.623019e-09,0.91378,4
747.3,128.72,     -2.07508,     -3.52900,50.00000,51.00000,3.623019e-09,0.91378,4
749.033,128.805,     -2.15817,     -3.49500,50.00000,51.00000,3.617426e-09,0.91376,4
750.77,128.89,     -2.24850,     -3.49500,50.00000,51.00000,3.617426e-09,0.91376,4
752.51,128.975,     -2.33171,     -3.49500,50.00000,51.00000,3.620231e-09,0.91374,4
754.249,129.06,     -2.41763,     -3.46100,50.00000,51.00000,3.620231e-09,0.91374,4
755.974,129.145,     -2.50420,     -3.46100,50.00000,51.00000,3.611833e-09,0.91371,4
757.706,129.23,     -2.58898,     -3.46100,50.00000,51.00000,3.611833e-09,0.91371,4
759.441,129.315,     -2.67526,     -3.46100,50.00000,51.00000,3.628038e-09,0.91369,4
761.184,129.4,     -2.76058,     -3.42700,50.00000,51.00000,3.628038e-09,0.91369,4
762.92,129.485,     -2.84572,     -3.41850,50.00000,51.00000,3.611247e-09,0.91367,4
764.647,129.57,     -2.92902,     -3.39325,50.00000,51.00000,3.611247e-09,0.91367,4
766.394,129.655,     -3.01637,     -3.37625,50.00000,51.00000,3.627175e-09,0.91364,4
768.12,129.74,     -3.09392,     -3.37625,50.00000,51.00000,3.613803e-09,0.91362,4
769.846,129.825,     -3.18547,     -3.37625,50.00000,51.00000,3.613803e-09,0.91362,4
771.582,129.91,     -3.26354,     -3.39325,50.00000,51.00000,3.614743e-09,0.91359,4
773.31,129.995,     -3.34140,     -3.39325,50.00000,51.00000,3.614743e-09,0.91359,4
775.044,130.08,     -3.42915,     -3.32525,50.00000,51.00000,3.618100e-09,0.91357,4
776.786,130.165,     -3.51762,     -3.32525,50.00000,51.00000,3.618100e-09,0.91357,4
778.511,130.25,     -3.60125,     -3.32525,50.00000,51.00000,3.612636e-09,0.91354,4
780.245,130.335,     -3.67295,     -3.32525,50.00000,51.00000,3.612636e-09,0.91354,4
781.974,130.42,     -3.75877,     -3.32525,50.00000,51.00000,3.618335e-09,0.91352,4
783.706,130.505,     -3.83979,     -3.32525,50.00000,51.00000,3.618335e-09,0.91352,4
785.431,130.59,     -3.92526,     -3.29975,50.00000,51.00000,3.620348e-09,0.91350,4
787.166,130.675,     -3.98814,     -3.29975,50.00000,51.00000,3.620348e-09,0.91350,4
788.895,130.76,     -4.08430,     -3.29975,50.00000,51.00000,3.619814e-09,0.91347,4
790.621,130.845,     -4.16544,     -3.29975,50.00000,51.00000,            ,0.44865,4
792.358,130.93,     -4.23367,     -3.25450,50.00000,51.00000,            ,0.44795,4
793.788,131,     -4.29410,     -3.25450,50.00000,51.00000,            ,0.44738,4