File: data/TGA/ps_scf3_flynn_ozawa_wall/1K/ExpDat_2025_11_14_SL_PS_Tosoh_A1000_5K_min.csv
#EXPORTTYPE:                 ,DATA ALL
#FILE:                       ,2025_11_14_SL_PS_Tosoh_A1000_5K_min.ngb-ss5
#FORMAT:                     ,NETZSCH5
#FTYPE:                      ,ASCII
#IDENTITY:                   ,PS_A1000
#DECIMAL:                    ,POINT
#SEPARATOR:                  ,COMMA
#MTYPE:                      ,DSC
#INSTRUMENT:                 ,NETZSCH STA 449F5
#PROJECT:                    ,PS
#DATE/TIME:                  ,11/14/2025 4:00:44 PM (UTC-5)
#CORR. FILE:                 ,
#TEMPCAL:                    ,05-05-2025 14:38
#SENSITIVITY:                ,28-06-2023 13:53
#LABORATORY:                 ,Tran/AAG
#OPERATOR:                   ,Stan
#REMARK:                     ,
#SAMPLE:                     ,PS_A1000
#SAMPLE MASS /mg:            ,4.3
#MATERIAL:                   ,
#REFERENCE:                  ,
#REFERENCE MASS /mg:         ,0
#TYPE OF CRUCIBLE:           ,Al2O3 85 �l, open
#SAMPLE CRUCIBLE MASS /mg:   ,0
#REFERENCE CRUCIBLE MASS /mg:,0
#DSC RANGE /�V:              ,5000
#TG RANGE /mg:               ,35000
#TAU-R:                      ,---
#CORR. CODE:                 ,000
#EXO:                        ,-1
#RANGE:                      ,100�C/5.0(K/min)/600�C
#SEGMENT:                    ,S3/4
#SEG. 3:                     ,100�C/5.0(K/min)/600�C

##Temp./�C,Time/min,DSC/(mW/mg),Mass/%,Gas Flow(purge2)/(ml/min),Gas Flow(protective)/(ml/min),TIC(scan:1)/A,Sensit./(uV/mW)
107.853, 21.01333,      0.16509,     87.10814,50.00000,52.00000,3.638016e-09,0.91892
107.829, 21.18667,      0.16509,     87.10814,50.00000,52.00000,3.639917e-09,0.91892
107.825, 21.36000,      0.16509,     87.10814,50.00000,52.00000,3.636642e-09,0.91892
107.851, 21.53333,      0.16509,     87.10814,50.00000,52.00000,3.638016e-09,0.91892
107.908, 21.70667,      0.10002,     86.94767,50.00000,52.00000,3.642534e-09,0.91892
108.015, 21.88000,      0.14501,     87.01605,50.00000,52.00000,3.635201e-09,0.91892
108.17, 22.05333,      0.20836,     87.07907,50.00000,52.00000,3.642200e-09,0.91892
108.407, 22.22667,      0.28910,     87.17907,50.00000,52.00000,3.638231e-09,0.91892
108.668, 22.40000,      0.37584,     87.26326,50.00000,52.00000,3.638940e-09,0.91892
108.984, 22.57333,      0.46782,     87.37395,50.00000,52.00000,3.633875e-09,0.91892
109.329, 22.74667,      0.55480,     87.43698,50.00000,52.00000,3.638584e-09,0.91892
109.697, 22.92000,      0.63582,     87.53163,50.00000,52.00000,3.637715e-09,0.91892
110.081, 23.09333,      0.71009,     87.56326,50.00000,52.00000,3.630425e-09,0.91892
110.49, 23.26667,      0.77319,     87.62651,50.00000,52.00000,3.638019e-09,0.91892
110.912, 23.44000,      0.83012,     87.62651,50.00000,52.00000,3.634679e-09,0.91892
111.347, 23.61333,      0.88050,     87.68953,50.00000,52.00000,3.647539e-09,0.91892
111.786, 23.78667,      0.92645,     87.72116,50.00000,52.00000,3.635689e-09,0.91892
112.267, 23.96000,      0.97089,     87.78419,50.00000,52.00000,3.641835e-09,0.91893
112.752, 24.13333,      1.01746,     87.81581,50.00000,52.00000,3.637357e-09,0.91892
113.274, 24.30667,      1.06291,     87.87907,50.00000,52.00000,3.637481e-09,0.91893
113.799, 24.48000,      1.10954,     87.91047,50.00000,52.00000,3.639588e-09,0.91893
114.37, 24.65333,      1.16027,     87.97372,50.00000,52.00000,3.641067e-09,0.91893
114.958, 24.82667,      1.21451,     88.03674,50.00000,52.00000,3.643357e-09,0.91893
115.552, 25.00000,      1.26840,     88.10000,50.00000,52.00000,3.637149e-09,0.91892
116.197, 25.17333,      1.32717,     88.16326,50.00000,52.00000,3.632756e-09,0.91893
116.853, 25.34667,      1.38366,     88.22628,50.00000,52.00000,3.636229e-09,0.91893
117.55, 25.52000,      1.44427,     88.29209,50.00000,52.00000,3.638840e-09,0.91892
118.247, 25.69333,      1.49930,     88.35512,50.00000,52.00000,3.640960e-09,0.91893
118.997, 25.86667,      1.55652,     88.42093,50.00000,52.00000,3.643951e-09,0.91892
119.733, 26.04000,      1.60796,     88.47628,50.00000,52.00000,3.640958e-09,0.91892
120.494, 26.21333,      1.66080,     88.51581,50.00000,52.00000,3.641850e-09,0.91893
121.267, 26.38667,      1.70768,     88.57884,50.00000,52.00000,3.634790e-09,0.91893
122.065, 26.56000,      1.75577,     88.61047,50.00000,52.00000,3.645976e-09,0.91892
122.876, 26.73333,      1.79925,     88.67349,50.00000,52.00000,3.639223e-09,0.91892
123.697, 26.90667,      1.84161,     88.70512,50.00000,52.00000,3.641557e-09,0.91892
124.552, 27.08000,      1.88131,     88.76837,50.00000,52.00000,3.640854e-09,0.91892
125.404, 27.25333,      1.91968,     88.79977,50.00000,52.00000,3.630724e-09,0.91892
126.276, 27.42667,      1.95616,     88.82349,50.00000,52.00000,3.637921e-09,0.91892
127.148, 27.60000,      1.99054,     88.89465,50.00000,52.00000,3.636846e-09,0.91892
128.018, 27.77333,      2.02495,     88.89465,50.00000,52.00000,3.646933e-09,0.91892
128.921, 27.94667,      2.05709,     88.92605,50.00000,52.00000,3.644875e-09,0.91892
129.831, 28.12000,      2.09024,     88.98930,50.00000,52.00000,3.635036e-09,0.91892
130.746, 28.29333,      2.11935,     89.01302,50.00000,52.00000,3.641448e-09,0.91892
131.665, 28.46667,      2.14888,     89.05233,50.00000,52.00000,3.641784e-09,0.91892
132.603, 28.64000,      2.17613,     89.05233,50.00000,52.00000,3.642183e-09,0.91892
133.532, 28.81333,      2.20087,     89.08395,50.00000,52.00000,3.636804e-09,0.91891
134.482, 28.98667,      2.22624,     89.09977,50.00000,52.00000,3.644463e-09,0.91891
135.415, 29.16000,      2.24754,     89.11558,50.00000,52.00000,3.651434e-09,0.91891
136.367, 29.33333,      2.26947,     89.14721,50.00000,52.00000,3.647255e-09,0.91891
137.334, 29.50667,      2.28851,     89.17860,50.00000,52.00000,3.639564e-09,0.91891
138.297, 29.68000,      2.30758,     89.21023,50.00000,52.00000,3.647290e-09,0.91890
139.264, 29.85333,      2.32376,     89.21023,50.00000,52.00000,3.643321e-09,0.91890
140.231, 30.02667,      2.33917,     89.24186,50.00000,52.00000,3.641240e-09,0.91890
141.2, 30.20000,      2.35403,     89.24186,50.00000,52.00000,3.640828e-09,0.91889
142.174, 30.37333,      2.36677,     89.27349,50.00000,52.00000,3.645064e-09,0.91889
143.135, 30.54667,      2.37932,     89.27349,50.00000,52.00000,3.640802e-09,0.91889
144.131, 30.72000,      2.38978,     89.30512,50.00000,52.00000,3.648761e-09,0.91889
145.102, 30.89333,      2.40043,     89.30512,50.00000,52.00000,3.636855e-09,0.91889
146.073, 31.06667,      2.40973,     89.33651,50.00000,52.00000,3.635263e-09,0.91888
147.039, 31.24000,      2.41747,     89.31279,50.00000,52.00000,3.643916e-09,0.91889
148.027, 31.41333,      2.42664,     89.34442,50.00000,52.00000,3.642225e-09,0.91888
148.993, 31.58667,      2.43285,     89.34442,50.00000,52.00000,3.647046e-09,0.91887
149.98, 31.76000,      2.44009,     89.34442,50.00000,52.00000,3.651955e-09,0.91887
150.936, 31.93333,      2.44396,     89.38395,50.00000,52.00000,3.646779e-09,0.91887
151.901, 32.10667,      2.44944,     89.35233,50.00000,52.00000,3.641728e-09,0.91887
152.867, 32.28000,      2.45198,     89.40767,50.00000,52.00000,3.646950e-09,0.91886
153.841, 32.45333,      2.45553,     89.46279,50.00000,52.00000,3.641406e-09,0.91886
154.802, 32.62667,      2.45809,     89.40233,50.00000,52.00000,3.641840e-09,0.91885
155.762, 32.80000,      2.45988,     89.41023,50.00000,52.00000,3.638588e-09,0.91885
156.718, 32.97333,      2.46128,     89.43395,50.00000,52.00000,3.640133e-09,0.91885
157.684, 33.14667,      2.46330,     89.50488,50.00000,52.00000,3.641511e-09,0.91884
158.627, 33.32000,      2.46292,     89.50233,50.00000,52.00000,3.640241e-09,0.91883
159.585, 33.49333,      2.46219,     89.46558,50.00000,52.00000,3.636176e-09,0.91883
160.538, 33.66667,      2.46403,     89.43395,50.00000,52.00000,3.641935e-09,0.91883
161.467, 33.84000,      2.46228,     89.46558,50.00000,52.00000,3.643823e-09,0.91883
162.421, 34.01333,      2.46275,     89.46558,50.00000,52.00000,3.641391e-09,0.91882
163.364, 34.18667,      2.46124,     89.49698,50.00000,52.00000,3.646248e-09,0.91882
164.289, 34.36000,      2.45912,     89.43395,50.00000,52.00000,3.637947e-09,0.91881
165.223, 34.53333,      2.45642,     89.47070,50.00000,52.00000,3.638886e-09,0.91881
166.156, 34.70667,      2.45333,     89.47070,50.00000,52.00000,3.642204e-09,0.91880
167.089, 34.88000,      2.45283,     89.47070,50.00000,52.00000,3.641939e-09,0.91880
168.013, 35.05333,      2.45073,     89.47070,50.00000,52.00000,3.644374e-09,0.91879
168.939, 35.22667,      2.44885,     89.51814,50.00000,52.00000,3.639504e-09,0.91879
169.855, 35.40000,      2.44735,     89.48651,50.00000,52.00000,3.641892e-09,0.91878
170.777, 35.57333,      2.44647,     89.51814,50.00000,52.00000,3.642979e-09,0.91878
171.706, 35.74667,      2.44421,     89.48651,50.00000,52.00000,3.648260e-09,0.91877
172.603, 35.92000,      2.44171,     89.48651,50.00000,52.00000,3.643956e-09,0.91877
173.519, 36.09333,      2.43925,     89.51814,50.00000,52.00000,3.641263e-09,0.91876
174.423, 36.26667,      2.43657,     89.48651,50.00000,52.00000,3.649019e-09,0.91875
175.331, 36.44000,      2.43370,     89.51814,50.00000,52.00000,3.644097e-09,0.91875
176.234, 36.61333,      2.43244,     89.48651,50.00000,52.00000,3.648970e-09,0.91874
177.141, 36.78667,      2.43178,     89.51814,50.00000,52.00000,3.647582e-09,0.91873
178.039, 36.96000,      2.42932,     89.48651,50.00000,52.00000,3.645681e-09,0.91873
178.938, 37.13333,      2.42726,     89.51814,50.00000,52.00000,3.654165e-09,0.91872
179.83, 37.30667,      2.42601,     89.51814,50.00000,52.00000,3.639550e-09,0.91872
180.72, 37.48000,      2.42555,     89.51814,50.00000,52.00000,3.642192e-09,0.91871
181.622, 37.65333,      2.42292,     89.51814,50.00000,52.00000,3.639024e-09,0.91871
182.521, 37.82667,      2.42210,     89.51814,50.00000,52.00000,3.639020e-09,0.91870
183.411, 38.00000,      2.42046,     89.51814,50.00000,52.00000,3.643225e-09,0.91869
184.298, 38.17333,      2.41903,     89.51814,50.00000,52.00000,3.643124e-09,0.91868
185.195, 38.34667,      2.41903,     89.51814,50.00000,52.00000,3.640019e-09,0.91868
186.085, 38.52000,      2.41862,     89.54977,50.00000,52.00000,3.643812e-09,0.91867
186.969, 38.69333,      2.41700,     89.54977,50.00000,52.00000,3.647056e-09,0.91866
187.843, 38.86667,      2.41617,     89.54977,50.00000,52.00000,3.647448e-09,0.91866
188.736, 39.04000,      2.41458,     89.54977,50.00000,52.00000,3.641669e-09,0.91865
189.62, 39.21333,      2.41459,     89.48651,50.00000,52.00000,3.647157e-09,0.91864
190.511, 39.38667,      2.41241,     89.51814,50.00000,52.00000,3.644352e-09,0.91864
191.386, 39.56000,      2.41181,     89.51814,50.00000,52.00000,3.646861e-09,0.91862
192.264, 39.73333,      2.41001,     89.51814,50.00000,52.00000,3.647561e-09,0.91862
193.136, 39.90667,      2.40882,     89.51023,50.00000,52.00000,3.647045e-09,0.91861
194.028, 40.08000,      2.40706,     89.52070,50.00000,52.00000,3.645211e-09,0.91860
194.903, 40.25333,      2.40568,     89.55233,50.00000,52.00000,3.641149e-09,0.91859
195.768, 40.42667,      2.40631,     89.52070,50.00000,52.00000,3.646355e-09,0.91858
196.638, 40.60000,      2.40494,     89.48907,50.00000,52.00000,3.640437e-09,0.91858
197.529, 40.77333,      2.40360,     89.48907,50.00000,52.00000,3.643375e-09,0.91857
198.395, 40.94667,      2.40447,     89.52070,50.00000,52.00000,3.648162e-09,0.91856
199.253, 41.12000,      2.40308,     89.48907,50.00000,52.00000,3.644975e-09,0.91856
200.126, 41.29333,      2.40214,     89.45767,50.00000,52.00000,3.640564e-09,0.91855
201.01, 41.46667,      2.40225,     89.45767,50.00000,52.00000,3.643679e-09,0.91854
201.879, 41.64000,      2.40192,     89.45488,50.00000,52.00000,3.642883e-09,0.91853
202.734, 41.81333,      2.40341,     89.45488,50.00000,52.00000,3.644292e-09,0.91853
203.608, 41.98667,      2.40168,     89.42349,50.00000,52.00000,3.642576e-09,0.91852
204.471, 42.16000,      2.40116,     89.42349,50.00000,52.00000,3.642920e-09,0.91851
205.352, 42.33333,      2.40273,     89.39186,50.00000,52.00000,3.644099e-09,0.91850
206.214, 42.50667,      2.40324,     89.42349,50.00000,52.00000,3.641774e-09,0.91849
207.073, 42.68000,      2.40192,     89.38930,50.00000,52.00000,3.639375e-09,0.91848
207.951, 42.85333,      2.40371,     89.38930,50.00000,52.00000,3.651126e-09,0.91847
208.805, 43.02667,      2.40054,     89.35767,50.00000,52.00000,3.649836e-09,0.91846
209.68, 43.20000,      2.40275,     89.39698,50.00000,52.00000,3.638389e-09,0.91845
210.535, 43.37333,      2.40205,     89.36558,50.00000,52.00000,3.645191e-09,0.91844
211.391, 43.54667,      2.40074,     89.33395,50.00000,52.00000,3.646319e-09,0.91843
212.256, 43.72000,      2.40214,     89.33395,50.00000,52.00000,3.646735e-09,0.91842
213.109, 43.89333,      2.40248,     89.29977,50.00000,52.00000,3.641638e-09,0.91842
213.989, 44.06667,      2.40310,     89.29977,50.00000,52.00000,3.641716e-09,0.91841
214.845, 44.24000,      2.40367,     89.27605,50.00000,52.00000,3.647860e-09,0.91840
215.713, 44.41333,      2.40283,     89.26814,50.00000,52.00000,3.644710e-09,0.91839
216.578, 44.58667,      2.40344,     89.23651,50.00000,52.00000,3.642944e-09,0.91838
217.442, 44.76000,      2.40405,     89.20512,50.00000,52.00000,3.645579e-09,0.91837
218.299, 44.93333,      2.40300,     89.20512,50.00000,52.00000,3.643110e-09,0.91836
219.166, 45.10667,      2.40404,     89.20512,50.00000,52.00000,3.645243e-09,0.91836
220.025, 45.28000,      2.40280,     89.17349,50.00000,52.00000,3.636184e-09,0.91834
220.887, 45.45333,      2.40509,     89.14186,50.00000,52.00000,3.644404e-09,0.91833
221.746, 45.62667,      2.40655,     89.11023,50.00000,52.00000,3.644833e-09,0.91832
222.611, 45.80000,      2.40513,     89.08140,50.00000,52.00000,3.640944e-09,0.91832
223.482, 45.97333,      2.40643,     89.06558,50.00000,52.00000,3.642365e-09,0.91831
224.33, 46.14667,      2.40789,     89.04977,50.00000,52.00000,3.646582e-09,0.91830
225.2, 46.32000,      2.40879,     88.98674,50.00000,52.00000,3.648219e-09,0.91829
226.063, 46.49333,      2.40968,     88.98674,50.00000,52.00000,3.646834e-09,0.91827
226.927, 46.66667,      2.41120,     88.92349,50.00000,52.00000,3.643717e-09,0.91826
227.788, 46.84000,      2.41106,     88.92349,50.00000,52.00000,3.644604e-09,0.91826
228.633, 47.01333,      2.41234,     88.89186,50.00000,52.00000,3.644586e-09,0.91825
229.515, 47.18667,      2.41623,     88.86047,50.00000,52.00000,3.637330e-09,0.91823
230.371, 47.36000,      2.41651,     88.82884,50.00000,52.00000,3.646001e-09,0.91822
231.238, 47.53333,      2.41704,     88.79721,50.00000,52.00000,3.637514e-09,0.91822
232.1, 47.70667,      2.41944,     88.76558,50.00000,52.00000,3.645831e-09,0.91821
232.967, 47.88000,      2.42040,     88.70256,50.00000,52.00000,3.641358e-09,0.91820
233.829, 48.05333,      2.42093,     88.70256,50.00000,52.00000,3.640652e-09,0.91819
234.678, 48.22667,      2.42165,     88.67093,50.00000,52.00000,3.645734e-09,0.91818
235.54, 48.40000,      2.42178,     88.63930,50.00000,52.00000,3.639889e-09,0.91817
236.406, 48.57333,      2.42234,     88.60767,50.00000,52.00000,3.644409e-09,0.91817
237.273, 48.74667,      2.42291,     88.57628,50.00000,52.00000,3.635676e-09,0.91815
238.127, 48.92000,      2.42430,     88.52884,50.00000,52.00000,3.641171e-09,0.91814
238.977, 49.09333,      2.42696,     88.47628,50.00000,52.00000,3.642207e-09,0.91813
239.847, 49.26667,      2.42903,     88.44465,50.00000,52.00000,3.646573e-09,0.91812
240.72, 49.44000,      2.43092,     88.41302,50.00000,52.00000,3.638837e-09,0.91810
241.583, 49.61333,      2.43257,     88.38163,50.00000,52.00000,3.640431e-09,0.91809
242.434, 49.78667,      2.43315,     88.35000,50.00000,52.00000,3.641937e-09,0.91808
243.301, 49.96000,      2.43356,     88.31837,50.00000,52.00000,3.639459e-09,0.91807
244.168, 50.13333,      2.43503,     88.23163,50.00000,52.00000,3.630128e-09,0.91807
245.022, 50.30667,      2.43521,     88.19209,50.00000,52.00000,3.635673e-09,0.91805
245.896, 50.48000,      2.43481,     88.19209,50.00000,52.00000,3.641041e-09,0.91804
246.753, 50.65333,      2.43586,     88.12884,50.00000,52.00000,3.642104e-09,0.91803
247.618, 50.82667,      2.43523,     88.06581,50.00000,52.00000,3.635738e-09,0.91802
248.483, 51.00000,      2.43481,     88.03419,50.00000,52.00000,3.636607e-09,0.91801
249.324, 51.17333,      2.43456,     88.00000,50.00000,52.00000,3.643069e-09,0.91800
250.192, 51.34667,      2.43502,     87.93698,50.00000,52.00000,3.642767e-09,0.91799
251.056, 51.52000,      2.43718,     87.83953,50.00000,52.00000,3.639018e-09,0.91798
251.927, 51.69333,      2.43808,     87.80791,50.00000,52.00000,3.640522e-09,0.91797
252.789, 51.86667,      2.43982,     87.77628,50.00000,52.00000,3.644282e-09,0.91796
253.645, 52.04000,      2.44070,     87.74488,50.00000,52.00000,3.643154e-09,0.91795
254.527, 52.21333,      2.43994,     87.68419,50.00000,52.00000,3.642308e-09,0.91794
255.383, 52.38667,      2.44212,     87.61326,50.00000,52.00000,3.645026e-09,0.91793
256.242, 52.56000,      2.44303,     87.55000,50.00000,52.00000,3.643516e-09,0.91792
257.114, 52.73333,      2.44376,     87.48698,50.00000,52.00000,3.644648e-09,0.91791
257.973, 52.90667,      2.44360,     87.42372,50.00000,52.00000,3.645078e-09,0.91790
258.842, 53.08000,      2.44283,     87.36070,50.00000,52.00000,3.639024e-09,0.91789
259.699, 53.25333,      2.44332,     87.29744,50.00000,52.00000,3.639181e-09,0.91788
260.561, 53.42667,      2.44275,     87.24233,50.00000,52.00000,3.638997e-09,0.91786
261.432, 53.60000,      2.44264,     87.17116,50.00000,52.00000,3.642297e-09,0.91785
262.291, 53.77333,      2.44121,     87.12907,50.00000,52.00000,3.644020e-09,0.91783
263.148, 53.94667,      2.44129,     87.03977,50.00000,52.00000,3.633076e-09,0.91782
264.016, 54.12000,      2.44205,     86.98186,50.00000,52.00000,3.648328e-09,0.91782
264.877, 54.29333,      2.44366,     86.91860,50.00000,52.00000,3.640568e-09,0.91780
265.748, 54.46667,      2.44444,     86.83721,50.00000,52.00000,3.640492e-09,0.91779
266.605, 54.64000,      2.44301,     86.74233,50.00000,52.00000,3.640727e-09,0.91778
267.472, 54.81333,      2.44466,     86.67930,50.00000,52.00000,3.639150e-09,0.91777
268.339, 54.98667,      2.44653,     86.61605,50.00000,52.00000,3.634896e-09,0.91776
269.201, 55.16000,      2.44535,     86.55023,50.00000,52.00000,3.636034e-09,0.91775
270.064, 55.33333,      2.44483,     86.45558,50.00000,52.00000,3.646162e-09,0.91775
270.931, 55.50667,      2.44323,     86.38465,50.00000,52.00000,3.642744e-09,0.91773
271.8, 55.68000,      2.44469,     86.28721,50.00000,52.00000,3.644530e-09,0.91772
272.658, 55.85333,      2.44372,     86.19256,50.00000,52.00000,3.645970e-09,0.91771
273.525, 56.02667,      2.44322,     86.09256,50.00000,52.00000,3.644408e-09,0.91769
274.384, 56.20000,      2.44445,     86.02930,50.00000,52.00000,3.647881e-09,0.91768
275.256, 56.37333,      2.44375,     85.93209,50.00000,52.00000,3.645773e-09,0.91766
276.11, 56.54667,      2.44476,     85.83465,50.00000,52.00000,3.646607e-09,0.91764
276.974, 56.72000,      2.44492,     85.76884,50.00000,52.00000,3.636185e-09,0.91764
277.836, 56.89333,      2.44464,     85.67419,50.00000,52.00000,3.647467e-09,0.91762
278.696, 57.06667,      2.44546,     85.57163,50.00000,52.00000,3.645900e-09,0.91762
279.556, 57.24000,      2.44364,     85.48209,50.00000,52.00000,3.639643e-09,0.91760
280.43, 57.41333,      2.44341,     85.35326,50.00000,52.00000,3.636691e-09,0.91759
281.293, 57.58667,      2.44336,     85.25860,50.00000,52.00000,3.630451e-09,0.91758
282.154, 57.76000,      2.44265,     85.18744,50.00000,52.00000,3.646805e-09,0.91757
283.035, 57.93333,      2.44244,     85.05581,50.00000,52.00000,3.641593e-09,0.91756
283.881, 58.10667,      2.44280,     84.93488,50.00000,52.00000,3.641925e-09,0.91754
284.759, 58.28000,      2.44171,     84.84023,50.00000,52.00000,3.644372e-09,0.91753
285.617, 58.45333,      2.44144,     84.74535,50.00000,52.00000,3.640069e-09,0.91752
286.483, 58.62667,      2.44120,     84.60605,50.00000,52.00000,3.640154e-09,0.91751
287.349, 58.80000,      2.43918,     84.50605,50.00000,52.00000,3.643468e-09,0.91749
288.22, 58.97333,      2.43696,     84.40349,50.00000,52.00000,3.642245e-09,0.91749
289.076, 59.14667,      2.43580,     84.30860,50.00000,52.00000,3.639163e-09,0.91747
289.94, 59.32000,      2.43400,     84.17442,50.00000,52.00000,3.647459e-09,0.91746
290.8, 59.49333,      2.43353,     84.04558,50.00000,52.00000,3.640169e-09,0.91745
291.677, 59.66667,      2.43176,     83.94558,50.00000,52.00000,3.640719e-09,0.91744
292.527, 59.84000,      2.43015,     83.84047,50.00000,52.00000,3.638944e-09,0.91741
293.391, 60.01333,      2.42834,     83.71930,50.00000,52.00000,3.636818e-09,0.91740
294.264, 60.18667,      2.42836,     83.58791,50.00000,52.00000,3.639317e-09,0.91739
295.118, 60.36000,      2.42608,     83.48791,50.00000,52.00000,3.633962e-09,0.91738
295.984, 60.53333,      2.42607,     83.30372,50.00000,52.00000,3.640144e-09,0.91736
296.837, 60.70667,      2.42514,     83.20372,50.00000,52.00000,3.641469e-09,0.91735
297.72, 60.88000,      2.42609,     83.09581,50.00000,52.00000,3.634247e-09,0.91734
298.561, 61.05333,      2.42219,     82.97744,50.00000,52.00000,3.638836e-09,0.91733
299.428, 61.22667,      2.42242,     82.80628,50.00000,52.00000,3.641850e-09,0.91731
300.296, 61.40000,      2.42198,     82.70907,50.00000,52.00000,3.629403e-09,0.91730
301.159, 61.57333,      2.41747,     82.59860,50.00000,52.00000,3.639269e-09,0.91729
302.023, 61.74667,      2.41633,     82.46698,50.00000,52.00000,3.641517e-09,0.91728
302.897, 61.92000,      2.41410,     82.28814,50.00000,52.00000,3.636636e-09,0.91726
303.756, 62.09333,      2.41341,     82.15651,50.00000,52.00000,3.642147e-09,0.91725
304.626, 62.26667,      2.41705,     82.05907,50.00000,52.00000,3.643089e-09,0.91724
305.476, 62.44000,      2.42087,     81.88279,50.00000,52.00000,3.635401e-09,0.91722
306.348, 62.61333,      2.42431,     81.75395,50.00000,52.00000,3.642971e-09,0.91721
307.21, 62.78667,      2.42933,     81.61442,50.00000,52.00000,3.640360e-09,0.91720
308.08, 62.96000,      2.43415,     81.51721,50.00000,52.00000,3.641753e-09,0.91719
308.941, 63.13333,      2.44625,     81.34349,50.00000,52.00000,3.638438e-09,0.91716
309.805, 63.30667,      2.45815,     81.20419,50.00000,52.00000,3.643027e-09,0.91714
310.67, 63.48000,      2.46598,     81.09093,50.00000,52.00000,3.646722e-09,0.91713
311.539, 63.65333,      2.47246,     80.92512,50.00000,52.00000,3.634191e-09,0.91711
312.4, 63.82667,      2.47551,     80.75419,50.00000,52.00000,3.645970e-09,0.91710
313.262, 64.00000,      2.48200,     80.62000,50.00000,52.00000,3.639048e-09,0.91709
314.118, 64.17333,      2.48940,     80.48581,50.00000,52.00000,3.645217e-09,0.91708
314.986, 64.34667,      2.50306,     80.34372,50.00000,52.00000,3.635630e-09,0.91706
315.857, 64.52000,      2.51859,     80.14907,50.00000,52.00000,3.636368e-09,0.91705
316.723, 64.69333,      2.53644,     79.99651,50.00000,52.00000,3.638365e-09,0.91704
317.584, 64.86667,      2.55800,     79.88860,50.00000,52.00000,3.641857e-09,0.91702
318.433, 65.04000,      2.59155,     79.67279,50.00000,52.00000,3.639046e-09,0.91701
319.309, 65.21333,      2.61742,     79.54395,50.00000,52.00000,3.641886e-09,0.91699
320.175, 65.38667,      2.64146,     79.36767,50.00000,52.00000,3.646786e-09,0.91698
321.035, 65.56000,      2.66854,     79.22302,50.00000,52.00000,3.647492e-09,0.91697
321.902, 65.73333,      2.68715,     79.08349,50.00000,52.00000,3.642999e-09,0.91695
322.77, 65.90667,      2.74217,     78.89930,50.00000,52.00000,3.641630e-09,0.91694
323.635, 66.08000,      2.74279,     78.71256,50.00000,52.00000,3.639863e-09,0.91692
324.499, 66.25333,      2.75247,     78.53628,50.00000,52.00000,3.641492e-09,0.91691
325.362, 66.42667,      2.75636,     78.35465,50.00000,52.00000,3.639871e-09,0.91688
326.225, 66.60000,      2.76514,     78.22837,50.00000,52.00000,3.642539e-09,0.91686
327.095, 66.77333,      2.77863,     77.98628,50.00000,52.00000,3.637597e-09,0.91685
327.957, 66.94667,      2.78419,     77.81535,50.00000,52.00000,3.640198e-09,0.91683
328.819, 67.12000,      2.78416,     77.59442,50.00000,52.00000,3.643061e-09,0.91682
329.693, 67.29333,      2.78861,     77.41279,50.00000,52.00000,3.643122e-09,0.91680
330.561, 67.46667,      2.79492,     77.20488,50.00000,52.00000,3.641685e-09,0.91679
331.411, 67.64000,      2.80283,     77.01814,50.00000,52.00000,3.636440e-09,0.91678
332.277, 67.81333,      2.80964,     76.83930,50.00000,52.00000,3.635360e-09,0.91676
333.15, 67.98667,      2.81930,     76.61814,50.00000,52.00000,3.636918e-09,0.91674
334.012, 68.16000,      2.82589,     76.44721,50.00000,52.00000,3.640300e-09,0.91673
334.872, 68.33333,      2.83532,     76.23140,50.00000,52.00000,3.642187e-09,0.91671
335.742, 68.50667,      2.84150,     76.02093,50.00000,52.00000,3.646892e-09,0.91670
336.608, 68.68000,      2.85593,     75.82093,50.00000,52.00000,3.642015e-09,0.91668
337.471, 68.85333,      2.86402,     75.60256,50.00000,52.00000,3.635948e-09,0.91667
338.344, 69.02667,      2.87475,     75.40279,50.00000,52.00000,3.640169e-09,0.91665
339.198, 69.20000,      2.88450,     75.16581,50.00000,52.00000,3.643198e-09,0.91664
340.067, 69.37333,      2.89337,     74.92116,50.00000,52.00000,3.633444e-09,0.91662
340.911, 69.54667,      2.90407,     74.73698,50.00000,52.00000,3.648159e-09,0.91661
341.781, 69.72000,      2.91798,     74.50558,50.00000,52.00000,3.637876e-09,0.91658
342.65, 69.89333,      2.92882,     74.27395,50.00000,52.00000,3.640708e-09,0.91656
343.51, 70.06667,      2.93870,     74.07395,50.00000,52.00000,3.632605e-09,0.91655
344.386, 70.24000,      2.94510,     73.88977,50.00000,52.00000,3.644716e-09,0.91653
345.242, 70.41333,      2.95953,     73.62674,50.00000,52.00000,3.639935e-09,0.91652
346.113, 70.58667,      2.97931,     73.41884,50.00000,52.00000,3.639864e-09,0.91650
346.983, 70.76000,      2.98718,     73.12419,50.00000,52.00000,3.642136e-09,0.91648
347.834, 70.93333,      2.99093,     72.94535,50.00000,52.00000,3.642321e-09,0.91646
348.699, 71.10667,      2.99498,     72.66907,50.00000,52.00000,3.638544e-09,0.91644
349.558, 71.28000,      3.00237,     72.44814,50.00000,52.00000,3.644688e-09,0.91643
350.433, 71.45333,      3.00529,     72.15605,50.00000,52.00000,3.647221e-09,0.91641
351.294, 71.62667,      3.01127,     71.94558,50.00000,52.00000,3.641637e-09,0.91640
352.166, 71.80000,      3.03199,     71.68767,50.00000,52.00000,3.640060e-09,0.91638
353.024, 71.97333,      3.04137,     71.40884,50.00000,52.00000,3.643390e-09,0.91637
353.895, 72.14667,      3.04722,     71.18256,50.00000,52.00000,3.641474e-09,0.91635
354.766, 72.32000,      3.04921,     70.89047,50.00000,52.00000,3.643587e-09,0.91634
355.629, 72.49333,      3.04345,     70.59581,50.00000,52.00000,3.640753e-09,0.91632
356.487, 72.66667,      3.04733,     70.34326,50.00000,52.00000,3.638557e-09,0.91630
357.351, 72.84000,      3.06674,     70.04860,50.00000,52.00000,3.645284e-09,0.91628
358.229, 73.01333,      3.07243,     69.76698,50.00000,52.00000,3.644206e-09,0.91627
359.072, 73.18667,      3.07095,     69.46442,50.00000,52.00000,3.642759e-09,0.91625
359.953, 73.36000,      3.06525,     69.15930,50.00000,52.00000,3.641183e-09,0.91622
360.81, 73.53333,      3.09324,     68.88047,50.00000,52.00000,3.644467e-09,0.91620
361.681, 73.70667,      3.08873,     68.53302,50.00000,52.00000,3.640081e-09,0.91618
362.552, 73.88000,      3.08591,     68.24372,50.00000,52.00000,3.639717e-09,0.91617
363.411, 74.05333,      3.11110,     67.91488,50.00000,52.00000,3.632253e-09,0.91615
364.274, 74.22667,      3.10656,     67.58070,50.00000,52.00000,3.643764e-09,0.91613
365.132, 74.40000,      3.12399,     67.22023,50.00000,52.00000,3.636101e-09,0.91611
366.007, 74.57333,      3.12073,     66.86512,50.00000,52.00000,3.634995e-09,0.91609
366.875, 74.74667,      3.12649,     66.53093,50.00000,52.00000,3.639568e-09,0.91608
367.734, 74.92000,      3.11800,     66.18093,50.00000,52.00000,3.643519e-09,0.91606
368.611, 75.09333,      3.14125,     65.75744,50.00000,52.00000,3.640123e-09,0.91604
369.467, 75.26667,      3.15365,     65.43372,50.00000,52.00000,3.644833e-09,0.91602
370.332, 75.44000,      3.16783,     65.01023,50.00000,52.00000,3.637341e-09,0.91600
371.199, 75.61333,      3.17195,     64.59186,50.00000,52.00000,3.634059e-09,0.91599
372.061, 75.78667,      3.13112,     64.22884,50.00000,52.00000,3.637965e-09,0.91597
372.923, 75.96000,      3.17645,     63.73674,50.00000,52.00000,3.640784e-09,0.91595
373.787, 76.13333,      3.16795,     63.31837,50.00000,52.00000,3.648556e-09,0.91593
374.653, 76.30667,      3.17629,     62.86581,50.00000,52.00000,3.639499e-09,0.91592
375.521, 76.48000,      3.18415,     62.39233,50.00000,52.00000,3.634124e-09,0.91590
376.378, 76.65333,      3.18751,     61.93186,50.00000,52.00000,3.641538e-09,0.91586
377.251, 76.82667,      3.15268,     61.42674,50.00000,52.00000,3.646714e-09,0.91584
378.108, 77.00000,      3.15850,     60.91884,50.00000,52.00000,3.639071e-09,0.91582
378.965, 77.17333,      3.14615,     60.38488,50.00000,52.00000,3.638124e-09,0.91580
379.828, 77.34667,      3.15623,     59.82186,50.00000,52.00000,3.646021e-09,0.91579
380.689, 77.52000,      3.09268,     59.26930,50.00000,52.00000,3.639748e-09,0.91577
381.558, 77.69333,      3.13200,     58.64302,50.00000,52.00000,3.644431e-09,0.91575
382.433, 77.86667,      3.11337,     58.08279,50.00000,52.00000,3.638864e-09,0.91573
383.298, 78.04000,      3.16455,     57.46442,50.00000,52.00000,3.636279e-09,0.91571
384.171, 78.21333,      3.16422,     56.87767,50.00000,52.00000,3.631455e-09,0.91569
385.023, 78.38667,      3.16529,     56.22512,50.00000,52.00000,3.641883e-09,0.91568
385.888, 78.56000,      3.09654,     55.57000,50.00000,52.00000,3.637140e-09,0.91565
386.76, 78.73333,      3.14267,     54.87023,50.00000,52.00000,3.641992e-09,0.91564
387.612, 78.90667,      3.10265,     54.20186,50.00000,52.00000,3.633139e-09,0.91562
388.479, 79.08000,      3.16880,     53.47837,50.00000,52.00000,3.641015e-09,0.91560
389.357, 79.25333,      3.14928,     52.72860,50.00000,52.00000,3.643602e-09,0.91558
390.22, 79.42667,      3.09602,     52.03651,50.00000,52.00000,3.633442e-09,0.91556
391.075, 79.60000,      3.18410,     51.30791,50.00000,52.00000,3.630220e-09,0.91554
391.937, 79.77333,      3.10262,     50.51860,50.00000,52.00000,3.639712e-09,0.91552
392.799, 79.94667,      3.13867,     49.74233,50.00000,52.00000,3.645295e-09,0.91550
393.658, 80.12000,      3.18368,     48.92140,50.00000,52.00000,3.642890e-09,0.91546
394.532, 80.29333,      3.13934,     48.17953,50.00000,52.00000,3.638233e-09,0.91544
395.398, 80.46667,      3.13788,     47.37186,50.00000,52.00000,3.643042e-09,0.91542
396.255, 80.64000,      3.16978,     46.48767,50.00000,52.00000,3.636376e-09,0.91541
397.126, 80.81333,      3.17169,     45.70628,50.00000,52.00000,3.634677e-09,0.91538
397.978, 80.98667,      3.12447,     44.80651,50.00000,52.00000,3.634011e-09,0.91536
398.856, 81.16000,      3.14937,     43.96465,50.00000,52.00000,3.638848e-09,0.91534
399.712, 81.33333,      3.15248,     43.05163,50.00000,52.00000,3.639552e-09,0.91532
400.578, 81.50667,      3.21049,     42.20186,50.00000,52.00000,3.642638e-09,0.91530
401.445, 81.68000,      3.18240,     41.31512,50.00000,52.00000,3.640825e-09,0.91529
402.312, 81.85333,      3.20614,     40.37070,50.00000,52.00000,3.640852e-09,0.91526
403.183, 82.02667,      3.18339,     39.46558,50.00000,52.00000,3.636434e-09,0.91524
404.036, 82.20000,      3.18111,     38.51581,50.00000,52.00000,3.637854e-09,0.91523
404.895, 82.37333,      3.16492,     37.58442,50.00000,52.00000,3.642843e-09,0.91521
405.783, 82.54667,      3.17360,     36.61884,50.00000,52.00000,3.639343e-09,0.91518
406.642, 82.72000,      3.14935,     35.65860,50.00000,52.00000,3.641073e-09,0.91516
407.519, 82.89333,      3.11398,     34.74558,50.00000,52.00000,3.646599e-09,0.91514
408.374, 83.06667,      3.16342,     33.73000,50.00000,52.00000,3.632613e-09,0.91512
409.238, 83.24000,      3.14504,     32.72744,50.00000,52.00000,3.638261e-09,0.91510
410.105, 83.41333,      3.14040,     31.75674,50.00000,52.00000,3.638310e-09,0.91508
410.969, 83.58667,      3.12143,     30.76209,50.00000,52.00000,3.640218e-09,0.91506
411.836, 83.76000,      3.08706,     29.73860,50.00000,52.00000,3.642162e-09,0.91502
412.695, 83.93333,      3.08542,     28.71000,50.00000,52.00000,3.642053e-09,0.91500
413.565, 84.10667,      3.04363,     27.70233,50.00000,52.00000,3.638541e-09,0.91497
414.432, 84.28000,      3.01845,     26.67884,50.00000,52.00000,3.637926e-09,0.91496
415.299, 84.45333,      3.00680,     25.64488,50.00000,52.00000,3.636343e-09,0.91494
416.167, 84.62667,      2.95664,     24.56349,50.00000,52.00000,3.640352e-09,0.91492
417.029, 84.80000,      2.94120,     23.55326,50.00000,52.00000,3.639838e-09,0.91489
417.887, 84.97333,      2.88974,     22.54279,50.00000,52.00000,3.632210e-09,0.91487
418.767, 85.14667,      2.86952,     21.47209,50.00000,52.00000,3.642426e-09,0.91485
419.624, 85.32000,      2.82654,     20.44860,50.00000,52.00000,3.640404e-09,0.91482
420.498, 85.49333,      2.77140,     19.43558,50.00000,52.00000,3.630206e-09,0.91481
421.361, 85.66667,      2.72874,     18.40163,50.00000,52.00000,3.645701e-09,0.91479
422.234, 85.84000,      2.65698,     17.35721,50.00000,52.00000,3.643283e-09,0.91476
423.102, 86.01333,      2.60406,     16.38093,50.00000,52.00000,3.637242e-09,0.91474
423.969, 86.18667,      2.53804,     15.39953,50.00000,52.00000,3.647225e-09,0.91472
424.838, 86.36000,      2.47744,     14.37884,50.00000,52.00000,3.645354e-09,0.91470
425.706, 86.53333,      2.41536,     13.38163,50.00000,52.00000,3.640745e-09,0.91468
426.577, 86.70667,      2.34889,     12.45814,50.00000,52.00000,3.646239e-09,0.91466
427.441, 86.88000,      2.27773,     11.52140,50.00000,52.00000,3.641158e-09,0.91463
428.304, 87.05333,      2.20107,     10.60070,50.00000,52.00000,3.635504e-09,0.91462
429.17, 87.22667,      2.12690,      9.72186,50.00000,52.00000,3.636284e-09,0.91459
430.039, 87.40000,      2.04403,      8.85093,50.00000,52.00000,3.642618e-09,0.91457
430.902, 87.57333,      1.97670,      7.96442,50.00000,52.00000,3.633888e-09,0.91455
431.763, 87.74667,      1.90118,      7.19605,50.00000,52.00000,3.642878e-09,0.91453
432.635, 87.92000,      1.82793,      6.38302,50.00000,52.00000,3.642175e-09,0.91450
433.5, 88.09333,      1.74886,      5.59116,50.00000,52.00000,3.638388e-09,0.91446
434.358, 88.26667,      1.67763,      4.88860,50.00000,52.00000,3.638873e-09,0.91444
435.244, 88.44000,      1.61032,      4.21512,50.00000,52.00000,3.638019e-09,0.91441
436.118, 88.61333,      1.54175,      3.54698,50.00000,52.00000,3.641636e-09,0.91440
436.977, 88.78667,      1.48188,      2.86535,50.00000,52.00000,3.638045e-09,0.91437
437.844, 88.96000,      1.41541,      2.27884,50.00000,52.00000,3.641104e-09,0.91435
438.707, 89.13333,      1.35660,      1.74465,50.00000,52.00000,3.634472e-09,0.91433
439.573, 89.30667,      1.30171,      1.16326,50.00000,52.00000,3.637654e-09,0.91431
440.445, 89.48000,      1.24372,      0.64488,50.00000,52.00000,3.644295e-09,0.91429
441.311, 89.65333,      1.19886,      0.12140,50.00000,52.00000,3.639384e-09,0.91426
442.173, 89.82667,      1.16391,     -0.33116,50.00000,52.00000,3.639767e-09,0.91424
443.041, 90.00000,      1.12346,     -0.73116,50.00000,52.00000,3.647195e-09,0.91422
443.915, 90.17333,      1.08239,     -1.16535,50.00000,52.00000,3.642487e-09,0.91419
444.773, 90.34667,      1.04119,     -1.56256,50.00000,52.00000,3.643427e-09,0.91416
445.642, 90.52000,      1.00209,     -1.92837,50.00000,52.00000,3.640225e-09,0.91414
446.519, 90.69333,      0.96536,     -2.28093,50.00000,52.00000,3.641370e-09,0.91412
447.375, 90.86667,      0.92524,     -2.58070,50.00000,52.00000,3.637225e-09,0.91410
448.246, 91.04000,      0.88887,     -2.89651,50.00000,52.00000,3.648097e-09,0.91407
449.116, 91.21333,      0.84968,     -3.18860,50.00000,52.00000,3.642819e-09,0.91405
449.978, 91.38667,      0.81586,     -3.42535,50.00000,52.00000,3.643557e-09,0.91400
450.844, 91.56000,      0.78527,     -3.69372,50.00000,52.00000,3.637477e-09,0.91398
451.713, 91.73333,      0.75048,     -3.89628,50.00000,52.00000,3.645849e-09,0.91396
452.585, 91.90667,      0.71974,     -4.09093,50.00000,52.00000,3.653592e-09,0.91394
453.451, 92.08000,      0.68672,     -4.29884,50.00000,52.00000,3.642064e-09,0.91391
454.324, 92.25333,      0.65913,     -4.44349,50.00000,52.00000,3.638430e-09,0.91389
455.19, 92.42667,      0.63203,     -4.60674,50.00000,52.00000,3.647024e-09,0.91387
456.056, 92.60000,      0.60459,     -4.74093,50.00000,52.00000,3.641931e-09,0.91385
456.916, 92.77333,      0.58205,     -4.84605,50.00000,52.00000,3.644168e-09,0.91382
457.778, 92.94667,      0.55670,     -4.97767,50.00000,52.00000,3.642189e-09,0.91380
458.657, 93.12000,      0.53546,     -5.07767,50.00000,52.00000,3.640587e-09,0.91377
459.513, 93.29333,      0.51526,     -5.20651,50.00000,52.00000,3.644638e-09,0.91375
460.381, 93.46667,      0.49446,     -5.26186,50.00000,52.00000,3.649850e-09,0.91372
461.256, 93.64000,      0.47473,     -5.33535,50.00000,52.00000,3.639660e-09,0.91370
462.123, 93.81333,      0.45412,     -5.39860,50.00000,52.00000,3.644712e-09,0.91367
462.989, 93.98667,      0.43624,     -5.49605,50.00000,52.00000,3.636013e-09,0.91365
463.863, 94.16000,      0.41805,     -5.52744,50.00000,52.00000,3.637569e-09,0.91363
464.717, 94.33333,      0.39729,     -5.55907,50.00000,52.00000,3.638865e-09,0.91360
465.585, 94.50667,      0.38069,     -5.59070,50.00000,52.00000,3.646621e-09,0.91358
466.463, 94.68000,      0.36125,     -5.62233,50.00000,52.00000,3.640092e-09,0.91353
467.317, 94.85333,      0.34848,     -5.65372,50.00000,52.00000,3.643611e-09,0.91351
468.187, 95.02667,      0.33428,     -5.68535,50.00000,52.00000,3.640786e-09,0.91348
469.051, 95.20000,      0.32146,     -5.68535,50.00000,52.00000,3.641646e-09,0.91346
469.924, 95.37333,      0.30748,     -5.71698,50.00000,52.00000,3.636759e-09,0.91343
470.784, 95.54667,      0.29459,     -5.74860,50.00000,52.00000,3.638244e-09,0.91341
471.651, 95.72000,      0.28112,     -5.76442,50.00000,52.00000,3.639547e-09,0.91338
472.521, 95.89333,      0.26817,     -5.79581,50.00000,52.00000,3.639008e-09,0.91336
473.378, 96.06667,      0.25519,     -5.82744,50.00000,52.00000,3.643145e-09,0.91333
474.261, 96.24000,      0.24134,     -5.82744,50.00000,52.00000,3.643203e-09,0.91331
475.121, 96.41333,      0.22830,     -5.85907,50.00000,52.00000,3.639330e-09,0.91329
475.984, 96.58667,      0.21211,     -5.89070,50.00000,52.00000,3.639543e-09,0.91326
476.854, 96.76000,      0.19674,     -5.89070,50.00000,52.00000,3.648465e-09,0.91324
477.706, 96.93333,      0.18190,     -5.93000,50.00000,52.00000,3.642074e-09,0.91321
478.565, 97.10667,      0.16731,     -5.93791,50.00000,52.00000,3.643813e-09,0.91318
479.436, 97.28000,      0.15240,     -5.98535,50.00000,52.00000,3.638293e-09,0.91316
480.301, 97.45333,      0.13774,     -5.98535,50.00000,52.00000,3.639592e-09,0.91313
481.174, 97.62667,      0.12734,     -5.95372,50.00000,52.00000,3.634155e-09,0.91308
482.039, 97.80000,      0.11262,     -5.95372,50.00000,52.00000,3.641748e-09,0.91306
482.905, 97.97333, 9.872420e-02,     -6.01698,50.00000,52.00000,3.642829e-09,0.91303
483.763, 98.14667, 8.279210e-02,     -5.98535,50.00000,52.00000,3.638833e-09,0.91301
484.632, 98.32000, 6.940628e-02,     -6.01698,50.00000,52.00000,3.645469e-09,0.91298
485.492, 98.49333, 5.484078e-02,     -6.04837,50.00000,52.00000,3.643559e-09,0.91296
486.347, 98.66667, 4.282922e-02,     -6.04837,50.00000,52.00000,3.639216e-09,0.91293
487.227, 98.84000, 2.705074e-02,     -6.04837,50.00000,52.00000,3.641332e-09,0.91291
488.094, 99.01333, 1.325253e-02,     -6.08000,50.00000,52.00000,3.644362e-09,0.91288
488.967, 99.18667, 2.595829e-03,     -6.04837,50.00000,52.00000,3.647337e-09,0.91285
489.83, 99.36000,-1.299369e-02,     -6.08000,50.00000,52.00000,3.641594e-09,0.91283
490.693, 99.53333,-2.861814e-02,     -6.08000,50.00000,52.00000,3.642743e-09,0.91280
491.561, 99.70667,-4.485662e-02,     -6.08000,50.00000,52.00000,3.642615e-09,0.91277
492.432, 99.88000,-6.229068e-02,     -6.11163,50.00000,52.00000,3.635535e-09,0.91275
493.293,100.053,-8.005297e-02,     -6.08000,50.00000,52.00000,3.640208e-09,0.91273
494.156,100.227,-9.698382e-02,     -6.11163,50.00000,52.00000,3.640981e-09,0.91270
495.04,100.4,     -0.11163,     -6.11163,50.00000,52.00000,3.642150e-09,0.91267
495.902,100.573,     -0.12631,     -6.11163,50.00000,52.00000,3.640302e-09,0.91264
496.758,100.747,     -0.14072,     -6.12744,50.00000,52.00000,3.642469e-09,0.91262
497.639,100.92,     -0.15780,     -6.12744,50.00000,52.00000,3.636472e-09,0.91257
498.507,101.093,     -0.17228,     -6.09581,50.00000,52.00000,3.635972e-09,0.91254
499.368,101.267,     -0.18855,     -6.12744,50.00000,52.00000,3.640676e-09,0.91252
500.234,101.44,     -0.20808,     -6.12744,50.00000,52.00000,3.639156e-09,0.91249
501.098,101.613,     -0.22296,     -6.09581,50.00000,52.00000,3.638887e-09,0.91247
501.97,101.787,     -0.23875,     -6.12744,50.00000,52.00000,3.636648e-09,0.91244
502.828,101.96,     -0.25487,     -6.09581,50.00000,52.00000,3.640835e-09,0.91241
503.699,102.133,     -0.26779,     -6.09581,50.00000,52.00000,3.642792e-09,0.91239
504.555,102.307,     -0.28427,     -6.10372,50.00000,52.00000,3.635894e-09,0.91236
505.422,102.48,     -0.30079,     -6.10372,50.00000,52.00000,3.638761e-09,0.91233
506.288,102.653,     -0.31498,     -6.09581,50.00000,52.00000,3.639593e-09,0.91230
507.164,102.827,     -0.33157,     -6.09581,50.00000,52.00000,3.635120e-09,0.91228
508.026,103,     -0.34790,     -6.06419,50.00000,52.00000,3.641684e-09,0.91225
508.897,103.173,     -0.36574,     -6.09581,50.00000,52.00000,3.643366e-09,0.91223
509.765,103.347,     -0.38096,     -6.06419,50.00000,52.00000,3.640477e-09,0.91220
510.632,103.52,     -0.40125,     -6.06419,50.00000,52.00000,3.640768e-09,0.91217
511.503,103.693,     -0.41594,     -6.06419,50.00000,52.00000,3.641554e-09,0.91214
512.365,103.867,     -0.43215,     -6.04047,50.00000,52.00000,3.644921e-09,0.91212
513.232,104.04,     -0.44631,     -6.07209,50.00000,52.00000,3.645905e-09,0.91209
514.089,104.213,     -0.46734,     -6.04047,50.00000,52.00000,3.636070e-09,0.91207
514.96,104.387,     -0.48307,     -6.04047,50.00000,52.00000,3.637767e-09,0.91204
515.836,104.56,     -0.49852,     -6.00907,50.00000,52.00000,3.641370e-09,0.91199
516.701,104.733,     -0.51580,     -6.03256,50.00000,52.00000,3.639436e-09,0.91196
517.563,104.907,     -0.53282,     -6.03256,50.00000,52.00000,3.636842e-09,0.91193
518.425,105.08,     -0.55046,     -6.03256,50.00000,52.00000,3.642732e-09,0.91190
519.303,105.253,     -0.56636,     -6.00116,50.00000,52.00000,3.636969e-09,0.91188
520.185,105.427,     -0.58080,     -6.03256,50.00000,52.00000,3.640611e-09,0.91185
521.035,105.6,     -0.59734,     -6.03256,50.00000,52.00000,3.638799e-09,0.91182
521.894,105.773,     -0.61693,     -6.00907,50.00000,52.00000,3.645849e-09,0.91179
522.771,105.947,     -0.63116,     -6.00116,50.00000,52.00000,3.639939e-09,0.91176
523.632,106.12,     -0.64570,     -5.98535,50.00000,52.00000,3.640217e-09,0.91174
524.518,106.293,     -0.66241,     -6.01698,50.00000,52.00000,3.641272e-09,0.91171
525.376,106.467,     -0.68094,     -6.01698,50.00000,52.00000,3.634647e-09,0.91168
526.249,106.64,     -0.69529,     -5.98535,50.00000,52.00000,3.634404e-09,0.91166
527.115,106.813,     -0.71087,     -5.98535,50.00000,52.00000,3.642610e-09,0.91163
527.979,106.987,     -0.72952,     -6.00116,50.00000,52.00000,3.638680e-09,0.91160
528.843,107.16,     -0.74638,     -5.96953,50.00000,52.00000,3.636787e-09,0.91157
529.714,107.333,     -0.76146,     -5.96953,50.00000,52.00000,3.644101e-09,0.91154
530.582,107.507,     -0.77991,     -5.96953,50.00000,52.00000,3.640065e-09,0.91151
531.446,107.68,     -0.79535,     -6.00116,50.00000,52.00000,3.637498e-09,0.91149
532.312,107.853,     -0.80991,     -5.98535,50.00000,52.00000,3.634949e-09,0.91146
533.186,108.027,     -0.82604,     -5.96953,50.00000,52.00000,3.643804e-09,0.91143
534.05,108.2,     -0.84310,     -5.96953,50.00000,52.00000,3.638783e-09,0.91140
534.916,108.373,     -0.85806,     -5.93791,50.00000,52.00000,3.639716e-09,0.91137
535.781,108.547,     -0.87213,     -5.93000,50.00000,52.00000,3.637726e-09,0.91131
536.656,108.72,     -0.88715,     -5.93000,50.00000,52.00000,3.640079e-09,0.91128
537.519,108.893,     -0.90250,     -5.93000,50.00000,52.00000,3.638995e-09,0.91126
538.378,109.067,     -0.91849,     -5.93000,50.00000,52.00000,3.630813e-09,0.91123
539.248,109.24,     -0.93698,     -5.90907,50.00000,52.00000,3.641170e-09,0.91120
540.122,109.413,     -0.95275,     -5.92488,50.00000,52.00000,3.640244e-09,0.91117
540.989,109.587,     -0.96700,     -5.88791,50.00000,52.00000,3.636821e-09,0.91114
541.858,109.76,     -0.98127,     -5.91953,50.00000,52.00000,3.645058e-09,0.91111
542.712,109.933,     -0.99772,     -5.91953,50.00000,52.00000,3.633312e-09,0.91109
543.588,110.107,     -1.01052,     -5.88791,50.00000,52.00000,3.636974e-09,0.91106
544.463,110.28,     -1.02582,     -5.91953,50.00000,52.00000,3.646785e-09,0.91103
545.325,110.453,     -1.03989,     -5.91953,50.00000,52.00000,3.634647e-09,0.91100
546.2,110.627,     -1.05431,     -5.88791,50.00000,52.00000,3.644656e-09,0.91098
547.075,110.8,     -1.07000,     -5.88791,50.00000,52.00000,3.640002e-09,0.91094
547.951,110.973,     -1.08387,     -5.89581,50.00000,52.00000,3.641559e-09,0.91091
548.814,111.147,     -1.09743,     -5.89581,50.00000,52.00000,3.645121e-09,0.91088
549.687,111.32,     -1.11320,     -5.89581,50.00000,52.00000,3.641824e-09,0.91085
550.547,111.493,     -1.12775,     -5.89581,50.00000,52.00000,3.639016e-09,0.91082
551.412,111.667,     -1.14388,     -5.88791,50.00000,52.00000,3.639905e-09,0.91079
552.276,111.84,     -1.15943,     -5.91163,50.00000,52.00000,3.639226e-09,0.91077
553.154,112.013,     -1.17345,     -5.89581,50.00000,52.00000,3.646740e-09,0.91073
554.019,112.187,     -1.18655,     -5.87209,50.00000,52.00000,3.633096e-09,0.91068
554.897,112.36,     -1.20220,     -5.86419,50.00000,52.00000,3.640735e-09,0.91065
555.765,112.533,     -1.21723,     -5.86419,50.00000,52.00000,3.649081e-09,0.91062
556.627,112.707,     -1.23259,     -5.86419,50.00000,52.00000,3.639116e-09,0.91059
557.497,112.88,     -1.24580,     -5.84860,50.00000,52.00000,3.638450e-09,0.91056
558.367,113.053,     -1.25903,     -5.81698,50.00000,52.00000,3.635905e-09,0.91053
559.236,113.227,     -1.27481,     -5.84860,50.00000,52.00000,3.636804e-09,0.91050
560.103,113.4,     -1.28840,     -5.84860,50.00000,52.00000,3.636471e-09,0.91047
560.973,113.573,     -1.30139,     -5.81698,50.00000,52.00000,3.631693e-09,0.91044
561.833,113.747,     -1.31849,     -5.84860,50.00000,52.00000,3.638282e-09,0.91041
562.701,113.92,     -1.33027,     -5.82488,50.00000,52.00000,3.636635e-09,0.91038
563.566,114.093,     -1.34079,     -5.83279,50.00000,52.00000,3.638516e-09,0.91035
564.443,114.267,     -1.35357,     -5.81698,50.00000,52.00000,3.635461e-09,0.91032
565.314,114.44,     -1.36604,     -5.81698,50.00000,52.00000,3.635173e-09,0.91029
566.168,114.613,     -1.38137,     -5.83279,50.00000,52.00000,3.637644e-09,0.91026
567.041,114.787,     -1.39294,     -5.81698,50.00000,52.00000,3.633967e-09,0.91023
567.911,114.96,     -1.40612,     -5.78535,50.00000,52.00000,3.640632e-09,0.91020
568.779,115.133,     -1.41836,     -5.81698,50.00000,52.00000,3.639617e-09,0.91017
569.649,115.307,     -1.43222,     -5.81698,50.00000,52.00000,3.640608e-09,0.91014
570.522,115.48,     -1.44483,     -5.80116,50.00000,52.00000,3.632299e-09,0.91008
571.388,115.653,     -1.45649,     -5.80116,50.00000,52.00000,3.637387e-09,0.91005
572.261,115.827,     -1.46851,     -5.80116,50.00000,52.00000,3.634591e-09,0.91002
573.128,116,     -1.48469,     -5.83279,50.00000,52.00000,3.635515e-09,0.90999
574.005,116.173,     -1.49388,     -5.80116,50.00000,52.00000,3.637930e-09,0.90996
574.868,116.347,     -1.50498,     -5.82488,50.00000,52.00000,3.639891e-09,0.90993
575.74,116.52,     -1.51258,     -5.82488,50.00000,52.00000,3.637798e-09,0.90990
576.611,116.693,     -1.52341,     -5.79326,50.00000,52.00000,3.637271e-09,0.90987
577.479,116.867,     -1.53714,     -5.79326,50.00000,52.00000,3.636280e-09,0.90984
578.344,117.04,     -1.54896,     -5.77744,50.00000,52.00000,3.637603e-09,0.90980
579.204,117.213,     -1.56369,     -5.80116,50.00000,52.00000,3.638933e-09,0.90978
580.088,117.387,     -1.57687,     -5.76953,50.00000,52.00000,3.638578e-09,0.90974
580.953,117.56,     -1.59166,     -5.80116,50.00000,52.00000,3.639753e-09,0.90971
581.822,117.733,     -1.60292,     -5.79326,50.00000,52.00000,3.639456e-09,0.90968
582.694,117.907,     -1.61518,     -5.79326,50.00000,52.00000,3.639433e-09,0.90965
583.558,118.08,     -1.62453,     -5.79326,50.00000,52.00000,3.642028e-09,0.90963
584.423,118.253,     -1.63422,     -5.78535,50.00000,52.00000,3.644643e-09,0.90959
585.302,118.427,     -1.64395,     -5.78535,50.00000,52.00000,3.643277e-09,0.90956
586.172,118.6,     -1.65270,     -5.80116,50.00000,52.00000,3.636988e-09,0.90953
587.044,118.773,     -1.66700,     -5.76953,50.00000,52.00000,3.639758e-09,0.90950
587.917,118.947,     -1.67807,     -5.76953,50.00000,52.00000,3.642236e-09,0.90947
588.787,119.12,     -1.68948,     -5.78535,50.00000,52.00000,3.644596e-09,0.90944
589.653,119.293,     -1.70415,     -5.76163,50.00000,52.00000,3.646940e-09,0.90937
590.517,119.467,     -1.71755,     -5.76163,50.00000,52.00000,3.640538e-09,0.90934
591.385,119.64,     -1.73064,     -5.77744,50.00000,52.00000,3.642800e-09,0.90931
592.26,119.813,     -1.74214,     -5.75372,50.00000,52.00000,3.630866e-09,0.90928
593.129,119.987,     -1.75429,     -5.78535,50.00000,52.00000,3.639292e-09,0.90925
593.988,120.16,     -1.76579,     -5.75372,50.00000,52.00000,3.642638e-09,0.90922
594.857,120.333,     -1.77766,     -5.75372,50.00000,52.00000,3.638652e-09,0.90919
595.723,120.507,     -1.78822,     -5.73791,50.00000,52.00000,3.643523e-09,0.90916
596.596,120.68,     -1.79849,     -5.75372,50.00000,52.00000,3.639416e-09,0.90912
597.465,120.853,     -1.80843,     -5.77744,50.00000,52.00000,3.634371e-09,0.90910
598.191,121,     -1.81613,     -5.74581,50.00000,52.00000,3.643887e-09,0.90906