File: data/TGA/ps_scf3_flynn_ozawa_wall/1K/ExpDat_2025_11_11_SL_PS_Tosoh_A1000_15K_min.csv
#EXPORTTYPE:                 ,DATA ALL
#FILE:                       ,2025_11_11_SL_PS_Tosoh_A1000_15K_min.ngb-ss5
#FORMAT:                     ,NETZSCH5
#FTYPE:                      ,ASCII
#IDENTITY:                   ,PS_A1000_15K_min
#DECIMAL:                    ,POINT
#SEPARATOR:                  ,COMMA
#MTYPE:                      ,DSC
#INSTRUMENT:                 ,NETZSCH STA 449F5
#PROJECT:                    ,PS
#DATE/TIME:                  ,11/12/2025 2:00:09 PM (UTC-5)
#CORR. FILE:                 ,
#TEMPCAL:                    ,05-05-2025 14:38
#SENSITIVITY:                ,28-06-2023 13:53
#LABORATORY:                 ,Tran/AAG
#OPERATOR:                   ,Stan
#REMARK:                     ,
#SAMPLE:                     ,PS_A1000_15K_min
#SAMPLE MASS /mg:            ,4.55
#MATERIAL:                   ,
#REFERENCE:                  ,
#REFERENCE MASS /mg:         ,0
#TYPE OF CRUCIBLE:           ,Al2O3 85 ‘l, open
#SAMPLE CRUCIBLE MASS /mg:   ,0
#REFERENCE CRUCIBLE MASS /mg:,0
#DSC RANGE /‘V:              ,5000
#TG RANGE /mg:               ,35000
#TAU-R:                      ,---
#CORR. CODE:                 ,000
#EXO:                        ,-1
#RANGE:                      ,20›C....800›C/0.0....20.0K/min
#SEGMENT:                    ,S1-4/4
#SEG. 1:                     ,20›C/5.0(K/min)/100›C
#SEG. 2:                     ,100›C/00:05/100›C
#SEG. 3:                     ,100›C/15.0(K/min)/600›C
#SEG. 4:                     ,600›C/20.0(K/min)/800›C

##Temp./›C,Time/min,DSC/(mW/mg),Mass/%,Gas Flow(purge2)/(ml/min),Gas Flow(protective)/(ml/min),TIC(scan:1)/A,Sensit./(uV/mW),Segment
 23.61300, 0.00000,      0.79927,    100,50.00000,54.00000,            ,0.92224,1
 27.90000, 0.86667,      0.94724,     97.88418,50.00000,51.00000,3.777359e-09,0.92262,1
 30.26200, 1.73333,      0.60746,     97.14549,50.00000,48.00000,3.772637e-09,0.92295,1
 31.81200, 2.60000,      0.39185,     87.53055,50.00000,48.00000,3.790148e-09,0.92323,1
 33.06800, 3.46667,      0.31754,     87.78418,50.00000,48.00000,3.797584e-09,0.92342,1
 34.68900, 4.33333,      0.39927,     87.93824,50.00000,48.00000,3.797914e-09,0.92358,1
 36.88700, 5.20000,      0.56523,     88.18198,50.00000,48.00000,3.797831e-09,0.92370,1
 39.75100, 6.06667,      0.75714,     88.52264,50.00000,48.00000,3.807535e-09,0.92381,1
 43.19400, 6.93333,      0.95288,     88.91780,50.00000,48.00000,3.807744e-09,0.92391,1
 47.24900, 7.80000,      1.14034,     89.19648,50.00000,48.00000,3.812311e-09,0.92399,1
 51.78700, 8.66667,      1.31113,     89.53209,50.00000,48.00000,3.824346e-09,0.92408,1
 56.70700, 9.53333,      1.46228,     89.86769,50.00000,48.00000,3.818397e-09,0.92417,1
 61.90400,10.40000,      1.57998,     90.05429,50.00000,48.00000,3.815081e-09,0.92429,1
 67.27600,11.26667,      1.67086,     90.19846,50.00000,48.00000,3.826518e-09,0.92440,1
 72.70800,12.13333,      1.73368,     90.22835,50.00000,48.00000,3.825011e-09,0.92452,1
 78.10700,13.00000,      1.77206,     90.16857,50.00000,48.00000,3.829003e-09,0.92465,1
 83.50800,13.86667,      1.79758,     90.02681,50.00000,48.00000,3.828296e-09,0.92482,1
 88.81300,14.73333,      1.81129,     89.72110,50.00000,48.00000,3.832294e-09,0.92496,1
 94.04000,15.60000,      1.80641,     89.39275,50.00000,48.00000,3.829900e-09,0.92511,1
 98.42000,16.34917,      1.78032,     89.08198,50.00000,48.00000,3.839562e-09,0.92526,2
101.575,16.99917,      1.56290,     88.42813,50.00000,48.00000,3.835317e-09,0.92535,2
103.763,17.64917,      1.19300,     87.67714,50.00000,48.00000,3.841626e-09,0.92546,2
105.361,18.29917,      0.88979,     87.17736,50.00000,48.00000,3.842158e-09,0.92557,2
106.586,18.94917,      0.68401,     86.69758,50.00000,48.00000,3.842676e-09,0.92568,2
107.424,19.59917,      0.50739,     86.20769,50.00000,48.00000,3.837391e-09,0.92578,2
107.928,20.24917,      0.32992,     85.72527,50.00000,48.00000,3.848285e-09,0.92587,2
108.083,20.89917,      0.16351,     85.31495,50.00000,48.00000,3.844686e-09,0.92596,2
108.082,21.07250,      0.12500,     85.20571,50.00000,48.00000,3.840655e-09,0.92598,3
108.08,21.15917,      0.10785,     85.13604,50.00000,48.00000,3.837699e-09,0.92600,3
108.079,21.24583, 9.708352e-02,     85.09868,50.00000,48.00000,3.837699e-09,0.92600,3
108.104,21.33250, 9.233958e-02,     85.12857,50.00000,48.00000,3.842475e-09,0.92601,3
108.154,21.41917,      0.10311,     85.19077,50.00000,48.00000,3.842475e-09,0.92601,3
108.232,21.50583,      0.12592,     85.28264,50.00000,48.00000,3.843022e-09,0.92603,3
108.342,21.59250,      0.16425,     85.40945,50.00000,48.00000,3.843022e-09,0.92603,3
108.503,21.67917,      0.22121,     85.58352,50.00000,48.00000,3.840284e-09,0.92605,3
108.707,21.76583,      0.29478,     85.76747,50.00000,48.00000,3.840284e-09,0.92605,3
108.982,21.85250,      0.38498,     85.92923,50.00000,48.00000,3.837772e-09,0.92606,3
109.289,21.93917,      0.49054,     86.19516,50.00000,48.00000,3.837772e-09,0.92606,3
109.654,22.02583,      0.60891,     86.42154,50.00000,48.00000,3.837638e-09,0.92608,3
110.07,22.11250,      0.73919,     86.63033,50.00000,48.00000,3.837638e-09,0.92608,3
110.54,22.19917,      0.87957,     86.83670,50.00000,48.00000,3.835986e-09,0.92609,3
111.051,22.28583,      1.02402,     87.07055,50.00000,48.00000,3.835986e-09,0.92609,3
111.613,22.37250,      1.17458,     87.28440,50.00000,48.00000,3.839996e-09,0.92610,3
112.223,22.45917,      1.32521,     87.50813,50.00000,48.00000,3.839996e-09,0.92610,3
112.86,22.54583,      1.47739,     87.67956,50.00000,48.00000,3.844363e-09,0.92612,3
113.514,22.63250,      1.62454,     87.87363,50.00000,48.00000,3.844363e-09,0.92612,3
114.212,22.71917,      1.76830,     88.00044,50.00000,48.00000,3.845912e-09,0.92613,3
114.947,22.80583,      1.90796,     88.15956,50.00000,48.00000,3.845912e-09,0.92613,3
115.692,22.89250,      2.03948,     88.30132,50.00000,48.00000,3.833057e-09,0.92614,3
116.461,22.97917,      2.16359,     88.40330,50.00000,48.00000,3.833057e-09,0.92614,3
117.229,23.06583,      2.27972,     88.49033,50.00000,48.00000,3.833978e-09,0.92615,3
118.04,23.15250,      2.38772,     88.61714,50.00000,48.00000,3.836910e-09,0.92616,3
118.846,23.23917,      2.49103,     88.74396,50.00000,48.00000,3.836910e-09,0.92616,3
119.676,23.32583,      2.58931,     88.82088,50.00000,48.00000,3.837878e-09,0.92617,3
120.521,23.41250,      2.67851,     88.92791,50.00000,48.00000,3.837878e-09,0.92617,3
121.377,23.49917,      2.76431,     88.99758,50.00000,48.00000,3.841266e-09,0.92618,3
122.243,23.58583,      2.84671,     89.09934,50.00000,48.00000,3.841266e-09,0.92618,3
123.113,23.67250,      2.92551,     89.17407,50.00000,48.00000,3.841788e-09,0.92618,3
124.018,23.75917,      3.00277,     89.31824,50.00000,48.00000,3.841788e-09,0.92618,3
124.944,23.84583,      3.07812,     89.32813,50.00000,48.00000,3.842663e-09,0.92619,3
125.885,23.93250,      3.15594,     89.43011,50.00000,48.00000,3.842663e-09,0.92619,3
126.839,24.01917,      3.23423,     89.54945,50.00000,48.00000,3.825162e-09,0.92619,3
127.816,24.10583,      3.31134,     89.64396,50.00000,48.00000,3.825162e-09,0.92619,3
128.809,24.19250,      3.39022,     89.71846,50.00000,48.00000,3.839141e-09,0.92620,3
129.837,24.27917,      3.47273,     89.85275,50.00000,48.00000,3.839141e-09,0.92620,3
130.886,24.36583,      3.55998,     89.94989,50.00000,48.00000,3.838687e-09,0.92620,3
131.966,24.45250,      3.64867,     89.98462,50.00000,48.00000,3.838687e-09,0.92620,3
133.062,24.53917,      3.73898,     90.08901,50.00000,48.00000,3.840765e-09,0.92620,3
134.185,24.62583,      3.83167,     90.18857,50.00000,48.00000,3.840765e-09,0.92620,3
135.339,24.71250,      3.92601,     90.31538,50.00000,48.00000,3.842200e-09,0.92620,3
136.505,24.79917,      4.02291,     90.38242,50.00000,48.00000,3.841339e-09,0.92620,3
137.693,24.88583,      4.12000,     90.51165,50.00000,48.00000,3.841339e-09,0.92620,3
138.932,24.97250,      4.21900,     90.61868,50.00000,48.00000,3.854550e-09,0.92620,3
140.178,25.05917,      4.31743,     90.69319,50.00000,48.00000,3.854550e-09,0.92620,3
141.439,25.14583,      4.41588,     90.81516,50.00000,48.00000,3.841426e-09,0.92620,3
142.724,25.23250,      4.51473,     90.84484,50.00000,48.00000,3.841426e-09,0.92620,3
144.048,25.31917,      4.60829,     90.93187,50.00000,48.00000,3.852004e-09,0.92619,3
145.361,25.40583,      4.70273,     91.03385,50.00000,48.00000,3.852004e-09,0.92619,3
146.697,25.49250,      4.79463,     91.09846,50.00000,48.00000,3.840873e-09,0.92619,3
148.066,25.57917,      4.88382,     91.16308,50.00000,48.00000,3.840873e-09,0.92619,3
149.426,25.66583,      4.97039,     91.22791,50.00000,48.00000,3.843000e-09,0.92618,3
150.838,25.75250,      5.05579,     91.28747,50.00000,48.00000,3.843000e-09,0.92618,3
152.205,25.83917,      5.13529,     91.35209,50.00000,48.00000,3.842309e-09,0.92618,3
153.614,25.92583,      5.21137,     91.38198,50.00000,48.00000,3.842309e-09,0.92618,3
155.025,26.01250,      5.28651,     91.43429,50.00000,48.00000,3.842258e-09,0.92617,3
156.456,26.09917,      5.35705,     91.49626,50.00000,48.00000,3.841855e-09,0.92616,3
157.902,26.18583,      5.42444,     91.50374,50.00000,48.00000,3.841855e-09,0.92616,3
159.328,26.27250,      5.49083,     91.56352,50.00000,48.00000,3.843332e-09,0.92615,3
160.792,26.35917,      5.55339,     91.59341,50.00000,48.00000,3.843332e-09,0.92615,3
162.237,26.44583,      5.61401,     91.63802,50.00000,48.00000,3.847060e-09,0.92614,3
163.698,26.53250,      5.67185,     91.68286,50.00000,48.00000,3.847060e-09,0.92614,3
165.183,26.61917,      5.72882,     91.71275,50.00000,48.00000,3.849974e-09,0.92613,3
166.649,26.70583,      5.78288,     91.74242,50.00000,48.00000,3.849974e-09,0.92613,3
168.138,26.79250,      5.83512,     91.77231,50.00000,48.00000,3.842437e-09,0.92612,3
169.631,26.87917,      5.88699,     91.80220,50.00000,48.00000,3.842437e-09,0.92612,3
171.125,26.96583,      5.93789,     91.83209,50.00000,48.00000,3.849173e-09,0.92610,3
172.643,27.05250,      5.98566,     91.86198,50.00000,48.00000,3.849173e-09,0.92610,3
174.14,27.13917,      6.03237,     91.86198,50.00000,48.00000,3.849079e-09,0.92609,3
175.675,27.22583,      6.07713,     91.89165,50.00000,48.00000,3.849079e-09,0.92609,3
177.198,27.31250,      6.12069,     91.92154,50.00000,48.00000,3.836735e-09,0.92607,3
178.738,27.39917,      6.16580,     91.95143,50.00000,48.00000,3.836735e-09,0.92607,3
180.274,27.48583,      6.20764,     91.95143,50.00000,48.00000,3.841045e-09,0.92606,3
181.81,27.57250,      6.24756,     91.98132,50.00000,48.00000,3.840892e-09,0.92604,3
183.357,27.65917,      6.28464,     92.01099,50.00000,48.00000,3.840892e-09,0.92604,3
184.913,27.74583,      6.32058,     92.01099,50.00000,48.00000,3.835033e-09,0.92602,3
186.464,27.83250,      6.35817,     92.04088,50.00000,48.00000,3.835033e-09,0.92602,3
188.017,27.91917,      6.38964,     92.04088,50.00000,48.00000,3.839943e-09,0.92600,3
189.582,28.00583,      6.42016,     92.04088,50.00000,48.00000,3.839943e-09,0.92600,3
191.139,28.09250,      6.44848,     92.04088,50.00000,48.00000,3.843180e-09,0.92598,3
192.703,28.17917,      6.47870,     92.04088,50.00000,48.00000,3.843180e-09,0.92598,3
194.271,28.26583,      6.50314,     92.07077,50.00000,48.00000,3.833845e-09,0.92595,3
195.824,28.35250,      6.52629,     92.04088,50.00000,48.00000,3.833845e-09,0.92595,3
197.396,28.43917,      6.54601,     92.07077,50.00000,48.00000,3.848208e-09,0.92593,3
198.952,28.52583,      6.56441,     92.07077,50.00000,48.00000,3.848208e-09,0.92593,3
200.529,28.61250,      6.58323,     92.13033,50.00000,48.00000,3.837726e-09,0.92591,3
202.073,28.69917,      6.59697,     92.06088,50.00000,48.00000,3.837726e-09,0.92591,3
203.641,28.78583,      6.60901,     92.03099,50.00000,48.00000,3.838198e-09,0.92588,3
205.19,28.87250,      6.61853,     92.03099,50.00000,48.00000,3.838198e-09,0.92588,3
206.743,28.95917,      6.62932,     92.06088,50.00000,48.00000,3.845788e-09,0.92585,3
208.299,29.04583,      6.63595,     92.06088,50.00000,48.00000,3.845788e-09,0.92585,3
209.843,29.13250,      6.64201,     92.03099,50.00000,48.00000,3.837829e-09,0.92582,3
211.392,29.21917,      6.64662,     92.00110,50.00000,48.00000,3.837829e-09,0.92582,3
212.93,29.30583,      6.68061,     92.00110,50.00000,48.00000,3.844917e-09,0.92580,3
214.469,29.39250,      6.68067,     91.97121,50.00000,48.00000,3.844917e-09,0.92580,3
216.011,29.47917,      6.67963,     91.97121,50.00000,48.00000,3.845969e-09,0.92577,3
217.54,29.56583,      6.67837,     91.90659,50.00000,48.00000,3.840418e-09,0.92573,3
219.074,29.65250,      6.67621,     91.90659,50.00000,48.00000,3.840418e-09,0.92573,3
220.608,29.73917,      6.67352,     91.90659,50.00000,48.00000,3.842194e-09,0.92570,3
222.121,29.82583,      6.67075,     91.84703,50.00000,48.00000,3.842194e-09,0.92570,3
223.649,29.91250,      6.66654,     91.84703,50.00000,48.00000,3.847637e-09,0.92567,3
225.164,29.99917,      6.66013,     91.81714,50.00000,48.00000,3.847637e-09,0.92567,3
226.68,30.08583,      6.65494,     91.79473,50.00000,48.00000,3.844317e-09,0.92563,3
228.183,30.17250,      6.64773,     91.78725,50.00000,48.00000,3.844317e-09,0.92563,3
229.701,30.25917,      6.65368,     91.72769,50.00000,48.00000,3.838678e-09,0.92560,3
231.199,30.34583,      6.64296,     91.72769,50.00000,48.00000,3.838678e-09,0.92560,3
232.702,30.43250,      6.63188,     91.69033,50.00000,48.00000,3.847598e-09,0.92556,3
234.194,30.51917,      6.62234,     91.63802,50.00000,48.00000,3.847598e-09,0.92556,3
235.681,30.60583,      6.61279,     91.60835,50.00000,48.00000,3.844980e-09,0.92552,3
237.17,30.69250,      6.60108,     91.54857,50.00000,48.00000,3.844980e-09,0.92552,3
238.66,30.77917,      6.59018,     91.54857,50.00000,48.00000,3.839948e-09,0.92549,3
240.143,30.86583,      6.58443,     91.48396,50.00000,48.00000,3.839948e-09,0.92549,3
241.623,30.95250,      6.64404,     91.38703,50.00000,48.00000,3.846538e-09,0.92545,3
243.089,31.03917,      6.61551,     91.32725,50.00000,48.00000,3.846538e-09,0.92545,3
244.565,31.12583,      6.59182,     91.29736,50.00000,48.00000,3.844064e-09,0.92541,3
246.033,31.21250,      6.56765,     91.23780,50.00000,48.00000,3.844064e-09,0.92541,3
247.494,31.29917,      6.54641,     91.17055,50.00000,48.00000,3.845189e-09,0.92536,3
248.954,31.38583,      6.52756,     91.10857,50.00000,48.00000,3.845189e-09,0.92536,3
250.398,31.47250,      6.51442,     91.00901,50.00000,48.00000,3.847094e-09,0.92532,3
251.85,31.55917,      6.49326,     90.96176,50.00000,48.00000,3.841007e-09,0.92528,3
253.304,31.64583,      6.47432,     90.88462,50.00000,48.00000,3.841007e-09,0.92528,3
254.74,31.73250,      6.45603,     90.76791,50.00000,48.00000,3.842367e-09,0.92523,3
256.186,31.81917,      6.43983,     90.66330,50.00000,48.00000,3.842367e-09,0.92523,3
257.622,31.90583,      6.42455,     90.60374,50.00000,48.00000,3.840563e-09,0.92519,3
259.057,31.99250,      6.41312,     90.48681,50.00000,48.00000,3.840563e-09,0.92519,3
260.491,32.07917,      6.40555,     90.40725,50.00000,48.00000,3.852286e-09,0.92514,3
261.902,32.16583,      6.39743,     90.33275,50.00000,48.00000,3.852286e-09,0.92514,3
263.321,32.25250,      6.38017,     90.20835,50.00000,48.00000,3.854536e-09,0.92509,3
264.746,32.33917,      6.36518,     90.10901,50.00000,48.00000,3.854536e-09,0.92509,3
266.145,32.42583,      6.34938,     89.98703,50.00000,48.00000,3.844475e-09,0.92504,3
267.566,32.51250,      6.33740,     89.84044,50.00000,48.00000,3.844475e-09,0.92504,3
268.969,32.59917,      6.32550,     89.73341,50.00000,48.00000,3.841629e-09,0.92499,3
270.367,32.68583,      6.31293,     89.63648,50.00000,48.00000,3.841629e-09,0.92499,3
271.777,32.77250,      6.30023,     89.51956,50.00000,48.00000,3.841682e-09,0.92494,3
273.17,32.85917,      6.28864,     89.37538,50.00000,48.00000,3.841682e-09,0.92494,3
274.56,32.94583,      6.27805,     89.25363,50.00000,48.00000,3.843013e-09,0.92489,3
275.932,33.03250,      6.26442,     89.11934,50.00000,48.00000,3.843013e-09,0.92489,3
277.327,33.11917,      6.25219,     88.98264,50.00000,48.00000,3.848633e-09,0.92484,3
278.702,33.20583,      6.23688,     88.80352,50.00000,48.00000,3.848633e-09,0.92484,3
280.08,33.29250,      6.22449,     88.65429,50.00000,48.00000,3.840787e-09,0.92478,3
281.462,33.37917,      6.21065,     88.50505,50.00000,48.00000,3.847698e-09,0.92473,3
282.826,33.46583,      6.20209,     88.33121,50.00000,48.00000,3.847698e-09,0.92473,3
284.186,33.55250,      6.19161,     88.15714,50.00000,48.00000,3.843697e-09,0.92467,3
285.565,33.63917,      6.18272,     87.97802,50.00000,48.00000,3.843697e-09,0.92467,3
286.93,33.72583,      6.17960,     87.77670,50.00000,48.00000,3.848705e-09,0.92462,3
288.281,33.81250,      6.17176,     87.59253,50.00000,48.00000,3.848705e-09,0.92462,3
289.639,33.89917,      6.16565,     87.41868,50.00000,48.00000,3.840221e-09,0.92456,3
290.996,33.98583,      6.15700,     87.17231,50.00000,48.00000,3.840221e-09,0.92456,3
292.34,34.07250,      6.15142,     86.96352,50.00000,48.00000,3.843821e-09,0.92450,3
293.691,34.15917,      6.14969,     86.76462,50.00000,48.00000,3.843821e-09,0.92450,3
295.039,34.24583,      6.15325,     86.60044,50.00000,48.00000,3.845489e-09,0.92444,3
296.392,34.33250,      6.15390,     86.29473,50.00000,48.00000,3.845489e-09,0.92444,3
297.727,34.41917,      6.15167,     86.06352,50.00000,48.00000,3.851330e-09,0.92438,3
299.071,34.50583,      6.15271,     85.78000,50.00000,48.00000,3.851330e-09,0.92438,3
300.411,34.59250,      6.15459,     85.51648,50.00000,48.00000,3.842481e-09,0.92432,3
301.74,34.67917,      6.15748,     85.24549,50.00000,48.00000,3.842481e-09,0.92432,3
303.075,34.76583,      6.15851,     84.96703,50.00000,48.00000,3.846551e-09,0.92426,3
304.415,34.85250,      6.15916,     84.66352,50.00000,48.00000,3.846551e-09,0.92426,3
305.742,34.93917,      6.16338,     84.39011,50.00000,48.00000,3.837813e-09,0.92419,3
307.083,35.02583,      6.16622,     84.08923,50.00000,48.00000,3.837813e-09,0.92419,3
308.401,35.11250,      6.17279,     83.77099,50.00000,48.00000,3.842303e-09,0.92413,3
309.731,35.19917,      6.17969,     83.40791,50.00000,48.00000,3.842303e-09,0.92413,3
311.061,35.28583,      6.18663,     83.07714,50.00000,48.00000,3.847260e-09,0.92406,3
312.372,35.37250,      6.19346,     82.78132,50.00000,48.00000,3.848070e-09,0.92400,3
313.688,35.45917,      6.20144,     82.38352,50.00000,48.00000,3.848070e-09,0.92400,3
315.006,35.54583,      6.21207,     82.03780,50.00000,48.00000,3.844773e-09,0.92393,3
316.327,35.63250,      6.22559,     81.67736,50.00000,48.00000,3.844773e-09,0.92393,3
317.651,35.71917,      6.23593,     81.26220,50.00000,48.00000,3.849414e-09,0.92386,3
318.964,35.80583,      6.24491,     80.90396,50.00000,48.00000,3.849414e-09,0.92386,3
320.282,35.89250,      6.25201,     80.48879,50.00000,48.00000,3.849235e-09,0.92379,3
321.587,35.97917,      6.26319,     80.07604,50.00000,48.00000,3.849235e-09,0.92379,3
322.902,36.06583,      6.27340,     79.67077,50.00000,48.00000,3.836383e-09,0.92372,3
324.212,36.15250,      6.28229,     79.22066,50.00000,48.00000,3.836383e-09,0.92372,3
325.517,36.23917,      6.29206,     78.77802,50.00000,48.00000,3.847289e-09,0.92365,3
326.811,36.32583,      6.30640,     78.35055,50.00000,48.00000,3.847289e-09,0.92365,3
328.135,36.41250,      6.32036,     77.87055,50.00000,48.00000,3.852422e-09,0.92358,3
329.435,36.49917,      6.33640,     77.47033,50.00000,48.00000,3.852422e-09,0.92358,3
330.742,36.58583,      6.34835,     76.94308,50.00000,48.00000,3.849865e-09,0.92351,3
332.039,36.67250,      6.35516,     76.45582,50.00000,48.00000,3.849865e-09,0.92351,3
333.334,36.75917,      6.36488,     75.99077,50.00000,48.00000,3.858400e-09,0.92343,3
334.645,36.84583,      6.37119,     75.53077,50.00000,48.00000,3.858400e-09,0.92343,3
335.943,36.93250,      6.39369,     74.91912,50.00000,48.00000,3.848599e-09,0.92335,3
337.244,37.01917,      6.40981,     74.43429,50.00000,48.00000,3.848599e-09,0.92335,3
338.551,37.10583,      6.42291,     73.90725,50.00000,48.00000,3.841846e-09,0.92328,3
339.839,37.19250,      6.43054,     73.40242,50.00000,48.00000,3.845306e-09,0.92320,3
341.143,37.27917,      6.44549,     72.85538,50.00000,48.00000,3.845306e-09,0.92320,3
342.44,37.36583,      6.45752,     72.29582,50.00000,48.00000,3.849483e-09,0.92313,3
343.731,37.45250,      6.46572,     71.74901,50.00000,48.00000,3.849483e-09,0.92313,3
345.032,37.53917,      6.49407,     71.19187,50.00000,48.00000,3.848183e-09,0.92305,3
346.319,37.62583,      6.49758,     70.60505,50.00000,48.00000,3.848183e-09,0.92305,3
347.619,37.71250,      6.50280,     70.03319,50.00000,48.00000,3.851336e-09,0.92297,3
348.91,37.79917,      6.51453,     69.49626,50.00000,48.00000,3.851336e-09,0.92297,3
350.198,37.88583,      6.54122,     68.83978,50.00000,48.00000,3.845001e-09,0.92289,3
351.493,37.97250,      6.53673,     68.27780,50.00000,48.00000,3.845001e-09,0.92289,3
352.772,38.05917,      6.55938,     67.65868,50.00000,48.00000,3.845297e-09,0.92281,3
354.08,38.14583,      6.54864,     67.07429,50.00000,48.00000,3.845297e-09,0.92281,3
355.364,38.23250,      6.57348,     66.44769,50.00000,48.00000,3.843175e-09,0.92273,3
356.657,38.31917,      6.57241,     65.82374,50.00000,48.00000,3.843175e-09,0.92273,3
357.943,38.40583,      6.57952,     65.19209,50.00000,48.00000,3.848567e-09,0.92265,3
359.233,38.49250,      6.58486,     64.56549,50.00000,48.00000,3.848567e-09,0.92265,3
360.526,38.57917,      6.58081,     63.93143,50.00000,48.00000,3.848824e-09,0.92257,3
361.817,38.66583,      6.58800,     63.37209,50.00000,48.00000,3.848824e-09,0.92257,3
363.106,38.75250,      6.59635,     62.67824,50.00000,48.00000,3.848866e-09,0.92248,3
364.392,38.83917,      6.59546,     62.04176,50.00000,48.00000,3.840932e-09,0.92240,3
365.681,38.92583,      6.61356,     61.38791,50.00000,48.00000,3.840932e-09,0.92240,3
366.968,39.01250,      6.61223,     60.72637,50.00000,48.00000,3.840285e-09,0.92231,3
368.253,39.09917,      6.62387,     60.06264,50.00000,48.00000,3.840285e-09,0.92231,3
369.541,39.18583,      6.61023,     59.38132,50.00000,48.00000,3.843485e-09,0.92223,3
370.83,39.27250,      6.63264,     58.70747,50.00000,48.00000,3.843485e-09,0.92223,3
372.113,39.35917,      6.62194,     58.02615,50.00000,48.00000,3.846143e-09,0.92214,3
373.398,39.44583,      6.63295,     57.31253,50.00000,48.00000,3.846143e-09,0.92214,3
374.68,39.53250,      6.64092,     56.61143,50.00000,48.00000,3.847425e-09,0.92205,3
375.966,39.61917,      6.65879,     55.88022,50.00000,48.00000,3.847425e-09,0.92205,3
377.264,39.70583,      6.64299,     55.15670,50.00000,48.00000,3.846155e-09,0.92197,3
378.537,39.79250,      6.65468,     54.44571,50.00000,48.00000,3.846155e-09,0.92197,3
379.836,39.87917,      6.67959,     53.72462,50.00000,48.00000,3.848185e-09,0.92188,3
381.111,39.96583,      6.67272,     52.93890,50.00000,48.00000,3.848185e-09,0.92188,3
382.405,40.05250,      6.68728,     52.16308,50.00000,48.00000,3.851473e-09,0.92181,3
383.686,40.13917,      6.69252,     51.42703,50.00000,48.00000,3.851473e-09,0.92181,3
384.982,40.22583,      6.69363,     50.73582,50.00000,48.00000,3.841465e-09,0.92174,3
386.253,40.31250,      6.69926,     49.94264,50.00000,48.00000,3.841465e-09,0.92174,3
387.533,40.39917,      6.69022,     49.17934,50.00000,48.00000,3.851047e-09,0.92168,3
388.811,40.48583,      6.70664,     48.36615,50.00000,48.00000,3.845332e-09,0.92161,3
390.109,40.57250,      6.72137,     47.61780,50.00000,48.00000,3.845332e-09,0.92161,3
391.397,40.65917,      6.71929,     46.76989,50.00000,48.00000,3.852638e-09,0.92154,3
392.677,40.74583,      6.74830,     45.98923,50.00000,48.00000,3.852638e-09,0.92154,3
393.966,40.83250,      6.74072,     45.19846,50.00000,48.00000,3.847861e-09,0.92147,3
395.248,40.91917,      6.75108,     44.38286,50.00000,48.00000,3.847861e-09,0.92147,3
396.533,41.00583,      6.74897,     43.55253,50.00000,48.00000,3.847881e-09,0.92141,3
397.814,41.09250,      6.75379,     42.76681,50.00000,48.00000,3.847881e-09,0.92141,3
399.103,41.17917,      6.76280,     41.88154,50.00000,48.00000,3.849503e-09,0.92134,3
400.397,41.26583,      6.76776,     41.08593,50.00000,48.00000,3.849503e-09,0.92134,3
401.666,41.35250,      6.76836,     40.23802,50.00000,48.00000,3.847349e-09,0.92128,3
402.96,41.43917,      6.77355,     39.40505,50.00000,48.00000,3.847349e-09,0.92128,3
404.234,41.52583,      6.77735,     38.52484,50.00000,48.00000,3.852704e-09,0.92121,3
405.512,41.61250,      6.78996,     37.70681,50.00000,48.00000,3.852704e-09,0.92121,3
406.809,41.69917,      6.78102,     36.82418,50.00000,48.00000,3.846454e-09,0.92115,3
408.092,41.78583,      6.79981,     35.95626,50.00000,48.00000,3.846454e-09,0.92115,3
409.365,41.87250,      6.79232,     35.04374,50.00000,48.00000,3.848015e-09,0.92109,3
410.65,41.95917,      6.78245,     34.22571,50.00000,48.00000,3.848015e-09,0.92109,3
411.933,42.04583,      6.78751,     33.21626,50.00000,48.00000,3.840234e-09,0.92103,3
413.223,42.13250,      6.79189,     32.35582,50.00000,48.00000,3.840234e-09,0.92103,3
414.495,42.21917,      6.79068,     31.38879,50.00000,48.00000,3.850189e-09,0.92097,3
415.786,42.30583,      6.79357,     30.49363,50.00000,48.00000,3.850189e-09,0.92097,3
417.07,42.39250,      6.79044,     29.50901,50.00000,48.00000,3.845366e-09,0.92091,3
418.361,42.47917,      6.78537,     28.60396,50.00000,48.00000,3.858425e-09,0.92085,3
419.64,42.56583,      6.77567,     27.62923,50.00000,48.00000,3.858425e-09,0.92085,3
420.92,42.65250,      6.77140,     26.68681,50.00000,48.00000,3.845698e-09,0.92079,3
422.209,42.73917,      6.74897,     25.66000,50.00000,48.00000,3.845698e-09,0.92079,3
423.5,42.82583,      6.73346,     24.68264,50.00000,48.00000,3.835975e-09,0.92074,3
424.775,42.91250,      6.72198,     23.66088,50.00000,48.00000,3.835975e-09,0.92074,3
426.068,42.99917,      6.70785,     22.66132,50.00000,48.00000,3.845893e-09,0.92068,3
427.356,43.08583,      6.68004,     21.61692,50.00000,48.00000,3.845893e-09,0.92068,3
428.638,43.17250,      6.65860,     20.65714,50.00000,48.00000,3.849439e-09,0.92063,3
429.93,43.25917,      6.62530,     19.59780,50.00000,48.00000,3.849439e-09,0.92063,3
431.214,43.34583,      6.60140,     18.60835,50.00000,48.00000,3.845738e-09,0.92058,3
432.503,43.43250,      6.56099,     17.56396,50.00000,48.00000,3.845738e-09,0.92058,3
433.793,43.51917,      6.51434,     16.54945,50.00000,48.00000,3.844177e-09,0.92053,3
435.072,43.60583,      6.45752,     15.52022,50.00000,48.00000,3.844177e-09,0.92053,3
436.359,43.69250,      6.40919,     14.55780,50.00000,48.00000,3.848076e-09,0.92048,3
437.655,43.77917,      6.35744,     13.52835,50.00000,48.00000,3.848076e-09,0.92048,3
438.928,43.86583,      6.29994,     12.54132,50.00000,48.00000,3.844259e-09,0.92043,3
440.218,43.95250,      6.23316,     11.55912,50.00000,48.00000,3.844259e-09,0.92043,3
441.516,44.03917,      6.15774,     10.61692,50.00000,48.00000,3.840817e-09,0.92039,3
442.796,44.12583,      6.08112,      9.66945,50.00000,48.00000,3.840817e-09,0.92039,3
444.08,44.21250,      6.00450,      8.79429,50.00000,48.00000,3.845263e-09,0.92034,3
445.364,44.29917,      5.93043,      7.89165,50.00000,48.00000,3.845263e-09,0.92034,3
446.662,44.38583,      5.84536,      7.07363,50.00000,48.00000,3.843093e-09,0.92030,3
447.939,44.47250,      5.75930,      6.16615,50.00000,48.00000,3.843378e-09,0.92026,3
449.23,44.55917,      5.67406,      5.43011,50.00000,48.00000,3.843378e-09,0.92026,3
450.522,44.64583,      5.58644,      4.62703,50.00000,48.00000,3.845372e-09,0.92022,3
451.809,44.73250,      5.49223,      3.92813,50.00000,48.00000,3.845372e-09,0.92022,3
453.096,44.81917,      5.40105,      3.24440,50.00000,48.00000,3.844215e-09,0.92017,3
454.383,44.90583,      5.30979,      2.61538,50.00000,48.00000,3.844215e-09,0.92017,3
455.674,44.99250,      5.22580,      2.02615,50.00000,48.00000,3.849598e-09,0.92013,3
456.972,45.07917,      5.14337,      1.47165,50.00000,48.00000,3.849598e-09,0.92013,3
458.255,45.16583,      5.06236,      0.94703,50.00000,48.00000,3.849354e-09,0.92009,3
459.541,45.25250,      4.97741,      0.47714,50.00000,48.00000,3.849354e-09,0.92009,3
460.828,45.33917,      4.91159, 6.417582e-02,50.00000,48.00000,3.852654e-09,0.92006,3
462.118,45.42583,      4.84975,     -0.35341,50.00000,48.00000,3.852654e-09,0.92006,3
463.406,45.51250,      4.79768,     -0.69912,50.00000,48.00000,3.839829e-09,0.92002,3
464.697,45.59917,      4.75336,     -1.02967,50.00000,48.00000,3.839829e-09,0.92002,3
465.989,45.68583,      4.71865,     -1.28593,50.00000,48.00000,3.850326e-09,0.91998,3
467.277,45.77250,      4.68696,     -1.58418,50.00000,48.00000,3.850326e-09,0.91998,3
468.574,45.85917,      4.65705,     -1.81297,50.00000,48.00000,3.849081e-09,0.91995,3
469.861,45.94583,      4.62722,     -1.98198,50.00000,48.00000,3.849081e-09,0.91995,3
471.141,46.03250,      4.59537,     -2.19341,50.00000,48.00000,3.848511e-09,0.91992,3
472.429,46.11917,      4.56583,     -2.35011,50.00000,48.00000,3.854335e-09,0.91988,3
473.721,46.20583,      4.53967,     -2.47934,50.00000,48.00000,3.854335e-09,0.91988,3
475.01,46.29250,      4.51125,     -2.55890,50.00000,48.00000,3.849648e-09,0.91984,3
476.3,46.37917,      4.48029,     -2.71319,50.00000,48.00000,3.849648e-09,0.91984,3
477.585,46.46583,      4.44892,     -2.74286,50.00000,48.00000,3.847190e-09,0.91981,3
478.869,46.55250,      4.41983,     -2.82000,50.00000,48.00000,3.847190e-09,0.91981,3
480.151,46.63917,      4.38873,     -2.84989,50.00000,48.00000,3.841736e-09,0.91978,3
481.435,46.72583,      4.35913,     -2.84989,50.00000,48.00000,3.841736e-09,0.91978,3
482.728,46.81250,      4.33271,     -2.90945,50.00000,48.00000,3.850192e-09,0.91975,3
484.002,46.89917,      4.30607,     -2.92440,50.00000,48.00000,3.850192e-09,0.91975,3
485.29,46.98583,      4.28509,     -2.93934,50.00000,48.00000,3.856504e-09,0.91972,3
486.586,47.07250,      4.26027,     -2.93934,50.00000,48.00000,3.856504e-09,0.91972,3
487.869,47.15917,      4.24506,     -2.96923,50.00000,48.00000,3.847094e-09,0.91968,3
489.146,47.24583,      4.22485,     -2.99912,50.00000,48.00000,3.847094e-09,0.91968,3
490.445,47.33250,      4.20439,     -2.99912,50.00000,48.00000,3.845281e-09,0.91965,3
491.742,47.41917,      4.18986,     -3.01385,50.00000,48.00000,3.845281e-09,0.91965,3
493.036,47.50583,      4.16975,     -3.04374,50.00000,48.00000,3.851172e-09,0.91962,3
494.316,47.59250,      4.14948,     -3.05868,50.00000,48.00000,3.846408e-09,0.91960,3
495.606,47.67917,      4.13330,     -3.06615,50.00000,48.00000,3.846408e-09,0.91960,3
496.901,47.76583,      4.11295,     -3.08857,50.00000,48.00000,3.849217e-09,0.91957,3
498.175,47.85250,      4.09267,     -3.08857,50.00000,48.00000,3.849217e-09,0.91957,3
499.473,47.93917,      4.07242,     -3.08857,50.00000,48.00000,3.849423e-09,0.91954,3
500.758,48.02583,      4.05645,     -3.08857,50.00000,48.00000,3.849423e-09,0.91954,3
502.051,48.11250,      4.03546,     -3.11846,50.00000,48.00000,3.849305e-09,0.91951,3
503.346,48.19917,      4.01605,     -3.11846,50.00000,48.00000,3.849305e-09,0.91951,3
504.62,48.28583,      3.99534,     -3.11846,50.00000,48.00000,3.850074e-09,0.91949,3
505.918,48.37250,      3.97494,     -3.11846,50.00000,48.00000,3.850074e-09,0.91949,3
507.203,48.45917,      3.95606,     -3.14813,50.00000,48.00000,3.849956e-09,0.91946,3
508.506,48.54583,      3.93579,     -3.17802,50.00000,48.00000,3.849956e-09,0.91946,3
509.785,48.63250,      3.91811,     -3.14813,50.00000,48.00000,3.848827e-09,0.91943,3
511.073,48.71917,      3.89676,     -3.17802,50.00000,48.00000,3.848827e-09,0.91943,3
512.368,48.80583,      3.87928,     -3.17802,50.00000,48.00000,3.846702e-09,0.91941,3
513.663,48.89250,      3.85750,     -3.17802,50.00000,48.00000,3.846702e-09,0.91941,3
514.952,48.97917,      3.83729,     -3.17802,50.00000,48.00000,3.851304e-09,0.91938,3
516.231,49.06583,      3.81695,     -3.20791,50.00000,48.00000,3.851304e-09,0.91938,3
517.533,49.15250,      3.79663,     -3.20044,50.00000,48.00000,3.848417e-09,0.91935,3
518.832,49.23917,      3.77423,     -3.20044,50.00000,48.00000,3.852165e-09,0.91933,3
520.118,49.32583,      3.75536,     -3.20791,50.00000,48.00000,3.852165e-09,0.91933,3
521.411,49.41250,      3.73502,     -3.20791,50.00000,48.00000,3.843422e-09,0.91931,3
522.701,49.49917,      3.71145,     -3.20791,50.00000,48.00000,3.843422e-09,0.91931,3
523.992,49.58583,      3.68950,     -3.17560,50.00000,48.00000,3.848878e-09,0.91928,3
525.291,49.67250,      3.66749,     -3.17560,50.00000,48.00000,3.848878e-09,0.91928,3
526.58,49.75917,      3.64449,     -3.17560,50.00000,48.00000,3.852582e-09,0.91926,3
527.863,49.84583,      3.62252,     -3.20549,50.00000,48.00000,3.852582e-09,0.91926,3
529.158,49.93250,      3.60223,     -3.20549,50.00000,48.00000,3.847600e-09,0.91924,3
530.446,50.01917,      3.57866,     -3.17560,50.00000,48.00000,3.847600e-09,0.91924,3
531.734,50.10583,      3.55443,     -3.20549,50.00000,48.00000,3.841374e-09,0.91922,3
533.028,50.19250,      3.53127,     -3.20549,50.00000,48.00000,3.841374e-09,0.91922,3
534.329,50.27917,      3.50892,     -3.17560,50.00000,48.00000,3.847482e-09,0.91920,3
535.603,50.36583,      3.48376,     -3.17560,50.00000,48.00000,3.847482e-09,0.91920,3
536.907,50.45250,      3.46210,     -3.17560,50.00000,48.00000,3.843592e-09,0.91918,3
538.199,50.53917,      3.43828,     -3.17560,50.00000,48.00000,3.843592e-09,0.91918,3
539.491,50.62583,      3.41494,     -3.14571,50.00000,48.00000,3.850066e-09,0.91916,3
540.785,50.71250,      3.39530,     -3.14571,50.00000,48.00000,3.850066e-09,0.91916,3
542.071,50.79917,      3.36826,     -3.14571,50.00000,48.00000,3.845679e-09,0.91914,3
543.369,50.88583,      3.34467,     -3.14571,50.00000,48.00000,3.842448e-09,0.91912,3
544.677,50.97250,      3.32365,     -3.17560,50.00000,48.00000,3.842448e-09,0.91912,3
545.97,51.05917,      3.29986,     -3.17560,50.00000,48.00000,3.848975e-09,0.91910,3
547.263,51.14583,      3.27568,     -3.14571,50.00000,48.00000,3.848975e-09,0.91910,3
548.553,51.23250,      3.25462,     -3.14571,50.00000,48.00000,3.845003e-09,0.91909,3
549.855,51.31917,      3.23000,     -3.14571,50.00000,48.00000,3.845003e-09,0.91909,3
551.155,51.40583,      3.20439,     -3.11582,50.00000,48.00000,3.841586e-09,0.91907,3
552.451,51.49250,      3.18103,     -3.13824,50.00000,48.00000,3.841586e-09,0.91907,3
553.748,51.57917,      3.15433,     -3.13824,50.00000,48.00000,3.840526e-09,0.91905,3
555.046,51.66583,      3.12931,     -3.13824,50.00000,48.00000,3.840526e-09,0.91905,3
556.338,51.75250,      3.10476,     -3.13824,50.00000,48.00000,3.847334e-09,0.91904,3
557.642,51.83917,      3.07987,     -3.10835,50.00000,48.00000,3.847334e-09,0.91904,3
558.939,51.92583,      3.05307,     -3.09363,50.00000,48.00000,3.847285e-09,0.91902,3
560.249,52.01250,      3.02950,     -3.09363,50.00000,48.00000,3.847285e-09,0.91902,3
561.538,52.09917,      3.00278,     -3.12330,50.00000,48.00000,3.846612e-09,0.91901,3
562.842,52.18583,      2.97930,     -3.09363,50.00000,48.00000,3.846612e-09,0.91901,3
564.141,52.27250,      2.94913,     -3.07121,50.00000,48.00000,3.849090e-09,0.91900,3
565.438,52.35917,      2.92305,     -3.07121,50.00000,48.00000,3.849090e-09,0.91900,3
566.74,52.44583,      2.89298,     -3.10088,50.00000,48.00000,3.840588e-09,0.91898,3
568.035,52.53250,      2.86338,     -3.10088,50.00000,48.00000,3.840588e-09,0.91898,3
569.337,52.61917,      2.83610,     -3.07121,50.00000,48.00000,3.844812e-09,0.91897,3
570.639,52.70583,      2.80753,     -3.07121,50.00000,48.00000,3.844812e-09,0.91897,3
571.93,52.79250,      2.77851,     -3.07121,50.00000,48.00000,3.842479e-09,0.91896,3
573.236,52.87917,      2.75034,     -3.07121,50.00000,48.00000,3.842479e-09,0.91896,3
574.536,52.96583,      2.71843,     -3.09363,50.00000,48.00000,3.845380e-09,0.91895,3
575.836,53.05250,      2.69216,     -3.07121,50.00000,48.00000,3.851488e-09,0.91894,3
577.127,53.13917,      2.66395,     -3.07121,50.00000,48.00000,3.851488e-09,0.91894,3
578.443,53.22583,      2.63693,     -3.07121,50.00000,48.00000,3.843522e-09,0.91893,3
579.729,53.31250,      2.60912,     -3.08615,50.00000,48.00000,3.843522e-09,0.91893,3
581.031,53.39917,      2.58187,     -3.08615,50.00000,48.00000,3.843434e-09,0.91892,3
582.344,53.48583,      2.55241,     -3.08615,50.00000,48.00000,3.843434e-09,0.91892,3
583.643,53.57250,      2.52129,     -3.08615,50.00000,48.00000,3.852158e-09,0.91891,3
584.935,53.65917,      2.49157,     -3.05626,50.00000,48.00000,3.852158e-09,0.91891,3
586.246,53.74583,      2.46487,     -3.05626,50.00000,48.00000,3.847496e-09,0.91890,3
587.55,53.83250,      2.43499,     -3.02637,50.00000,48.00000,3.847496e-09,0.91890,3
588.85,53.91917,      2.40622,     -3.02637,50.00000,48.00000,3.843583e-09,0.91889,3
590.147,54.00583,      2.37335,     -3.05626,50.00000,48.00000,3.843583e-09,0.91889,3
591.455,54.09250,      2.34564,     -3.02637,50.00000,48.00000,3.853469e-09,0.91889,3
592.76,54.17917,      2.31350,     -3.02637,50.00000,48.00000,3.853469e-09,0.91889,3
594.064,54.26583,      2.28218,     -3.02637,50.00000,48.00000,3.849088e-09,0.91888,3
595.288,54.34750,      2.25551,     -3.02637,50.00000,48.00000,3.849088e-09,0.91888,4
596.269,54.41250,      2.23065,     -3.02637,50.00000,48.00000,3.843034e-09,0.91888,4
597.269,54.47750,      2.21852,     -3.02637,50.00000,48.00000,3.843034e-09,0.91888,4
598.285,54.54250,      2.23468,     -2.99648,50.00000,48.00000,3.848659e-09,0.91887,4
599.364,54.60750,      2.29183,     -2.99648,50.00000,48.00000,3.848659e-09,0.91887,4
600.467,54.67250,      2.39157,     -2.96681,50.00000,48.00000,3.848659e-09,0.91887,4
601.624,54.73750,      2.52446,     -2.96681,50.00000,48.00000,3.851568e-09,0.91887,4
602.829,54.80250,      2.68969,     -2.95187,50.00000,48.00000,3.851568e-09,0.91887,4
604.071,54.86750,      2.87175,     -2.93692,50.00000,48.00000,3.849109e-09,0.91886,4
605.355,54.93250,      3.06288,     -2.93692,50.00000,48.00000,3.849109e-09,0.91886,4
606.652,54.99750,      3.24830,     -2.91451,50.00000,48.00000,3.849109e-09,0.91886,4
607.983,55.06250,      3.42649,     -2.87714,50.00000,48.00000,3.854623e-09,0.91886,4
609.326,55.12750,      3.57878,     -2.87714,50.00000,48.00000,3.854623e-09,0.91886,4
610.673,55.19250,      3.71291,     -2.90703,50.00000,48.00000,3.854623e-09,0.91886,4
612.029,55.25750,      3.80892,     -2.87714,50.00000,48.00000,3.842823e-09,0.91885,4
613.375,55.32250,      3.87765,     -2.87714,50.00000,48.00000,3.842823e-09,0.91885,4
614.718,55.38750,      3.91646,     -2.84725,50.00000,48.00000,3.848380e-09,0.91885,4
616.038,55.45250,      3.92578,     -2.81758,50.00000,48.00000,3.848380e-09,0.91885,4
617.351,55.51750,      3.90967,     -2.81758,50.00000,48.00000,3.848380e-09,0.91885,4
618.651,55.58250,      3.86452,     -2.81758,50.00000,48.00000,3.848343e-09,0.91884,4
619.943,55.64750,      3.80804,     -2.84000,50.00000,48.00000,3.848343e-09,0.91884,4
621.218,55.71250,      3.73761,     -2.84725,50.00000,48.00000,3.847415e-09,0.91885,4
622.487,55.77750,      3.65961,     -2.82505,50.00000,48.00000,3.847415e-09,0.91885,4
623.731,55.84250,      3.57362,     -2.81758,50.00000,48.00000,3.847415e-09,0.91885,4
624.983,55.90750,      3.48997,     -2.81758,50.00000,48.00000,3.847378e-09,0.91885,4
626.239,55.97250,      3.40546,     -2.81758,50.00000,48.00000,3.847378e-09,0.91885,4
627.468,56.03750,      3.32800,     -2.81758,50.00000,48.00000,3.840332e-09,0.91885,4
628.716,56.10250,      3.25779,     -2.81758,50.00000,48.00000,3.840332e-09,0.91885,4
629.954,56.16750,      3.19280,     -2.81758,50.00000,48.00000,3.840332e-09,0.91885,4
631.204,56.23250,      3.14411,     -2.81758,50.00000,48.00000,3.846314e-09,0.91885,4
632.451,56.29750,      3.09688,     -2.81758,50.00000,48.00000,3.846314e-09,0.91885,4
633.712,56.36250,      3.05731,     -2.81758,50.00000,48.00000,3.846162e-09,0.91885,4
634.98,56.42750,      3.02799,     -2.78769,50.00000,48.00000,3.846162e-09,0.91885,4
636.239,56.49250,      3.00567,     -2.78769,50.00000,48.00000,3.846162e-09,0.91885,4
637.5,56.55750,      2.98394,     -2.76527,50.00000,48.00000,3.848466e-09,0.91884,4
638.792,56.62250,      2.96775,     -2.78022,50.00000,48.00000,3.848466e-09,0.91884,4
640.074,56.68750,      2.94823,     -2.79516,50.00000,48.00000,3.855982e-09,0.91885,4
641.365,56.75250,      2.93648,     -2.76527,50.00000,48.00000,3.855982e-09,0.91885,4
642.651,56.81750,      2.92141,     -2.79516,50.00000,48.00000,3.855982e-09,0.91885,4
643.936,56.88250,      2.89877,     -2.79516,50.00000,48.00000,3.835102e-09,0.91885,4
645.238,56.94750,      2.88330,     -2.79516,50.00000,48.00000,3.835102e-09,0.91885,4
646.524,57.01250,      2.86021,     -2.76527,50.00000,48.00000,3.835102e-09,0.91885,4
647.834,57.07750,      2.83056,     -2.76527,50.00000,48.00000,3.850098e-09,0.91885,4
649.125,57.14250,      2.80470,     -2.76527,50.00000,48.00000,3.850098e-09,0.91885,4
650.431,57.20750,      2.77453,     -2.76527,50.00000,48.00000,3.848724e-09,0.91885,4
651.732,57.27250,      2.74130,     -2.76527,50.00000,48.00000,3.848724e-09,0.91885,4
653.035,57.33750,      2.70599,     -2.76527,50.00000,48.00000,3.848724e-09,0.91885,4
654.334,57.40250,      2.67156,     -2.76527,50.00000,48.00000,3.843826e-09,0.91885,4
655.628,57.46750,      2.63801,     -2.76527,50.00000,48.00000,3.843826e-09,0.91885,4
656.934,57.53250,      2.59579,     -2.75780,50.00000,48.00000,3.847359e-09,0.91885,4
658.238,57.59750,      2.55577,     -2.73538,50.00000,48.00000,3.847359e-09,0.91885,4
659.542,57.66250,      2.51762,     -2.73538,50.00000,48.00000,3.847359e-09,0.91885,4
660.837,57.72750,      2.47535,     -2.73538,50.00000,48.00000,3.848090e-09,0.91885,4
662.148,57.79250,      2.43334,     -2.73538,50.00000,48.00000,3.848090e-09,0.91885,4
663.46,57.85750,      2.39054,     -2.72066,50.00000,48.00000,3.846843e-09,0.91885,4
664.763,57.92250,      2.34894,     -2.72066,50.00000,48.00000,3.846843e-09,0.91885,4
666.062,57.98750,      2.30521,     -2.75033,50.00000,48.00000,3.846843e-09,0.91885,4
667.365,58.05250,      2.26304,     -2.71802,50.00000,48.00000,3.846162e-09,0.91885,4
668.673,58.11750,      2.22009,     -2.71802,50.00000,48.00000,3.846162e-09,0.91885,4
669.988,58.18250,      2.17570,     -2.71802,50.00000,48.00000,3.844886e-09,0.91885,4
671.296,58.24750,      2.13453,     -2.71802,50.00000,48.00000,3.844886e-09,0.91885,4
672.601,58.31250,      2.09290,     -2.70308,50.00000,48.00000,3.844886e-09,0.91885,4
673.91,58.37750,      2.05015,     -2.70308,50.00000,48.00000,3.843682e-09,0.91885,4
675.215,58.44250,      2.00459,     -2.70308,50.00000,48.00000,3.843682e-09,0.91885,4
676.525,58.50750,      1.96600,     -2.67341,50.00000,48.00000,3.846135e-09,0.91885,4
677.851,58.57250,      1.92328,     -2.66593,50.00000,48.00000,3.846135e-09,0.91885,4
679.151,58.63750,      1.87296,     -2.69560,50.00000,48.00000,3.846135e-09,0.91885,4
680.459,58.70250,      1.83538,     -2.69560,50.00000,48.00000,3.847191e-09,0.91885,4
681.77,58.76750,      1.78823,     -2.69560,50.00000,48.00000,3.847191e-09,0.91885,4
683.087,58.83250,      1.74502,     -2.67341,50.00000,48.00000,3.847191e-09,0.91885,4
684.401,58.89750,      1.69661,     -2.67341,50.00000,48.00000,3.847799e-09,0.91885,4
685.713,58.96250,      1.65588,     -2.67341,50.00000,48.00000,3.847799e-09,0.91885,4
687.027,59.02750,      1.60994,     -2.67341,50.00000,48.00000,3.842851e-09,0.91885,4
688.337,59.09250,      1.56183,     -2.67341,50.00000,48.00000,3.842851e-09,0.91885,4
689.656,59.15750,      1.51634,     -2.67341,50.00000,48.00000,3.842851e-09,0.91885,4
690.973,59.22250,      1.47175,     -2.70308,50.00000,48.00000,3.848618e-09,0.91885,4
692.296,59.28750,      1.42193,     -2.68813,50.00000,48.00000,3.848618e-09,0.91885,4
693.608,59.35250,      1.37778,     -2.67341,50.00000,48.00000,3.836142e-09,0.91885,4
694.924,59.41750,      1.33044,     -2.65099,50.00000,48.00000,3.836142e-09,0.91885,4
696.235,59.48250,      1.28022,     -2.65099,50.00000,48.00000,3.836142e-09,0.91885,4
697.552,59.54750,      1.23573,     -2.64352,50.00000,48.00000,3.843015e-09,0.91885,4
698.876,59.61250,      1.18632,     -2.65846,50.00000,48.00000,3.843015e-09,0.91885,4
700.193,59.67750,      1.13746,     -2.67341,50.00000,48.00000,3.849959e-09,0.91885,4
701.503,59.74250,      1.09019,     -2.60374,50.00000,48.00000,3.849959e-09,0.91885,4
702.829,59.80750,      1.04593,     -2.63846,50.00000,48.00000,3.849959e-09,0.91885,4
704.143,59.87250,      0.99187,     -2.63846,50.00000,48.00000,3.848588e-09,0.91885,4
705.461,59.93750,      0.94494,     -2.63846,50.00000,48.00000,3.848588e-09,0.91885,4
706.776,60.00250,      0.89824,     -2.60857,50.00000,48.00000,3.841345e-09,0.91885,4
708.093,60.06750,      0.84380,     -2.63846,50.00000,48.00000,3.841345e-09,0.91885,4
709.409,60.13250,      0.79616,     -2.63846,50.00000,48.00000,3.841345e-09,0.91885,4
710.726,60.19750,      0.74911,     -2.62352,50.00000,48.00000,3.847489e-09,0.91885,4
712.041,60.26250,      0.69567,     -2.62352,50.00000,48.00000,3.847489e-09,0.91885,4
713.35,60.32750,      0.64558,     -2.65341,50.00000,48.00000,3.847489e-09,0.91885,4
714.675,60.39250,      0.59747,     -2.65341,50.00000,48.00000,3.847673e-09,0.91885,4
715.991,60.45750,      0.54435,     -2.62352,50.00000,48.00000,3.847673e-09,0.91885,4
717.3,60.52250,      0.49599,     -2.62352,50.00000,48.00000,3.839775e-09,0.91885,4
718.627,60.58750,      0.44718,     -2.62352,50.00000,48.00000,3.839775e-09,0.91885,4
719.945,60.65250,      0.39613,     -2.62352,50.00000,48.00000,3.839775e-09,0.91885,4
721.26,60.71750,      0.34707,     -2.62352,50.00000,48.00000,3.849639e-09,0.91885,4
722.577,60.78250,      0.29649,     -2.62352,50.00000,48.00000,3.849639e-09,0.91885,4
723.891,60.84750,      0.24402,     -2.62352,50.00000,48.00000,3.847445e-09,0.91885,4
725.206,60.91250,      0.19214,     -2.59385,50.00000,48.00000,3.847445e-09,0.91885,4
726.518,60.97750,      0.13977,     -2.59385,50.00000,48.00000,3.847445e-09,0.91885,4
727.844,61.04250, 8.728631e-02,     -2.59385,50.00000,48.00000,3.848073e-09,0.91885,4
729.166,61.10750, 3.750353e-02,     -2.59385,50.00000,48.00000,3.848073e-09,0.91885,4
730.477,61.17250,-1.700278e-02,     -2.59385,50.00000,48.00000,3.840603e-09,0.91886,4
731.783,61.23750,-6.773638e-02,     -2.59385,50.00000,48.00000,3.840603e-09,0.91886,4
733.105,61.30250,     -0.11824,     -2.59385,50.00000,48.00000,3.840603e-09,0.91886,4
734.424,61.36750,     -0.17063,     -2.59385,50.00000,48.00000,3.843350e-09,0.91885,4
735.75,61.43250,     -0.22209,     -2.59385,50.00000,48.00000,3.843350e-09,0.91885,4
737.064,61.49750,     -0.27651,     -2.59385,50.00000,48.00000,3.838479e-09,0.91885,4
738.379,61.56250,     -0.33177,     -2.56396,50.00000,48.00000,3.838479e-09,0.91885,4
739.696,61.62750,     -0.38395,     -2.56396,50.00000,48.00000,3.838479e-09,0.91885,4
741.013,61.69250,     -0.43447,     -2.56396,50.00000,48.00000,3.843939e-09,0.91885,4
742.333,61.75750,     -0.48618,     -2.56396,50.00000,48.00000,3.843939e-09,0.91885,4
743.65,61.82250,     -0.54481,     -2.56396,50.00000,48.00000,3.842980e-09,0.91885,4
744.965,61.88750,     -0.59569,     -2.53407,50.00000,48.00000,3.842980e-09,0.91885,4
746.28,61.95250,     -0.65172,     -2.52659,50.00000,48.00000,3.842980e-09,0.91885,4
747.589,62.01750,     -0.70895,     -2.52659,50.00000,48.00000,3.849043e-09,0.91885,4
748.915,62.08250,     -0.76093,     -2.52659,50.00000,48.00000,3.849043e-09,0.91885,4
750.228,62.14750,     -0.81878,     -2.55648,50.00000,48.00000,3.849043e-09,0.91885,4
751.547,62.21250,     -0.87389,     -2.52659,50.00000,48.00000,3.838962e-09,0.91885,4
752.849,62.27750,     -0.93164,     -2.52659,50.00000,48.00000,3.838962e-09,0.91885,4
754.171,62.34250,     -0.98809,     -2.52659,50.00000,48.00000,3.836329e-09,0.91885,4
755.48,62.40750,     -1.03959,     -2.52659,50.00000,48.00000,3.836329e-09,0.91885,4
756.8,62.47250,     -1.09884,     -2.49670,50.00000,48.00000,3.836329e-09,0.91885,4
758.112,62.53750,     -1.15603,     -2.49670,50.00000,48.00000,3.844633e-09,0.91885,4
759.427,62.60250,     -1.21191,     -2.49670,50.00000,48.00000,3.844633e-09,0.91885,4
760.753,62.66750,     -1.26757,     -2.49670,50.00000,48.00000,3.849657e-09,0.91885,4
762.063,62.73250,     -1.32260,     -2.49670,50.00000,48.00000,3.849657e-09,0.91885,4
763.377,62.79750,     -1.37959,     -2.49670,50.00000,48.00000,3.849657e-09,0.91885,4
764.69,62.86250,     -1.43416,     -2.49670,50.00000,48.00000,3.846300e-09,0.91885,4
766.004,62.92750,     -1.49032,     -2.49670,50.00000,48.00000,3.846300e-09,0.91885,4
767.329,62.99250,     -1.54661,     -2.49670,50.00000,48.00000,3.845812e-09,0.91885,4
768.634,63.05750,     -1.60338,     -2.49670,50.00000,48.00000,3.845812e-09,0.91885,4
769.96,63.12250,     -1.66215,     -2.46703,50.00000,48.00000,3.845812e-09,0.91885,4
771.272,63.18750,     -1.71735,     -2.49670,50.00000,48.00000,3.841760e-09,0.91885,4
772.586,63.25250,     -1.77747,     -2.49670,50.00000,48.00000,3.841760e-09,0.91885,4
773.895,63.31750,     -1.83624,     -2.46440,50.00000,48.00000,3.841760e-09,0.91885,4
775.218,63.38250,     -1.89333,     -2.43451,50.00000,48.00000,3.842083e-09,0.91885,4
776.531,63.44750,     -1.94906,     -2.46440,50.00000,48.00000,3.842083e-09,0.91885,4
777.837,63.51250,     -2.00971,     -2.46440,50.00000,48.00000,3.843834e-09,0.91885,4
779.152,63.57750,     -2.07015,     -2.46440,50.00000,48.00000,3.843834e-09,0.91885,4
780.464,63.64250,     -2.12627,     -2.43451,50.00000,48.00000,3.843834e-09,0.91885,4
781.786,63.70750,     -2.18996,     -2.43451,50.00000,48.00000,3.847653e-09,0.91885,4
783.096,63.77250,     -2.24413,     -2.43451,50.00000,48.00000,3.847653e-09,0.91885,4
784.407,63.83750,     -2.30176,     -2.43451,50.00000,48.00000,3.850729e-09,0.91885,4
785.722,63.90250,     -2.36140,     -2.40484,50.00000,48.00000,3.850729e-09,0.91885,4
787.033,63.96750,     -2.41744,     -2.40484,50.00000,48.00000,3.850729e-09,0.91885,4
788.348,64.03250,     -2.47660,     -2.40484,50.00000,48.00000,3.841661e-09,0.91884,4
789.672,64.09750,     -2.53779,     -2.40484,50.00000,48.00000,            ,0.44903,4
790.974,64.16250,     -2.59534,     -2.40484,50.00000,48.00000,            ,0.44851,4
792.292,64.22750,     -2.65193,     -2.40484,50.00000,48.00000,            ,0.44798,4
793.61,64.29250,     -2.71165,     -2.37495,50.00000,48.00000,            ,0.44745,4
794.313,64.32750,     -2.74486,     -2.37495,50.00000,48.00000,            ,0.44717,4